t_us,dt_us,ax,ay,az,ppg
12174924,10022,0.123535,-0.171753,0.970215,507
12184916,9992,0.124390,-0.170776,0.963745,514
12194907,9991,0.122559,-0.171997,0.964600,513
12204927,10020,0.125610,-0.170776,0.967407,508
12214931,10004,0.125000,-0.171753,0.968994,512
12224909,9978,0.125000,-0.175537,0.969727,514
12234904,9995,0.124512,-0.176147,0.971313,511
12244905,10001,0.123413,-0.174316,0.971436,514
12254923,10018,0.122192,-0.173584,0.971924,514
12264902,9979,0.129028,-0.171875,0.970703,508
12274911,10009,0.126953,-0.170776,0.966064,508
12284916,10005,0.127930,-0.171265,0.962769,514
12294931,10015,0.130005,-0.167725,0.959351,514
12304902,9971,0.132812,-0.166016,0.958130,511
12314915,10013,0.138428,-0.171997,0.955933,513
12324929,10014,0.140991,-0.175415,0.958130,512
12334909,9980,0.146118,-0.179077,0.956909,515
12344921,10012,0.150146,-0.183350,0.953979,516
12354916,9995,0.152710,-0.191040,0.953857,516
12364915,9999,0.154541,-0.190796,0.957397,515
12374902,9987,0.153076,-0.186035,0.959106,513
12384916,10014,0.151367,-0.181519,0.961426,514
12394907,9991,0.147217,-0.181396,0.960205,511
12404905,9998,0.145264,-0.177979,0.959961,514
12414910,10005,0.140259,-0.173462,0.959106,514
12424916,10006,0.137939,-0.174927,0.959351,514
12434923,10007,0.134766,-0.176636,0.957764,514
12444917,9994,0.133545,-0.177002,0.956055,515
12454909,9992,0.135010,-0.181152,0.952637,515
12464922,10013,0.132202,-0.181763,0.953857,510
12474918,9996,0.132202,-0.182739,0.960083,512
12484952,10034,0.133423,-0.188599,0.964722,512
12494919,9967,0.131958,-0.199463,0.970703,512
12504917,9998,0.127319,-0.197388,0.979492,512
12514911,9994,0.132324,-0.195801,0.982544,513
12524906,9995,0.131836,-0.197754,0.981079,510
12534931,10025,0.133911,-0.193237,0.974487,512
12544922,9991,0.134277,-0.188110,0.969116,512
12554908,9986,0.135864,-0.181030,0.960571,511
12564916,10008,0.137451,-0.176636,0.953369,512
12574922,10006,0.136963,-0.172729,0.956665,512
12584909,9987,0.135986,-0.166504,0.956665,507
12594929,10020,0.133789,-0.164185,0.961914,507
12604919,9990,0.132812,-0.164673,0.966431,514
12614912,9993,0.135986,-0.165161,0.968872,509
12624923,10011,0.135864,-0.164429,0.983154,511
12634914,9991,0.144775,-0.178101,0.991333,512
12644920,10006,0.140015,-0.192627,0.986816,517
12654927,10007,0.140869,-0.201538,0.978271,516
12664930,10003,0.142456,-0.209229,0.968506,515
12674902,9972,0.140259,-0.214355,0.957520,516
12684927,10025,0.139038,-0.213745,0.949829,509
12694924,9997,0.134766,-0.195923,0.940063,518
12704921,9997,0.130859,-0.187988,0.938721,515
12714914,9993,0.127563,-0.183350,0.936401,511
12724924,10010,0.124146,-0.182861,0.934448,514
12734931,10007,0.121094,-0.185181,0.930664,515
12744923,9992,0.115234,-0.181641,0.934814,513
12754927,10004,0.115234,-0.181030,0.941162,509
12764930,10003,0.113403,-0.183105,0.944580,512
12774903,9973,0.108887,-0.185303,0.949707,512
12784909,10006,0.106812,-0.187378,0.952637,512
12794912,10003,0.105469,-0.190430,0.960937,510
12804909,9997,0.105225,-0.196655,0.965210,509
12814917,10008,0.104004,-0.200928,0.968872,505
12824945,10028,0.103271,-0.201904,0.972168,509
12834928,9983,0.105469,-0.206177,0.977173,511
12844926,9998,0.110352,-0.205444,0.976929,511
12854907,9981,0.108765,-0.213379,0.959106,511
12864955,10048,0.117310,-0.207764,0.953491,512
12874937,9982,0.120361,-0.209595,0.942749,516
12884910,9973,0.116577,-0.211060,0.937500,512
12894914,10004,0.120728,-0.208252,0.940063,516
12904918,10004,0.123535,-0.198364,0.948242,518
12914928,10010,0.124512,-0.192017,0.956787,514
12924926,9998,0.125854,-0.184692,0.959595,517
12934928,10002,0.126831,-0.181763,0.968018,520
12944908,9980,0.129272,-0.185303,0.975952,518
12954928,10020,0.129761,-0.184692,0.979248,519
12964924,9996,0.126221,-0.189697,0.985962,515
12974904,9980,0.122559,-0.189575,0.992554,511
12984930,10026,0.123291,-0.185059,1.000732,515
12994929,9999,0.127563,-0.187256,1.006836,516
13004934,10005,0.129395,-0.197632,1.019531,510
13014913,9979,0.138306,-0.234497,1.034302,517
13024931,10018,0.136353,-0.251953,1.033325,511
13034928,9997,0.131714,-0.257446,1.030640,517
13044928,10000,0.126221,-0.247559,1.018677,520
13054940,10012,0.120728,-0.238647,1.001831,521
13064902,9962,0.111328,-0.227783,0.993408,521
13074913,10011,0.107178,-0.210205,0.962280,515
13084923,10010,0.103149,-0.212646,0.947632,523
13094919,9996,0.092773,-0.211670,0.945312,518
13104903,9984,0.084229,-0.212646,0.950195,522
13114920,10017,0.085205,-0.214355,0.950806,524
13124909,9989,0.075928,-0.237549,0.942749,516
13134907,9998,0.083252,-0.246582,0.940552,522
13144920,10013,0.086060,-0.249756,0.926270,521
13154914,9994,0.077393,-0.250977,0.911621,520
13164910,9996,0.057861,-0.248291,0.906128,521
13174903,9993,0.050293,-0.237793,0.907715,522
13189622,14719,0.047363,-0.218018,0.909424,520
13194904,5282,0.050537,-0.213257,0.912109,521
13204925,10021,0.058716,-0.210693,0.915894,522
13214924,9999,0.070312,-0.209595,0.918213,520
13224930,10006,0.079102,-0.203613,0.919800,523
13234940,10010,0.088013,-0.178223,0.932861,520
13244908,9968,0.084351,-0.165894,0.951050,513
13254919,10011,0.100342,-0.166382,0.950928,519
13264914,9995,0.100342,-0.167725,0.944458,516
13274909,9995,0.095093,-0.188110,0.935059,514
13284919,10010,0.090820,-0.209717,0.941162,516
13294907,9988,0.086914,-0.208496,0.952393,516
13304909,10002,0.084839,-0.210571,0.959595,512
13314905,9996,0.083984,-0.215942,0.960083,516
13324916,10011,0.082031,-0.221802,0.959106,516
13334928,10012,0.078491,-0.229858,0.949951,515
13344907,9979,0.062744,-0.211426,0.969116,511
13354904,9997,0.067383,-0.212036,0.964111,517
13364915,10011,0.062866,-0.197266,0.982422,517
13374926,10011,0.055908,-0.188477,0.996582,515
13384902,9976,0.058472,-0.191895,0.991455,514
13394930,10028,0.044556,-0.194092,0.973022,512
13404906,9976,0.040405,-0.185913,0.979004,511
13414945,10039,0.035034,-0.168091,0.984131,512
13424919,9974,0.030151,-0.155640,0.991333,512
13434916,9997,0.032104,-0.152588,0.991699,511
13444917,10001,0.031494,-0.157471,0.992065,508
13454907,9990,0.042480,-0.192017,0.993530,503
13464903,9996,0.049561,-0.184692,0.987427,511
13474928,10025,0.055420,-0.173462,0.979858,510
13484918,9990,0.059570,-0.183594,0.987183,512
13494929,10011,0.070068,-0.198730,1.000488,513
13504924,9995,0.070801,-0.213257,0.982910,508
13514903,9979,0.069214,-0.229492,0.979736,515
13524903,10000,0.074707,-0.227539,0.983398,513
13534912,10009,0.067749,-0.227905,0.999268,514
13544948,10036,0.061157,-0.219849,1.002441,509
13554923,9975,0.074951,-0.196167,0.979858,509
13564914,9991,0.092651,-0.170654,0.966431,506
13574908,9994,0.096802,-0.171021,0.967896,512
13584909,10001,0.095459,-0.162964,0.986328,506
13594949,10040,0.098877,-0.154297,1.004028,510
13604904,9955,0.099609,-0.161499,1.015259,512
13614925,10021,0.100464,-0.181030,1.011963,512
13624912,9987,0.098999,-0.187012,1.000977,511
13634922,10010,0.096680,-0.185913,0.993286,507
13644925,10003,0.097290,-0.183716,0.973022,506
13654931,10006,0.090210,-0.176758,0.953613,504
13664905,9974,0.084839,-0.151733,0.912598,496
13674917,10012,0.084717,-0.150024,0.900024,505
13684908,9991,0.085815,-0.155762,0.890747,502
13694923,10015,0.086060,-0.167603,0.891968,501
13704917,9994,0.089600,-0.177124,0.896240,503
13714902,9985,0.095703,-0.184692,0.901978,501
13724924,10022,0.105347,-0.204468,0.903442,503
13734940,10016,0.115234,-0.208496,0.886597,509
13744922,9982,0.090332,-0.197021,0.881104,511
13754921,9999,0.071777,-0.187256,0.963501,512
13764923,10002,0.088257,-0.180420,0.998901,515
13774927,10004,0.095215,-0.249023,1.057251,507
13784927,10000,0.087158,-0.254028,1.053589,511
13794914,9987,0.083984,-0.242676,1.022705,512
13804915,10001,0.074463,-0.223633,0.996460,511
13814929,10014,0.071533,-0.214600,0.978271,512
13824906,9977,0.075562,-0.199829,0.957275,512
13834910,10004,0.075439,-0.197021,0.928101,504
13844924,10014,0.080444,-0.209351,0.924561,512
13854916,9992,0.078247,-0.222046,0.930176,507
13864931,10015,0.080078,-0.229370,0.937256,508
13874914,9983,0.076782,-0.236206,0.948730,509
13884902,9988,0.063477,-0.238037,0.965698,508
13894924,10022,0.054443,-0.230591,0.974121,507
13904921,9997,0.054687,-0.227905,0.971558,503
13914902,9981,0.052246,-0.226074,0.965698,510
13924918,10016,0.048340,-0.218018,0.962280,503
13934921,10003,0.048950,-0.206177,0.962402,504
13944912,9991,0.055542,-0.191895,0.966431,509
13954912,10000,0.054932,-0.193726,0.970703,512
13964939,10027,0.059814,-0.194580,0.976196,512
13974910,9971,0.057007,-0.195312,0.978516,509
13984929,10019,0.056641,-0.193481,0.981567,512
13994921,9992,0.059937,-0.192261,0.980835,512
14004924,10003,0.061523,-0.192627,0.973267,514
14014920,9996,0.070801,-0.202271,0.965210,511
14024908,9988,0.064819,-0.191650,0.955078,514
14034906,9998,0.068481,-0.197144,0.949951,510
14044906,10000,0.069092,-0.200439,0.945557,512
14054917,10011,0.068970,-0.207275,0.945923,511
14064907,9990,0.066528,-0.212646,0.950684,511
14074930,10023,0.063721,-0.219971,0.960693,510
14084906,9976,0.056030,-0.229980,0.973145,505
14104984,20078,0.040161,-0.251709,0.987671,504
14110349,5365,0.000000,0.000000,0.000000,501
14114911,4562,0.034790,-0.255371,0.981812,505
14132069,17158,0.039551,-0.249756,0.967896,503
14137456,5387,0.000000,0.000000,0.000000,499
14144925,7469,0.043335,-0.244751,0.960937,508
14154915,9990,0.048096,-0.243286,0.958862,503
14164906,9991,0.050537,-0.242187,0.958374,507
14175011,10105,0.050781,-0.241943,0.955933,502
14192623,17612,0.048828,-0.228394,0.947510,509
14198094,5471,0.048950,-0.225098,0.948242,511
14204921,6827,0.000000,0.000000,0.000000,512
14214928,10007,0.054932,-0.233765,0.953735,514
14224917,9989,0.057983,-0.246460,0.951904,512
14234906,9989,0.058105,-0.261841,0.958740,510
14244906,10000,0.058472,-0.269531,0.969116,506
14254902,9996,0.059326,-0.272827,0.977661,508
14264906,10004,0.059204,-0.281250,0.975586,511
14274913,10007,0.057251,-0.278198,0.965454,512
14284904,9991,0.057617,-0.274658,0.954102,511
14294916,10012,0.059204,-0.268921,0.944824,511
14304927,10011,0.059082,-0.263184,0.939331,510
14314925,9998,0.058472,-0.257813,0.935425,511
14324921,9996,0.052979,-0.243286,0.944336,508
14334957,10036,0.050537,-0.239014,0.944824,509
14344915,9958,0.047485,-0.226196,0.949951,508
14354912,9997,0.046387,-0.216919,0.955566,507
14364911,9999,0.048462,-0.214844,0.962036,509
14374930,10019,0.053467,-0.234619,0.962158,504
14384910,9980,0.056152,-0.246216,0.962646,508
14394906,9996,0.050537,-0.254517,0.969849,501
14404903,9997,0.035645,-0.241699,0.972046,505
14414928,10025,0.033447,-0.240234,0.978394,505
14424918,9990,0.027954,-0.242920,0.981934,506
14434929,10011,0.023437,-0.234985,0.989380,501
14444916,9987,0.023682,-0.243896,0.989136,498
14454928,10012,0.024048,-0.250610,0.985107,506
14464930,10002,0.023071,-0.248657,0.984009,508
14474914,9984,0.023437,-0.243042,0.982300,501
14484919,10005,0.019897,-0.234253,0.976807,503
14494904,9985,0.018188,-0.225464,0.975830,508
14504916,10012,0.018555,-0.220093,0.971313,510
14514955,10039,0.016724,-0.227051,0.965088,505
14524924,9969,0.009888,-0.240967,0.961792,511
14534902,9978,0.004761,-0.251831,0.969482,513
14544922,10020,-0.002075,-0.268677,0.969727,511
14554916,9994,-0.006714,-0.277954,0.967896,511
14564918,10002,-0.010742,-0.283813,0.963135,512
14574922,10004,-0.015381,-0.289429,0.957642,513
14584917,9995,-0.012207,-0.292847,0.953369,507
14594902,9985,-0.011841,-0.286987,0.943970,515
14604904,10002,-0.014038,-0.281372,0.941040,516
14614927,10023,-0.016235,-0.276611,0.935181,514
14624918,9991,-0.017822,-0.269165,0.931152,516
14634927,10009,-0.016479,-0.259644,0.928467,517
14644929,10002,-0.013306,-0.252075,0.935547,517
14654910,9981,-0.009521,-0.253052,0.942261,516
14664908,9998,-0.006226,-0.249756,0.941284,515
14674918,10010,-0.002319,-0.253662,0.942505,518
14684926,10008,0.001953,-0.250732,0.941772,512
14694919,9993,0.004150,-0.246094,0.945068,514
14704931,10012,0.013550,-0.249023,0.953369,516
14714930,9999,0.015503,-0.247070,0.955200,514
14724925,9995,0.019409,-0.249878,0.962524,512
14734902,9977,0.021240,-0.251953,0.969604,505
14744912,10010,0.023804,-0.254639,0.977295,509
14754904,9992,0.024170,-0.261475,0.987915,507
14764922,10018,0.024292,-0.262573,0.985718,506
14774918,9996,0.025024,-0.265259,0.983032,508
14784917,9999,0.023926,-0.265381,0.979248,507
14794915,9998,0.027344,-0.264526,0.970337,505
14804904,9989,0.025513,-0.260010,0.964355,504
14814925,10021,0.032227,-0.262329,0.949341,508
14824913,9988,0.029785,-0.260620,0.945312,503
14834921,10008,0.023071,-0.251709,0.945190,510
14844907,9986,0.019165,-0.244629,0.950439,504
14854926,10019,0.015137,-0.242920,0.955322,510
14864912,9986,0.000610,-0.236816,0.965942,509
14874913,10001,-0.005127,-0.230225,0.966919,511
14884915,10002,-0.009888,-0.226318,0.967163,510
14894922,10007,-0.013916,-0.218872,0.966064,507
14904926,10004,-0.017578,-0.212646,0.967651,509
14914906,9980,-0.016602,-0.215820,0.967407,509
14924931,10025,-0.033691,-0.211304,0.966187,509
14934930,9999,-0.027344,-0.216797,0.962402,506
14944911,9981,-0.030029,-0.230957,0.965576,509
14954906,9995,-0.030640,-0.239014,0.967285,507
14964916,10010,-0.031860,-0.250244,0.971558,507
14974910,9994,-0.026367,-0.271729,0.979248,506
14984912,10002,-0.023315,-0.271240,0.983643,502
14994926,10014,-0.020630,-0.270142,0.985352,508
15004906,9980,-0.013550,-0.274780,0.984131,507
15014924,10018,-0.007568,-0.279297,0.978271,510
15024921,9997,-0.000854,-0.280518,0.943115,507
15034919,9998,0.008911,-0.277222,0.961914,509
15044924,10005,0.011475,-0.277466,0.956665,518
15054924,10000,0.011353,-0.269409,0.949097,502
15064917,9993,0.018921,-0.268677,0.945679,507
15074931,10014,0.020508,-0.270508,0.944092,509
15084910,9979,0.016968,-0.265503,0.952881,506
15094934,10024,0.020996,-0.264648,0.956787,505
15104922,9988,0.018677,-0.257813,0.959229,511
15114930,10008,0.020752,-0.260132,0.961670,509
15124929,9999,0.020386,-0.265259,0.960327,513
15134914,9985,0.020386,-0.264038,0.949707,504
15144905,9991,0.019165,-0.262573,0.946899,510
15154930,10025,0.018188,-0.265991,0.948730,510
15164929,9999,0.019165,-0.267700,0.948853,511
15174914,9985,0.016235,-0.266724,0.950562,511
15184911,9997,0.013184,-0.265381,0.950928,508
15194903,9992,0.006836,-0.262451,0.960205,511
15204915,10012,0.003662,-0.260620,0.965210,506
15214923,10008,0.000000,-0.259399,0.969238,509
15224906,9983,-0.003784,-0.257202,0.972534,508
15234915,10009,-0.006470,-0.252563,0.973755,511
15244925,10010,-0.007813,-0.248657,0.967773,512
15254915,9990,-0.007935,-0.248413,0.964355,514
15264904,9989,-0.005737,-0.250488,0.960327,512
15274907,10003,-0.004272,-0.250854,0.957642,512
15284927,10020,-0.004395,-0.250732,0.954346,514
15294913,9986,-0.003662,-0.250244,0.954712,507
15307502,12589,-0.002075,-0.248047,0.951294,513
15314915,7413,-0.000854,-0.245728,0.954590,515
15324929,10014,0.000122,-0.247559,0.954224,519
15334905,9976,0.000122,-0.249634,0.957031,512
15344920,10015,0.001099,-0.248169,0.951782,514
15354908,9988,0.000610,-0.249634,0.961060,514
15364931,10023,0.006226,-0.250854,0.963867,508
15374926,9995,0.006714,-0.252563,0.963013,509
15384912,9986,0.005615,-0.252441,0.964355,513
15394906,9994,0.006836,-0.254272,0.960327,511
15404915,10009,0.012329,-0.257202,0.959595,511
15414902,9987,0.009766,-0.256104,0.958008,511
15424903,10001,0.009155,-0.254395,0.957886,511
15434913,10010,0.008179,-0.251831,0.959839,512
15444915,10002,0.008667,-0.250488,0.962036,512
15454906,9991,0.007568,-0.247192,0.961548,512
15464927,10021,0.007935,-0.239502,0.958862,513
15474917,9990,0.005981,-0.237305,0.958008,513
15484912,9995,0.005615,-0.233643,0.957275,511
15494919,10007,0.006348,-0.231689,0.957397,512
15504910,9991,0.007324,-0.235107,0.964844,511
15514931,10021,0.005737,-0.238037,0.969727,510
15524916,9985,0.001221,-0.242310,0.973145,510
15534906,9990,0.002441,-0.244873,0.973877,507
15544902,9996,0.003540,-0.248291,0.971069,510
15554914,10012,0.004150,-0.247192,0.965454,511
15564928,10014,0.003540,-0.246216,0.961182,507
15574909,9981,0.006714,-0.248657,0.954224,508
15584919,10010,0.007568,-0.250000,0.953247,512
15594919,10000,0.005859,-0.245361,0.956055,511
15604907,9988,0.006348,-0.247681,0.957642,513
15614915,10008,0.006348,-0.252563,0.960083,512
15624932,10017,0.007080,-0.256104,0.961914,508
15634931,9999,0.007202,-0.257568,0.963989,507
15644915,9984,0.006104,-0.258179,0.965576,512
15654929,10014,0.003418,-0.256958,0.965210,512
15664927,9998,0.003296,-0.255249,0.965088,514
15674920,9993,0.005981,-0.257202,0.963501,510
15684907,9987,0.004150,-0.258057,0.956543,507
15694918,10011,0.006348,-0.254761,0.954956,511
15704907,9989,0.009277,-0.252075,0.953979,512
15714907,10000,0.007813,-0.249512,0.953247,507
15724917,10010,0.007813,-0.250854,0.953735,514
15734920,10003,0.007324,-0.253418,0.953979,512
15744917,9997,0.008545,-0.243652,0.959351,512
15754923,10006,0.008301,-0.244019,0.961792,512
15764918,9995,0.007446,-0.245239,0.961914,512
15774921,10003,0.006958,-0.242920,0.961914,511
15784913,9992,0.005615,-0.247437,0.965332,511
15794923,10010,0.002930,-0.250122,0.966187,506
15804909,9986,0.001709,-0.250854,0.967041,505
15820435,15526,0.000366,-0.255371,0.963013,511
15825914,5479,0.000000,0.000000,0.000000,511
15834914,9000,0.000366,-0.252808,0.959961,512
15844914,10000,0.000488,-0.249268,0.954590,510
15854923,10009,0.004028,-0.250854,0.954468,510
15864922,9999,0.005249,-0.251221,0.953247,511
15874929,10007,0.005737,-0.252075,0.953979,512
15884923,9994,0.003540,-0.250366,0.954346,510
15894926,10003,0.006714,-0.251709,0.958862,511
15904938,10012,0.006836,-0.257690,0.960449,514
15914910,9972,0.006958,-0.254517,0.961670,510
15924921,10011,0.006226,-0.250854,0.965820,511
15938546,13625,0.006714,-0.256836,0.973145,512
15944918,6372,0.000000,0.000000,0.000000,510
15954919,10001,0.007568,-0.250488,0.969116,511
15964927,10008,0.010376,-0.246826,0.965454,513
15974909,9982,0.012817,-0.248779,0.961548,507
15984911,10002,0.010132,-0.248779,0.954224,505
15994906,9995,0.011597,-0.247437,0.950317,512
16004915,10009,0.015991,-0.246704,0.947998,514
16014914,9999,0.013916,-0.253052,0.946655,511
16024908,9994,0.012695,-0.255615,0.946777,511
16034921,10013,0.006714,-0.252441,0.947754,512
16044917,9996,0.009888,-0.256836,0.951416,504
16054920,10003,0.008789,-0.264038,0.953613,510
16064931,10011,0.005127,-0.261841,0.957520,512
16074918,9987,0.002686,-0.261597,0.958740,511
16084928,10010,0.001953,-0.263306,0.962158,510
16094913,9985,0.002319,-0.263672,0.961060,511
16104909,9996,0.002197,-0.262573,0.959595,511
16114906,9997,0.001465,-0.256226,0.958008,510
16124910,10004,0.001343,-0.249878,0.958984,512
16134903,9993,0.001953,-0.250244,0.958252,513
16144929,10026,0.001953,-0.251465,0.960449,508
16154930,10001,0.003174,-0.252563,0.960571,512
16164908,9978,0.002319,-0.251221,0.960205,508
16174907,9999,0.004883,-0.250488,0.958374,512
16184912,10005,0.004883,-0.252319,0.959717,507
16194923,10011,0.009033,-0.256714,0.957886,506
16204914,9991,0.007080,-0.260986,0.958862,507
16214926,10012,0.008911,-0.263794,0.957886,512
16224927,10001,0.009155,-0.263184,0.958618,511
16234915,9988,0.009888,-0.258423,0.955933,512
16244909,9994,0.007568,-0.262695,0.957520,511
16254903,9994,0.008545,-0.265381,0.961426,510
16264917,10014,0.006714,-0.266479,0.961792,506
16274912,9995,0.005615,-0.266235,0.962646,508
16284924,10012,0.005005,-0.265869,0.959717,511
16294902,9978,0.003662,-0.263184,0.959961,510
16304936,10034,0.003174,-0.262207,0.962036,510
16314923,9987,0.003662,-0.263550,0.963501,511
16324915,9992,0.003296,-0.268921,0.966675,512
16334928,10013,0.002563,-0.268799,0.968140,512
16344924,9996,0.004883,-0.273193,0.969482,510
16354912,9988,0.004272,-0.271729,0.968262,507
16364929,10017,0.002930,-0.267578,0.965210,512
16374919,9990,0.005981,-0.262817,0.961792,513
16384907,9988,0.006958,-0.260986,0.956787,513
16394915,10008,0.009033,-0.257935,0.950073,512
16404910,9995,0.009766,-0.253784,0.950806,514
16414904,9994,0.009277,-0.250977,0.950073,506
16424924,10020,0.009277,-0.255249,0.952271,510
16434908,9984,0.006714,-0.256958,0.955688,511
16444904,9996,0.007935,-0.258911,0.968018,508
16454926,10022,0.008057,-0.260254,0.970825,514
16464928,10002,0.006958,-0.261230,0.970825,507
16474904,9976,0.006836,-0.261108,0.964600,515
16484915,10011,0.005981,-0.249756,0.952759,509
16494906,9991,0.004517,-0.252686,0.960571,515
16504907,10001,0.009399,-0.259888,0.956787,512
16514909,10002,0.008179,-0.258789,0.958374,514
16524923,10014,0.007935,-0.260254,0.957520,516
16534919,9996,0.007202,-0.265503,0.958374,516
16544907,9988,0.007080,-0.262085,0.959229,516
16554929,10022,0.001465,-0.260254,0.956909,516
16564924,9995,0.000977,-0.258667,0.956299,512
16574928,10004,0.000488,-0.258911,0.952637,510
16584922,9994,-0.000122,-0.257202,0.951660,515
16594920,9998,0.000122,-0.255005,0.949707,509
16604926,10006,-0.000732,-0.256958,0.953735,510
16614916,9990,-0.004150,-0.260742,0.953369,507
16624927,10011,-0.003662,-0.264038,0.955811,512
16634923,9996,-0.002930,-0.268311,0.958496,508
16644915,9992,-0.004761,-0.268921,0.959351,514
16654925,10010,-0.006226,-0.268799,0.961548,513
16664914,9989,-0.003540,-0.265503,0.961792,512
16674905,9991,-0.000610,-0.265259,0.960571,512
16684914,10009,0.000610,-0.266357,0.959961,511
16694917,10003,0.002075,-0.265259,0.957886,513
16704904,9987,0.004272,-0.263794,0.957886,514
16714908,10004,0.005615,-0.260010,0.957520,512
16724924,10016,0.010010,-0.259399,0.956543,505
16734930,10006,0.010986,-0.258057,0.957642,509
16744922,9992,0.010986,-0.257080,0.957153,513
16754922,10000,0.012695,-0.255615,0.956055,512
16764903,9981,0.013062,-0.253662,0.956177,511
16774907,10004,0.013794,-0.253906,0.957520,513
16784919,10012,0.012329,-0.252075,0.958252,508
16794904,9985,0.010986,-0.248413,0.961426,512
16804926,10022,0.010986,-0.248047,0.964600,512
16814906,9980,0.010498,-0.249512,0.966431,510
16824957,10051,0.007446,-0.257813,0.970581,506
16834920,9963,0.007324,-0.257446,0.968628,512
16844915,9995,0.006592,-0.253906,0.965820,513
16854926,10011,0.007202,-0.254028,0.962158,513
16864923,9997,0.008423,-0.256592,0.960815,512
16874931,10008,0.007202,-0.257813,0.960937,513
16884909,9978,0.008911,-0.255737,0.960449,508
16894916,10007,0.005493,-0.254639,0.963623,512
16904915,9999,0.011597,-0.257813,0.961548,512
16914912,9997,0.008545,-0.258179,0.960327,514
16924916,10004,0.009766,-0.255493,0.960327,507
16934930,10014,0.009888,-0.255493,0.960083,505
16944911,9981,0.011719,-0.256714,0.959595,511
16954920,10009,0.010010,-0.255493,0.958374,513
16964914,9994,0.009521,-0.255127,0.958740,512
16974944,10030,0.010010,-0.255615,0.957886,506
16984914,9970,0.009399,-0.255249,0.957886,512
16994911,9997,0.008179,-0.255005,0.950806,514
17004928,10017,0.007935,-0.255371,0.949829,512
17014953,10025,0.009033,-0.257202,0.953857,508
17024902,9949,0.009521,-0.256592,0.955811,513
17034924,10022,0.009155,-0.256104,0.955811,503
17044908,9984,0.009155,-0.253296,0.957520,513
17054924,10016,0.008545,-0.250610,0.958862,511
17064920,9996,0.007935,-0.250977,0.958374,508
17074916,9996,0.006348,-0.250977,0.960205,508
17084912,9996,0.006226,-0.251221,0.959595,512
17094915,10003,0.006836,-0.256714,0.959106,510
17104919,10004,0.007935,-0.255371,0.960693,504
17114914,9995,0.007202,-0.255859,0.961914,510
17124910,9996,0.005493,-0.256592,0.965332,513
17134909,9999,0.006714,-0.255371,0.968628,511
17144921,10012,0.006836,-0.259399,0.967163,514
17154937,10016,0.008545,-0.257324,0.964233,514
17164910,9973,0.012451,-0.256226,0.962646,508
17174920,10010,0.013794,-0.252808,0.959961,513
17184914,9994,0.012573,-0.248535,0.957031,514
17194906,9992,0.014526,-0.247437,0.954346,516
17204910,10004,0.015625,-0.246094,0.954346,519
17214916,10006,0.014771,-0.249023,0.953857,509
17224919,10003,0.010132,-0.246216,0.956787,508
17234916,9997,0.014893,-0.250610,0.957031,513
17244925,10009,0.013184,-0.256226,0.957520,514
17254929,10004,0.009399,-0.257568,0.959839,512
17264916,9987,0.007568,-0.251831,0.961182,516
17274926,10010,0.005127,-0.251587,0.964966,513
17284904,9978,0.004272,-0.248657,0.966919,514
17294929,10025,0.003784,-0.245605,0.964722,512
17304925,9996,0.004028,-0.247192,0.961792,512
17314911,9986,0.003174,-0.248047,0.957764,507
17324908,9997,0.005005,-0.249390,0.959473,511
17336796,11888,0.005005,-0.249512,0.959595,512
17344925,8129,0.003540,-0.251709,0.969116,511
17354912,9987,0.013062,-0.253540,0.970703,512
17364912,10000,0.011475,-0.254639,0.965088,512
17374915,10003,0.014648,-0.241821,0.951538,511
17384952,10037,0.017212,-0.248291,0.957764,512
17394925,9973,0.021973,-0.253662,0.957764,512
17404927,10002,0.023437,-0.256348,0.961548,510
17414903,9976,0.025513,-0.256714,0.963135,511
17424908,10005,0.028198,-0.264526,0.967285,511
17434912,10004,0.027588,-0.262207,0.965820,511
17444913,10001,0.025391,-0.260132,0.962891,509
17454918,10005,0.023804,-0.252808,0.958496,512
17464912,9994,0.025024,-0.246704,0.956299,512
17474907,9995,0.025757,-0.242920,0.953979,510
17493271,18364,0.018311,-0.247192,0.956055,506
17499160,5889,0.000000,0.000000,0.000000,512
17504927,5767,0.015015,-0.252563,0.954346,512
17514913,9986,0.011841,-0.254639,0.954102,513
17524914,10001,0.011597,-0.256836,0.956421,514
17534925,10011,0.006714,-0.261108,0.960693,515
17544924,9999,0.005737,-0.267456,0.961670,514
17554917,9993,0.004761,-0.272339,0.961426,516
17564912,9995,0.002441,-0.270386,0.961548,513
17574907,9995,0.004150,-0.271118,0.961548,508
17584909,10002,0.003662,-0.265381,0.957153,514
17594923,10014,0.003296,-0.264038,0.955688,509
17604916,9993,0.004639,-0.261719,0.954834,514
17614911,9995,0.003784,-0.258301,0.955566,515
17624931,10020,0.005249,-0.254395,0.957397,512
17634904,9973,0.004272,-0.254395,0.959473,513
17650819,15915,0.006958,-0.252319,0.965576,513
17656117,5298,0.007935,-0.252686,0.968750,512
17664911,8794,0.008179,-0.251831,0.968750,513
17674909,9998,0.009766,-0.252441,0.967651,510
17684912,10003,0.011841,-0.253174,0.964355,512
17694923,10011,0.012207,-0.250732,0.957153,515
17704922,9999,0.013916,-0.250366,0.955078,513
17714921,9999,0.015625,-0.248657,0.954834,507
17724912,9991,0.016846,-0.249390,0.953979,512
17734902,9990,0.016968,-0.249756,0.953003,509
17744905,10003,0.017944,-0.248291,0.953613,513
17754913,10008,0.015015,-0.243774,0.958984,511
17764912,9999,0.014771,-0.245605,0.962646,512
17774919,10007,0.011230,-0.245483,0.963989,507
17784919,10000,0.008911,-0.245117,0.965698,512
17794914,9995,0.008789,-0.244873,0.963989,510
17804924,10010,0.006836,-0.248901,0.961426,513
17814930,10006,0.006592,-0.246704,0.961304,514
17824928,9998,0.005859,-0.246216,0.961426,513
17834918,9990,0.006226,-0.250366,0.962891,512
17846265,11347,0.007935,-0.255859,0.963501,515
17854922,8657,0.008667,-0.258667,0.965698,513
17864913,9991,0.009033,-0.258667,0.964355,516
17874913,10000,0.010010,-0.259644,0.963257,518
17895766,20853,0.012207,-0.260376,0.963501,514
17901327,5561,0.014526,-0.260620,0.962891,515
17906765,5438,0.015991,-0.261963,0.961548,517
17914923,8158,0.000000,0.000000,0.000000,515
17924930,10007,0.015869,-0.253540,0.959961,513
17934919,9989,0.017334,-0.250244,0.958862,511
17944916,9997,0.019775,-0.253174,0.958374,514
17954925,10009,0.018677,-0.252319,0.959351,513
17964918,9993,0.015747,-0.247070,0.961426,512
17974927,10009,0.016968,-0.254883,0.960937,516
17984924,9997,0.017090,-0.260498,0.959717,515
17994921,9997,0.017090,-0.261719,0.958008,516
18004923,10002,0.016724,-0.260620,0.957153,511
18014919,9996,0.016235,-0.261353,0.956421,514
18024907,9988,0.013794,-0.260132,0.954590,512
18034932,10025,0.011597,-0.258789,0.954102,515
18044914,9982,0.009644,-0.254395,0.953613,516
18054917,10003,0.009155,-0.251709,0.955322,513
18064909,9992,0.005615,-0.253662,0.955933,508
18074921,10012,0.003174,-0.252075,0.962769,513
18084903,9982,0.000122,-0.254639,0.966431,516
18094910,10007,-0.000244,-0.256714,0.967285,514
18104902,9992,-0.001221,-0.258301,0.967163,513
18114917,10015,-0.000366,-0.257935,0.966309,512
18124908,9991,0.000122,-0.256226,0.960937,509
18134907,9999,0.003418,-0.254395,0.957275,508
18144927,10020,0.005859,-0.254028,0.958374,513
18154915,9988,0.008789,-0.255859,0.961060,513
18164905,9990,0.009521,-0.255981,0.962158,512
18174906,10001,0.012573,-0.258179,0.958252,513
18184929,10023,0.013794,-0.260376,0.951904,506
18194930,10001,0.015137,-0.259277,0.951416,512
18204906,9976,0.016235,-0.260254,0.952148,514
18214926,10020,0.013672,-0.260620,0.953735,513
18224905,9979,0.012573,-0.261353,0.958130,504
18234925,10020,0.010864,-0.260742,0.959595,513
18244904,9979,0.010986,-0.260254,0.965454,513
18254924,10020,0.008179,-0.257080,0.963257,513
18275388,20464,0.007080,-0.255005,0.962769,502
18280749,5361,0.005737,-0.256104,0.961914,512
18286481,5732,0.000000,0.000000,0.000000,509
18294927,8446,0.010010,-0.255249,0.958984,508
18304929,10002,0.009277,-0.251587,0.958618,513
18314903,9974,0.010620,-0.251587,0.962769,507
18324917,10014,0.013062,-0.251709,0.963745,512
18334912,9995,0.015259,-0.255859,0.965942,513
18344923,10011,0.016479,-0.260254,0.969116,508
18354911,9988,0.021729,-0.260376,0.973389,510
18366962,12051,0.023682,-0.265259,0.971436,511
18374931,7969,0.022827,-0.266113,0.965698,512
18384913,9982,0.026001,-0.262085,0.957886,510
18394922,10009,0.033569,-0.266357,0.953613,512
18404916,9994,0.033813,-0.258423,0.947388,512
18414908,9992,0.033447,-0.256104,0.945801,508
18424926,10018,0.034546,-0.256226,0.946899,505
18434930,10004,0.033569,-0.260986,0.947876,507
18444928,9998,0.031006,-0.263428,0.950562,514
18454914,9986,0.029053,-0.263672,0.946045,507
18464914,10000,0.022705,-0.266602,0.944580,511
18474905,9991,0.018433,-0.264404,0.941895,513
18484907,10002,0.014893,-0.255981,0.945557,508
18494926,10019,0.011353,-0.263428,0.951904,515
18504907,9981,0.007935,-0.275879,0.956177,517
18514920,10013,0.004028,-0.287231,0.958862,518
18524926,10006,0.000122,-0.287842,0.961182,513
18534929,10003,0.000488,-0.285400,0.955566,518
18544928,9999,-0.000122,-0.280518,0.956421,516
18554920,9992,0.005737,-0.264526,0.960205,518
18564923,10003,0.007324,-0.242676,0.958862,512
18574910,9987,0.012817,-0.245117,0.964111,516
18584911,10001,0.008911,-0.242798,0.962646,518
18594915,10004,0.010254,-0.239014,0.970337,517
18604906,9991,0.015015,-0.230469,0.969116,518
18614924,10018,0.015625,-0.226318,0.973999,511
18624931,10007,0.019897,-0.231201,0.969604,516
18634911,9980,0.024780,-0.234497,0.967529,517
18644913,10002,0.027222,-0.244385,0.967163,516
18654913,10000,0.032715,-0.258667,0.968750,515
18664919,10006,0.034424,-0.263794,0.970093,516
18674930,10011,0.039185,-0.263794,0.974121,516
18684938,10008,0.039063,-0.267822,0.971313,514
18694917,9979,0.037720,-0.267212,0.965332,513
18704908,9991,0.040283,-0.267212,0.963013,513
18714923,10015,0.038818,-0.259033,0.959473,516
18724914,9991,0.039795,-0.251465,0.957642,512
18734911,9997,0.034424,-0.251221,0.951172,514
18744929,10018,0.030273,-0.248169,0.949341,513
18754920,9991,0.028198,-0.245728,0.945557,511
18764927,10007,0.024536,-0.242920,0.942993,515
18774910,9983,0.021362,-0.240356,0.943237,505
18784928,10018,0.017578,-0.242920,0.949951,512
18794932,10004,0.015625,-0.254272,0.954834,511
18804911,9979,0.015015,-0.265991,0.963745,511
18814932,10021,0.010132,-0.274414,0.969971,514
18824905,9973,0.007690,-0.283081,0.972168,511
18834908,10003,0.008301,-0.288330,0.965088,512
18844909,10001,0.010986,-0.289063,0.958740,511
18854931,10022,0.015991,-0.285645,0.948975,512
18866781,11850,0.016968,-0.271851,0.944214,510
18874931,8150,0.020630,-0.261963,0.941895,512
18884920,9989,0.026001,-0.258789,0.943726,511
18894912,9992,0.030396,-0.259766,0.956299,506
18904925,10013,0.032227,-0.260376,0.959351,505
18914912,9987,0.029907,-0.259277,0.965454,512
18924907,9995,0.035156,-0.256836,0.969360,505
18934923,10016,0.037598,-0.254150,0.971313,510
18944902,9979,0.041016,-0.254028,0.968628,513
18954923,10021,0.046875,-0.254028,0.964478,512
18964908,9985,0.047241,-0.254639,0.958130,512
18974902,9994,0.049072,-0.254639,0.954834,512
18984925,10023,0.051514,-0.255737,0.954102,511
18994913,9988,0.052002,-0.252686,0.952881,510
19004915,10002,0.050049,-0.254761,0.955444,510
19014936,10021,0.046143,-0.256592,0.959351,511
19024908,9972,0.044189,-0.258545,0.959961,510
19034930,10022,0.041382,-0.258301,0.961304,511
19044954,10024,0.039795,-0.254761,0.962158,511
19054928,9974,0.035156,-0.245605,0.965332,512
19064923,9995,0.034546,-0.240601,0.966675,506
19074924,10001,0.035645,-0.237183,0.969360,509
19084931,10007,0.035767,-0.235474,0.968750,511
19094928,9997,0.037354,-0.234253,0.968872,511
19104905,9977,0.037476,-0.233398,0.968140,512
19114928,10023,0.038208,-0.231201,0.964722,510
19124906,9978,0.037598,-0.230713,0.959961,505
19134909,10003,0.037720,-0.232544,0.956299,508
19144908,9999,0.039185,-0.233521,0.951660,511
19154916,10008,0.040649,-0.234619,0.944946,510
19164931,10015,0.036011,-0.246216,0.935669,514
19174929,9998,0.031372,-0.252808,0.942505,512
19184920,9991,0.031250,-0.250977,0.949829,507
19194911,9991,0.029175,-0.253540,0.961670,514
19204904,9993,0.028198,-0.259888,0.973022,507
19214925,10021,0.027588,-0.263916,0.979858,513
19224911,9986,0.031982,-0.263672,0.983765,511
19234910,9999,0.036621,-0.261108,0.976807,514
19244950,10040,0.041138,-0.262207,0.967896,512
19254926,9976,0.046997,-0.262573,0.958984,514
19264904,9978,0.051758,-0.258667,0.950928,507
19275537,10633,0.059204,-0.247437,0.953003,509
19284911,9374,0.068359,-0.244873,0.959351,513
19294918,10007,0.069092,-0.250000,0.961914,508
19304906,9988,0.064697,-0.257080,0.967773,513
19330214,25308,0.062500,-0.266479,0.972290,514
19335309,5095,0.060791,-0.262817,0.972778,514
19340641,5332,0.000000,0.000000,0.000000,516
19344916,4275,0.060913,-0.257324,0.970459,515
19354928,10012,0.062012,-0.251465,0.966919,515
19364903,9975,0.064087,-0.245972,0.964233,513
19374914,10011,0.063965,-0.243530,0.958618,512
19397740,22826,0.053955,-0.241821,0.953979,510
19402949,5209,0.052612,-0.239868,0.958496,513
19408232,5283,0.000000,0.000000,0.000000,515
19414912,6680,0.049438,-0.237061,0.962402,514
19424920,10008,0.049438,-0.229004,0.966064,512
19434951,10031,0.043579,-0.218384,0.975464,510
19444921,9970,0.049683,-0.217896,0.978149,516
19454921,10000,0.050537,-0.220825,0.978638,506
19464912,9991,0.055054,-0.223389,0.975220,511
19474905,9993,0.057251,-0.213257,0.972412,511
19484929,10024,0.059204,-0.212158,0.965454,509
19494929,10000,0.057495,-0.207520,0.953979,511
19504916,9987,0.055664,-0.201416,0.953979,510
19514905,9989,0.055786,-0.201782,0.958130,509
19524930,10025,0.057983,-0.204956,0.959961,509
19534920,9990,0.059692,-0.206665,0.961914,503
19544905,9985,0.069702,-0.218750,0.968628,509
19554923,10018,0.075073,-0.226318,0.970093,508
19564931,10008,0.082642,-0.231445,0.968750,510
19574916,9985,0.087891,-0.234497,0.965332,509
19584906,9990,0.098999,-0.242676,0.967163,507
19594929,10023,0.103516,-0.253784,0.968262,503
19604926,9997,0.109375,-0.260864,0.966919,509
19614907,9981,0.113037,-0.250488,0.954834,505
19624933,10026,0.108887,-0.248535,0.949951,508
19634917,9984,0.104126,-0.241211,0.946533,508
19644911,9994,0.107788,-0.229370,0.938232,504
19654929,10018,0.097290,-0.220825,0.926025,510
19664903,9974,0.091187,-0.214966,0.927490,509
19674926,10023,0.085327,-0.214478,0.937500,505
19684902,9976,0.077881,-0.211304,0.949463,512
19694925,10023,0.073242,-0.208496,0.963013,514
19704923,9998,0.071899,-0.209717,0.971924,513
19714927,10004,0.067261,-0.218140,0.979980,514
19724918,9991,0.067261,-0.220093,0.975098,510
19734913,9995,0.065552,-0.217773,0.969482,512
19744908,9995,0.071045,-0.215698,0.961060,514
19754918,10010,0.074829,-0.219727,0.956421,513
19764919,10001,0.080566,-0.218384,0.948975,512
19774947,10028,0.084717,-0.218628,0.949585,514
19784918,9971,0.086914,-0.218018,0.955200,508
19794902,9984,0.088867,-0.221436,0.961426,512
19804926,10024,0.092041,-0.225464,0.965820,510
19814922,9996,0.092041,-0.224731,0.966675,511
19824919,9997,0.094116,-0.221436,0.961670,513
19834904,9985,0.096558,-0.218750,0.958008,515
19844918,10014,0.101318,-0.217163,0.953613,508
19854930,10012,0.104370,-0.216675,0.950562,511
19864910,9980,0.105225,-0.216309,0.949463,510
19874918,10008,0.105957,-0.210693,0.951294,512
19884914,9996,0.103760,-0.212891,0.952026,507
19894921,10007,0.101074,-0.215820,0.955933,509
19904922,10001,0.099854,-0.217407,0.960937,512
19914927,10005,0.100464,-0.216675,0.963623,510
19924920,9993,0.098877,-0.220093,0.976074,512
19934917,9997,0.102661,-0.222900,0.981201,510
19944917,10000,0.105469,-0.221558,0.977661,510
19954911,9994,0.105835,-0.221436,0.978638,509
19964935,10024,0.111694,-0.224487,0.974243,509
19974930,9995,0.114868,-0.218384,0.967651,508
19984903,9973,0.120605,-0.212769,0.966553,509
19994930,10027,0.121094,-0.212158,0.970093,506
20004943,10013,0.125122,-0.205688,0.966431,506
20014902,9959,0.123169,-0.205566,0.967285,512
20024920,10018,0.123169,-0.206543,0.965576,512
20034910,9990,0.117920,-0.202393,0.961426,512
20044907,9997,0.114624,-0.196289,0.957642,512
20054917,10010,0.110352,-0.192627,0.961792,511
20064906,9989,0.110107,-0.192993,0.960327,508
20074905,9999,0.107544,-0.191528,0.965576,508
20084914,10009,0.104980,-0.189453,0.964600,508
20094907,9993,0.101196,-0.194214,0.965698,509
20104932,10025,0.101685,-0.192749,0.963013,511
20114920,9988,0.101318,-0.193604,0.966309,509
20124917,9997,0.101074,-0.192139,0.968506,508
20134917,10000,0.103394,-0.190674,0.969238,506
20144918,10001,0.108521,-0.203857,0.968628,508
20154906,9988,0.111694,-0.214111,0.971191,504
20164911,10005,0.114014,-0.217285,0.966064,511
20174927,10016,0.117310,-0.219238,0.968872,509
20184923,9996,0.122070,-0.218628,0.973877,512
20194902,9979,0.126587,-0.217773,0.979126,512
20204931,10029,0.131592,-0.216919,0.976196,509
20214914,9983,0.128784,-0.214966,0.969849,510
20224931,10017,0.125854,-0.210937,0.964844,511
20234920,9989,0.121460,-0.208862,0.955688,511
20244908,9988,0.117432,-0.205811,0.950317,513
20254931,10023,0.116943,-0.195923,0.935425,514
20264907,9976,0.113159,-0.199829,0.937134,515
20274924,10017,0.116455,-0.195801,0.932251,512
20284905,9981,0.111816,-0.194946,0.930908,514
20294924,10019,0.111572,-0.197754,0.932251,516
20304916,9992,0.110718,-0.201538,0.945679,516
20314928,10012,0.109131,-0.207764,0.954102,517
20324913,9985,0.108154,-0.209473,0.960205,514
20334924,10011,0.105103,-0.210937,0.964355,513
20344912,9988,0.104126,-0.210083,0.968384,513
20354920,10008,0.103271,-0.210571,0.968140,513
20364917,9997,0.105835,-0.206665,0.968384,512
20374917,10000,0.108643,-0.203857,0.959351,508
20384949,10032,0.110107,-0.198853,0.960693,512
20394908,9959,0.115112,-0.196289,0.956421,503
20404903,9995,0.115723,-0.195801,0.955444,509
20414930,10027,0.150635,-0.201416,0.961548,508
20424918,9988,0.130981,-0.210693,0.962158,506
20434911,9993,0.133545,-0.214722,0.961426,509
20444910,9999,0.138428,-0.216675,0.964600,506
20454912,10002,0.139160,-0.220337,0.964844,506
20464923,10011,0.139404,-0.220093,0.965332,511
20474914,9991,0.140381,-0.214233,0.964844,505
20484930,10016,0.140137,-0.214111,0.964844,513
20496837,11907,0.139404,-0.213745,0.963867,511
20504904,8067,0.136597,-0.210815,0.962158,508
20514914,10010,0.132812,-0.209229,0.959473,515
20524918,10004,0.127197,-0.202148,0.954224,513
20534902,9984,0.124878,-0.198242,0.956177,512
20544926,10024,0.123169,-0.192505,0.959595,517
20554917,9991,0.120972,-0.190552,0.960815,512
20564927,10010,0.117798,-0.190308,0.960449,509
20574948,10021,0.114868,-0.190308,0.962769,516
20584914,9966,0.110962,-0.192505,0.965210,514
20599371,14457,0.113647,-0.195068,0.968872,515
20604913,5542,0.112671,-0.199097,0.969971,514
20614926,10013,0.116821,-0.203613,0.965820,514
20624913,9987,0.120239,-0.209839,0.963135,513
20634914,10001,0.123901,-0.223145,0.953247,515
20644916,10002,0.122192,-0.223389,0.953613,509
20654907,9991,0.121704,-0.220581,0.949463,513
20664926,10019,0.116211,-0.214966,0.950073,515
20674906,9980,0.113647,-0.210327,0.950562,507
20684919,10013,0.108521,-0.205688,0.953613,513
20694904,9985,0.102783,-0.200562,0.961548,510
20704903,9999,0.097656,-0.200684,0.965454,508
20714929,10026,0.094971,-0.197876,0.967407,513
20724946,10017,0.094482,-0.191284,0.968262,513
20734915,9969,0.092773,-0.182495,0.969971,508
20744916,10001,0.096313,-0.174805,0.971436,514
20754924,10008,0.099243,-0.180176,0.969849,512
20764906,9982,0.102905,-0.187866,0.965820,511
20774915,10009,0.105713,-0.196289,0.961060,511
20784931,10016,0.107300,-0.202637,0.955200,513
20794916,9985,0.108398,-0.205078,0.947388,512
20804903,9987,0.108154,-0.203369,0.945190,510
20814922,10019,0.108521,-0.206055,0.943237,512
20824917,9995,0.108887,-0.211060,0.941284,506
20834917,10000,0.109619,-0.212769,0.940918,514
20844929,10012,0.110352,-0.213257,0.946777,506
20854924,9995,0.109253,-0.214966,0.968384,512
20864910,9986,0.109863,-0.227051,0.976685,512
20874923,10013,0.106323,-0.239990,0.979614,512
20884927,10004,0.104858,-0.244873,0.981445,512
20894909,9982,0.104736,-0.244873,0.973267,506
20904925,10016,0.100586,-0.237915,0.962769,510
20914942,10017,0.099487,-0.231323,0.961792,511
20924927,9985,0.098389,-0.229736,0.963379,510
20934917,9990,0.097534,-0.232300,0.963989,513
20944949,10032,0.094971,-0.232666,0.966064,513
20954929,9980,0.094604,-0.232056,0.965820,513
20964930,10001,0.095337,-0.240234,0.965332,511
20974904,9974,0.094116,-0.237427,0.965332,514
20984920,10016,0.093750,-0.229492,0.964478,517
20994906,9986,0.093750,-0.226318,0.964844,518
21004908,10002,0.092651,-0.229858,0.966919,511
21028226,23318,0.091187,-0.204346,0.970459,519
21033447,5221,0.093018,-0.199707,0.972900,519
21038864,5417,0.000000,0.000000,0.000000,518
21044925,6061,0.095581,-0.200562,0.972534,521
21054916,9991,0.096924,-0.206909,0.970337,519
21064920,10004,0.098389,-0.216797,0.968384,514
21074902,9982,0.103638,-0.228271,0.962036,521
21084931,10029,0.106567,-0.229614,0.962036,517
21094932,10001,0.108765,-0.230103,0.961792,513
21104918,9986,0.110596,-0.230469,0.962524,516
21114914,9996,0.110962,-0.235229,0.964233,517
21124938,10024,0.111938,-0.250732,0.965454,513
21134929,9991,0.111450,-0.260986,0.963013,518
21144922,9993,0.109741,-0.264526,0.958984,515
21154906,9984,0.108887,-0.260620,0.959106,514
21164914,10008,0.106323,-0.249878,0.959473,513
21174911,9997,0.103760,-0.238892,0.957764,514
21184916,10005,0.098633,-0.226807,0.961548,511
21194924,10008,0.096558,-0.228516,0.965088,514
21204912,9988,0.095215,-0.230835,0.963867,513
21214927,10015,0.091309,-0.230347,0.962646,511
21224916,9989,0.089844,-0.228027,0.958984,511
21234909,9993,0.082764,-0.219727,0.956299,511
21244907,9998,0.081665,-0.216309,0.955566,510
21254902,9995,0.078491,-0.213745,0.957031,503
21264913,10011,0.080322,-0.217529,0.960083,510
21274925,10012,0.081177,-0.224365,0.962524,506
21284911,9986,0.081909,-0.235962,0.964600,511
21294905,9994,0.088135,-0.234375,0.965576,512
21304910,10005,0.090698,-0.231079,0.963867,508
21314913,10003,0.093262,-0.228882,0.961548,508
21324927,10014,0.093994,-0.226685,0.958618,509
21334914,9987,0.097168,-0.225830,0.958374,509
21344903,9989,0.099487,-0.223633,0.960571,510
21354917,10014,0.098755,-0.217651,0.961792,509
21364903,9986,0.100220,-0.214844,0.962280,510
21374906,10003,0.099365,-0.212158,0.960449,506
21384919,10013,0.100464,-0.213013,0.961914,509
21394912,9993,0.100708,-0.217773,0.958618,507
21404905,9993,0.101807,-0.219971,0.952637,509
21414920,10015,0.098877,-0.223999,0.949829,510
21424925,10005,0.100464,-0.231567,0.947754,511
21434917,9992,0.098145,-0.235229,0.945679,509
21444927,10010,0.096313,-0.234741,0.945557,508
21476082,31155,0.080688,-0.236572,0.941406,509
21481722,5640,0.075073,-0.233887,0.942749,512
21486777,5055,0.000000,0.000000,0.000000,512
21490763,3986,0.072021,-0.227295,0.946899,509
21495955,5192,0.000000,0.000000,0.000000,509
21504951,8996,0.071899,-0.234863,0.965210,508
21514926,9975,0.073975,-0.237427,0.969604,510
21524929,10003,0.074097,-0.236694,0.969360,509
21534926,9997,0.073120,-0.236084,0.965820,509
21544927,10001,0.076294,-0.235352,0.968140,510
21554911,9984,0.083252,-0.235352,0.966797,510
21564909,9998,0.090820,-0.235474,0.973511,509
21574917,10008,0.095703,-0.232056,0.978149,504
21584910,9993,0.099243,-0.234375,0.985840,511
21594931,10021,0.104248,-0.233032,0.999878,513
21604930,9999,0.110474,-0.229614,1.020630,510
21614906,9976,0.125732,-0.213257,1.088257,514
21624920,10014,0.136719,-0.219849,1.117798,516
21634908,9988,0.152344,-0.225952,1.126221,513
21644902,9994,0.160156,-0.234985,1.113770,519
21654929,10027,0.155029,-0.236938,1.085938,522
21664907,9978,0.150757,-0.216309,1.046265,519
21674915,10008,0.139038,-0.177612,1.055420,522
21684903,9988,0.141235,-0.134644,1.075195,531
21694926,10023,0.130127,-0.091187,1.094971,532
21704922,9996,0.118042,-0.065796,1.121094,531
21714915,9993,0.119873,-0.062256,1.141235,534
21724911,9996,0.111084,-0.146729,1.106445,530
21734920,10009,0.097656,-0.188477,1.060669,534
21744904,9984,0.079712,-0.206787,1.024292,534
21775249,30345,0.076782,-0.193848,1.004028,527
21780474,5225,0.000000,0.000000,0.000000,526
21784786,4312,0.065063,-0.155884,0.998047,522
21790942,6156,0.000000,0.000000,0.000000,516
21795572,4630,0.046265,-0.127563,0.989136,516
21804905,9333,0.041138,-0.104004,1.027710,509
21814906,10001,0.022705,-0.111084,1.046753,509
21824909,10003,-0.012329,-0.156006,1.070068,509
21834909,10000,-0.039429,-0.273438,1.078369,509
21844917,10008,-0.035645,-0.273804,1.046021,509
21859679,14762,-0.049683,-0.258789,1.026489,502
21865395,5716,0.000000,0.000000,0.000000,496
21874924,9529,-0.058350,-0.210327,1.019897,497
21884912,9988,-0.048218,-0.173706,0.955322,497
21894932,10020,-0.062988,-0.148682,0.925293,495
21904905,9973,-0.077026,-0.117310,0.914673,494
21914907,10002,-0.084473,-0.099854,0.911133,494
21924918,10011,-0.097412,-0.093506,0.922852,491
21934908,9990,-0.081177,-0.074463,0.911499,493
21944930,10022,-0.069580,-0.102783,0.913330,493
21954928,9998,-0.028198,-0.106079,0.914673,495
21964911,9983,-0.007935,-0.135864,0.899780,502
21974922,10011,-0.061401,-0.174927,0.891846,508
21984911,9989,-0.072510,-0.203491,0.910156,510
21994909,9998,-0.028076,-0.133423,0.902588,522
22004905,9996,0.007813,0.004639,0.860840,529
22014903,9998,0.017822,0.064453,0.838135,535
22024925,10022,0.015137,0.001221,0.869141,548
22034924,9999,0.002441,-0.112671,0.916870,556
22044905,9981,0.003174,-0.157959,0.952759,561
22054907,10002,0.056885,-0.108276,1.008057,567
22064932,10025,0.068359,-0.091431,1.015991,570
22074924,9992,0.069214,-0.075806,1.010986,570
22084909,9985,0.067993,-0.058716,1.004761,572
22094904,9995,0.067993,-0.052612,0.983154,573
22104916,10012,0.082642,-0.021606,0.928345,572
22114919,10003,0.072021,-0.013916,0.914062,569
22124915,9996,0.071533,0.000000,0.907104,571
22134922,10007,0.080688,0.017334,0.915039,569
22144908,9986,0.083984,0.026733,0.927856,570
22154927,10019,0.082886,0.028809,0.926758,567
22164915,9988,0.098511,0.032227,0.921509,566
22174919,10004,0.097290,0.033569,0.913940,560
22184926,10007,0.092163,0.036377,0.906006,563
22194911,9985,0.088379,0.040039,0.899536,561
22204918,10007,0.087280,0.045654,0.895020,552
22214904,9986,0.088135,0.063721,0.887695,555
22224924,10020,0.086792,0.068115,0.886841,558
22250895,25971,0.087036,0.041016,0.922485,551
22256216,5321,0.000000,0.000000,0.000000,549
22260347,4131,0.086914,0.035645,0.927246,541
22265741,5394,0.000000,0.000000,0.000000,549
22274902,9161,0.072510,0.040527,0.931763,540
22284914,10012,0.065308,0.057129,0.931641,544
22294922,10008,0.061157,0.077026,0.934204,547
22304930,10008,0.059692,0.086426,0.932739,539
22314920,9990,0.057251,0.090454,0.930786,537
22324917,9997,0.049561,0.091675,0.941162,536
22334929,10012,0.048584,0.092407,0.953125,545
22344910,9981,0.052734,0.088867,0.966309,545
22354905,9995,0.055176,0.087769,0.973267,546
22364902,9997,0.050415,0.088501,0.980103,545
22374902,10000,0.049438,0.102783,0.977051,544
22384921,10019,0.044922,0.110107,0.976929,543
22394923,10002,0.044800,0.111572,0.978394,541
22404920,9997,0.046143,0.109863,0.981812,545
22414928,10008,0.046875,0.109009,0.981079,543
22424904,9976,0.050659,0.109619,0.983643,550
22434904,10000,0.055298,0.109619,0.990356,550
22444910,10006,0.058350,0.113037,0.987915,549
22454912,10002,0.057251,0.111694,0.985352,549
22464916,10004,0.057373,0.109863,0.983154,547
22474906,9990,0.062134,0.110352,0.981201,551
22484923,10017,0.065674,0.105957,0.976685,541
22494903,9980,0.068115,0.104736,0.972656,543
22504917,10014,0.066772,0.108398,0.971191,546
22514923,10006,0.065918,0.103638,0.976318,546
22524928,10005,0.070190,0.105835,0.972900,536
22534920,9992,0.067749,0.103882,0.971924,543
22544920,10000,0.071533,0.106201,0.965698,542
22554909,9989,0.070679,0.104980,0.964722,537
22564907,9998,0.070312,0.100708,0.966553,538
22574916,10009,0.069824,0.101685,0.963257,538
22584930,10014,0.069580,0.098999,0.963867,536
22594909,9979,0.072876,0.088013,0.954102,536
22604915,10006,0.072144,0.075439,0.950684,529
22614913,9998,0.075317,0.066284,0.939575,530
22624928,10015,0.071167,0.063965,0.935181,528
22634927,9999,0.072388,0.064941,0.944336,523
22644957,10030,0.074341,0.062622,0.950073,518
22654926,9969,0.067383,0.053711,0.976318,518
22664914,9988,0.061157,0.054443,0.988037,515
22674922,10008,0.059326,0.061157,0.977173,505
22684906,9984,0.053955,0.058228,0.981934,505
22694910,10004,0.065552,0.052490,0.968384,498
22704917,10007,0.068115,0.031616,0.950562,500
22714917,10000,0.067993,0.029297,0.936035,493
22724909,9992,0.065308,0.032959,0.912842,494
22734906,9997,0.060303,0.040894,0.914917,496
22745363,10457,0.069580,0.059448,0.931396,492
22754911,9548,0.059570,0.049438,0.963989,493
22764930,10019,0.053345,0.048584,0.978516,488
22774911,9981,0.066772,0.058350,0.970093,490
22784920,10009,0.066162,0.051514,0.938843,483
22794915,9995,0.062256,0.041260,0.911011,487
22804942,10027,0.068604,0.032471,0.891235,485
22814916,9974,0.071289,0.033813,0.887695,483
22824909,9993,0.060791,0.028442,0.906128,477
22834916,10007,0.060059,0.037109,0.935303,482
22844910,9994,0.060547,0.054199,0.963867,481
22854903,9993,0.065308,0.056763,0.969604,473
22864923,10020,0.049683,0.047974,0.956177,477
22874923,10000,0.076660,0.046143,0.921021,479
22884917,9994,0.057007,0.039307,0.913940,479
22894905,9988,0.052124,0.026123,0.913696,481
22904911,10006,0.064209,0.029907,0.915161,482
22914911,10000,0.061890,0.031006,0.921997,482
22924913,10002,0.068848,0.019409,0.940674,478
22934921,10008,0.073853,0.020752,0.945679,485
22944929,10008,0.073975,0.029907,0.952759,477
22954913,9984,0.072021,0.047729,0.962036,485
22964925,10012,0.073120,0.051758,0.968506,486
22974905,9980,0.084595,0.055664,0.974365,480
22984909,10004,0.093384,0.069458,0.978149,485
22994931,10022,0.100830,0.067261,0.978882,492
23004914,9983,0.110107,0.052490,0.978271,490
23014911,9997,0.114868,0.042725,0.973633,497
23024912,10001,0.117310,0.039185,0.972656,501
23034905,9993,0.118408,0.038330,0.994507,503
23044914,10009,0.118164,0.021606,1.004272,506
23054918,10004,0.122803,0.007935,1.022949,509
23064924,10006,0.137817,-0.000610,1.041016,513
23074909,9985,0.144043,-0.014771,1.051147,512
23084926,10017,0.148560,-0.029175,1.036743,516
23094931,10005,0.093384,0.017944,1.023682,519
23104920,9989,0.106201,0.094116,1.090820,522
23114913,9993,0.093262,0.052612,1.151611,521
23124924,10011,0.136963,0.017212,1.136597,522
23134916,9992,0.124390,-0.045410,1.103394,522
23144911,9995,0.143188,-0.098877,1.086914,516
23154906,9995,0.133179,-0.088623,1.062378,518
23164924,10018,0.134888,-0.054932,1.046143,510
23174917,9993,0.137939,-0.008667,1.030029,505
23184944,10027,0.135132,0.035034,1.010010,502
23194930,9986,0.134033,0.039063,0.991089,501
23204918,9988,0.139526,0.014038,0.982788,498
23214945,10027,0.140259,-0.003906,0.969238,494
23224911,9966,0.140869,-0.013428,0.962158,488
23234910,9999,0.137451,-0.030029,0.963745,492
23244917,10007,0.136475,-0.001465,0.981323,489
23254930,10013,0.133911,-0.025269,0.992920,491
23264908,9978,0.132935,-0.024780,1.000488,488
23274905,9997,0.130249,-0.022339,1.000488,493
23284930,10025,0.123901,-0.019409,1.000488,493
23294912,9982,0.120361,-0.012085,1.000977,495
23304909,9997,0.117188,-0.008301,0.989746,495
23314915,10006,0.115601,-0.009521,0.986938,495
23324907,9992,0.112183,-0.006958,0.988525,500
23334920,10013,0.109009,-0.007202,0.992798,503
23344925,10005,0.105103,-0.013672,0.992920,499
23354927,10002,0.106812,-0.021240,0.993164,507
23364927,10000,0.100952,-0.018799,0.995239,507
23374922,9995,0.100708,-0.014526,0.997803,508
23384916,9994,0.102417,-0.016113,0.997314,508
23394929,10013,0.100586,-0.022339,0.995483,509
23404910,9981,0.098267,-0.027588,0.993652,505
23414924,10014,0.094727,-0.044312,0.985474,512
23424949,10025,0.088379,-0.048584,0.981567,508
23434923,9974,0.089478,-0.052612,0.977417,510
23444915,9992,0.089111,-0.055908,0.974243,512
23454921,10006,0.086304,-0.059570,0.975830,510
23464911,9990,0.083618,-0.065063,0.977295,513
23474903,9992,0.085815,-0.061646,0.973511,511
23484918,10015,0.082520,-0.060791,0.979126,513
23494922,10004,0.083252,-0.066528,0.982422,515
23504905,9983,0.076050,-0.081299,0.983398,515
23514930,10025,0.073486,-0.088379,0.983398,512
23524905,9975,0.068115,-0.086182,0.979614,510
23534909,10004,0.065918,-0.087769,0.975952,513
23544922,10013,0.067017,-0.094971,0.976196,513
23554925,10003,0.067261,-0.100708,0.976807,514
23568748,13823,0.065918,-0.092163,0.968628,513
23574911,6163,0.000000,0.000000,0.000000,512
23584915,10004,0.068726,-0.100830,0.975098,516
23594932,10017,0.068359,-0.102051,0.979858,510
23604909,9977,0.069824,-0.103882,0.984863,515
23614920,10011,0.068237,-0.105347,0.987305,509
23624930,10010,0.068237,-0.105347,0.984375,515
23634923,9993,0.072876,-0.109131,0.983521,510
23644905,9982,0.074707,-0.105103,0.988403,516
23656103,11198,0.073242,-0.100708,0.990967,512
23664907,8804,0.072876,-0.096924,0.989624,508
23693725,28818,0.070190,-0.090088,0.988403,512
23699193,5468,0.000000,0.000000,0.000000,509
23703321,4128,0.068970,-0.091919,0.987061,516
23708655,5334,0.000000,0.000000,0.000000,514
23714912,6257,0.069580,-0.094116,0.984863,513
23724926,10014,0.069458,-0.091309,0.981201,508
23734922,9996,0.069092,-0.091675,0.986084,515
23744928,10006,0.066040,-0.094238,0.989746,516
23754923,9995,0.066650,-0.101074,0.991455,515
23764922,9999,0.065552,-0.107910,0.989502,513
23774927,10005,0.063599,-0.112671,0.990967,516
23797877,22950,0.059082,-0.118774,0.987305,513
23803544,5667,0.059570,-0.123291,0.986816,511
23809076,5532,0.000000,0.000000,0.000000,512
23814930,5854,0.057007,-0.127319,0.981201,516
23824926,9996,0.055176,-0.129028,0.981689,508
23834927,10001,0.055908,-0.131958,0.979614,514
23844925,9998,0.053589,-0.134888,0.976685,514
23854908,9983,0.051270,-0.135254,0.976562,512
23864923,10015,0.045288,-0.135620,0.980347,513
23910055,45132,0.041504,-0.130859,0.979126,514
23915387,5332,0.040039,-0.135132,0.977905,512
23920909,5522,0.000000,0.000000,0.000000,514
23925176,4267,0.043701,-0.141479,0.978027,513
23930652,5476,0.044678,-0.148926,0.975952,515
23936007,5355,0.000000,0.000000,0.000000,513
23940174,4167,0.048340,-0.153809,0.974487,513
23945730,5556,0.000000,0.000000,0.000000,516
23954923,9193,0.049805,-0.159912,0.979492,512
23964927,10004,0.052734,-0.158569,0.984863,509
23974912,9985,0.049805,-0.153198,0.989136,516
23984902,9990,0.048218,-0.146606,0.988647,509
23994903,10001,0.048462,-0.145386,0.986694,516
24004917,10014,0.050049,-0.142700,0.981812,513
24014933,10016,0.047607,-0.150513,0.979492,512
24024916,9983,0.047119,-0.136841,0.973511,511
24034924,10008,0.045654,-0.129883,0.974609,512
24044925,10001,0.045898,-0.125366,0.972656,510
24054908,9983,0.044678,-0.125610,0.974854,509
24064906,9998,0.041626,-0.124512,0.983398,512
24074902,9996,0.041748,-0.127197,0.988892,509
24084917,10015,0.041138,-0.130371,0.992798,511
24094927,10010,0.042358,-0.130859,0.991577,511
24104920,9993,0.041016,-0.131226,0.989380,510
24114909,9989,0.040894,-0.135742,0.989136,511
24124911,10002,0.042480,-0.136963,0.984863,511
24134924,10013,0.042236,-0.132812,0.985229,509
24144922,9998,0.043213,-0.129028,0.985107,510
24154904,9982,0.040405,-0.128174,0.982788,510
24166916,12012,0.039307,-0.130615,0.971924,512
24174902,7986,0.000000,0.000000,0.000000,510
24184927,10025,0.039673,-0.139893,0.971558,512
24194927,10000,0.038818,-0.140259,0.974487,505
24204925,9998,0.037109,-0.140991,0.977417,510
24214908,9983,0.036987,-0.141602,0.980103,512
24224928,10020,0.037354,-0.143066,0.982300,509
24234926,9998,0.034302,-0.138916,0.984497,510
24244916,9990,0.036865,-0.143433,0.983276,503
24254911,9995,0.031738,-0.141846,0.982178,507
24264926,10015,0.033081,-0.144165,0.983032,504
24274910,9984,0.035278,-0.145264,0.981079,510
24284920,10010,0.036743,-0.147949,0.977051,511
24294914,9994,0.037964,-0.151855,0.974243,508
24304909,9995,0.038696,-0.150391,0.973755,512
24314909,10000,0.040039,-0.150513,0.974121,510
24324930,10021,0.041382,-0.152466,0.974121,511
24334903,9973,0.041992,-0.151978,0.975586,508
24344914,10011,0.044189,-0.154297,0.976929,511
24354925,10011,0.045410,-0.156250,0.979370,506
24364913,9988,0.044800,-0.155762,0.980591,510
24374929,10016,0.044312,-0.153076,0.978760,512
24389068,14139,0.046265,-0.148437,0.979492,506
24394926,5858,0.000000,0.000000,0.000000,512
24423641,28715,0.056885,-0.151001,0.981689,512
24429246,5605,0.046265,-0.148193,0.981689,505
24435044,5798,0.000000,0.000000,0.000000,511
24439490,4446,0.043457,-0.140503,0.978638,509
24445178,5688,0.000000,0.000000,0.000000,510
24454915,9737,0.045898,-0.135620,0.979126,511
24464915,10000,0.043457,-0.135620,0.977661,509
24475421,10506,0.043579,-0.137573,0.976562,508
24484915,9494,0.042603,-0.140015,0.976929,501
24494919,10004,0.042358,-0.141602,0.980957,504
24504904,9985,0.040405,-0.138794,0.982056,502
24514919,10015,0.039551,-0.142578,0.983521,509
24524920,10001,0.038574,-0.146118,0.981079,509
24534912,9992,0.037476,-0.147705,0.980103,507
24544920,10008,0.036499,-0.143799,0.978027,512
24554912,9992,0.034424,-0.134521,0.982910,510
24564917,10005,0.036621,-0.140625,0.981812,511
24611578,46661,0.036133,-0.145874,0.974365,507
24617082,5504,0.036987,-0.145630,0.973755,514
24622457,5375,0.000000,0.000000,0.000000,507
24627024,4567,0.036743,-0.144165,0.973877,516
24632374,5350,0.035767,-0.145508,0.975220,515
24637917,5543,0.000000,0.000000,0.000000,509
24642252,4335,0.035034,-0.147827,0.975830,510
24647622,5370,0.000000,0.000000,0.000000,512
24654903,7281,0.035034,-0.150024,0.977051,513
24664932,10029,0.040039,-0.142212,0.983521,511
24674915,9983,0.039673,-0.140137,0.986084,511
24684909,9994,0.036011,-0.128662,0.985229,510
24694911,10002,0.043091,-0.138062,0.985229,511
24704911,10000,0.040161,-0.142090,0.987427,509
24714913,10002,0.040161,-0.144531,0.987671,510
24724928,10015,0.042725,-0.137085,0.986084,510
24734921,9993,0.044189,-0.137573,0.982300,510
24744907,9986,0.044800,-0.140625,0.979980,509
24754920,10013,0.045532,-0.141968,0.977173,509
24764906,9986,0.046631,-0.143555,0.975220,511
24774909,10003,0.051880,-0.154541,0.977661,511
24784947,10038,0.051514,-0.157471,0.980957,507
24794927,9980,0.054321,-0.159546,0.980225,504
24804921,9994,0.055420,-0.162354,0.973267,512
24814950,10029,0.055908,-0.163086,0.970337,510
24824920,9970,0.052002,-0.160156,0.968262,512
24842678,17758,0.047852,-0.147827,0.978027,506
24848094,5416,0.000000,0.000000,0.000000,512
24854930,6836,0.062622,-0.156616,0.974365,511
24864906,9976,0.048218,-0.148071,0.969971,512
24874919,10013,0.044922,-0.140869,0.972656,508
24884914,9995,0.045654,-0.151123,0.985474,511
24894926,10012,0.043091,-0.160156,0.990845,511
24904912,9986,0.041992,-0.166260,1.000000,512
24914919,10007,0.041626,-0.170166,1.001587,512
24924930,10011,0.038086,-0.172974,1.000610,505
24934924,9994,0.038086,-0.174683,0.984375,508
24944903,9979,0.035400,-0.161377,0.970093,513
24954902,9999,0.034424,-0.156372,0.961792,508
24964916,10014,0.033447,-0.152710,0.953613,513
24980971,16055,0.030273,-0.146484,0.952271,512
24986309,5338,0.000000,0.000000,0.000000,512
24994915,8606,0.025879,-0.145874,0.961182,508
25004932,10017,0.024902,-0.151978,0.967651,509
25014905,9973,0.025635,-0.152100,0.974365,514
25024933,10028,0.024292,-0.149048,0.981934,512
25034927,9994,0.027710,-0.148193,0.989502,514
25044905,9978,0.029419,-0.184570,0.990356,515
25054923,10018,0.034302,-0.160889,0.985107,509
25064910,9987,0.039795,-0.162964,0.983765,513
25074905,9995,0.044434,-0.162109,0.984375,512
25084927,10022,0.052612,-0.163696,0.985352,512
25094930,10003,0.056274,-0.167969,0.989380,512
25104924,9994,0.062988,-0.175659,0.994019,512
25114908,9984,0.068604,-0.172729,0.993164,506
25124915,10007,0.070923,-0.171509,0.989136,507
25134921,10006,0.089722,-0.185791,0.986816,513
25144918,9997,0.081543,-0.176636,0.979614,514
25154921,10003,0.077148,-0.137817,0.966431,511
25164906,9985,0.081177,-0.130371,0.958862,512
25174906,10000,0.079712,-0.124878,0.955444,511
25184931,10025,0.077026,-0.119263,0.951294,512
25194902,9971,0.074707,-0.117432,0.953979,507
25222263,27361,0.058838,-0.140991,0.966309,512
25227513,5250,0.050537,-0.153442,0.969849,508
25232880,5367,0.045288,-0.165405,0.973755,511
25238267,5387,0.000000,0.000000,0.000000,510
25244946,6679,0.039063,-0.174561,0.980957,505
25254913,9967,0.032593,-0.182739,0.986572,512
25264922,10009,0.031860,-0.214600,0.991821,504
25274920,9998,0.034058,-0.228760,0.999146,502
25284919,9999,0.042114,-0.232056,1.000854,509
25294905,9986,0.046143,-0.220581,0.997925,510
25304927,10022,0.047241,-0.202271,0.988159,504
25314912,9985,0.045776,-0.180054,0.982910,511
25324930,10018,0.054810,-0.155396,0.967651,506
25347944,23014,0.051514,-0.125977,0.951416,505
25353330,5386,0.050049,-0.117188,0.953003,512
25358956,5626,0.051270,-0.120972,0.953369,512
25364914,5958,0.000000,0.000000,0.000000,510
25374906,9992,0.050049,-0.158081,0.958008,514
25384907,10001,0.050171,-0.165771,0.969238,507
25405754,20847,0.042969,-0.167603,0.985596,510
25410904,5150,0.045044,-0.178467,0.989990,512
25416409,5505,0.000000,0.000000,0.000000,510
25424907,8498,0.051147,-0.195679,0.984253,505
25434908,10001,0.048584,-0.203491,0.969360,507
25450555,15647,0.057007,-0.208496,0.937500,510
25456038,5483,0.055420,-0.204956,0.966187,510
25464929,8891,0.057739,-0.200439,0.965088,513
25474904,9975,0.062256,-0.190186,0.961182,510
25484915,10011,0.065308,-0.158447,0.955444,508
25494902,9987,0.064453,-0.139526,0.957886,505
25504925,10023,0.072632,-0.136719,0.964111,510
25514926,10001,0.077148,-0.135254,0.968506,511
25524904,9978,0.072266,-0.131714,0.970581,509
25534931,10027,0.070190,-0.125366,0.974976,507
25544921,9990,0.074341,-0.148560,0.991455,509
25554922,10001,0.071167,-0.156616,0.995117,506
25564906,9984,0.069458,-0.162598,0.991211,509
25574919,10013,0.072510,-0.173462,0.984253,510
25584916,9997,0.071655,-0.190063,0.968384,511
25594913,9997,0.071655,-0.215088,0.946289,511
25604911,9998,0.073608,-0.220093,0.943604,514
25614909,9998,0.072510,-0.225098,0.943604,514
25624925,10016,0.070190,-0.227905,0.944458,513
25634912,9987,0.066528,-0.228760,0.951904,517
25644918,10006,0.061401,-0.222534,0.961182,517
25654916,9998,0.051147,-0.200317,0.980103,516
25664952,10036,0.047119,-0.192261,0.984619,517
25674909,9957,0.048462,-0.186890,0.985107,517
25684904,9995,0.052490,-0.195557,0.985840,513
25699297,14393,0.052002,-0.178101,0.987061,512
25704909,5612,0.000000,0.000000,0.000000,512
25714910,10001,0.059326,-0.159058,0.980957,514
25724930,10020,0.063477,-0.160034,0.978027,511
25734927,9997,0.066162,-0.166992,0.975586,513
25744919,9992,0.068726,-0.170410,0.974731,514
25754907,9988,0.069458,-0.168945,0.973755,511
25764922,10015,0.065552,-0.160278,0.975708,509
25774925,10003,0.064453,-0.156128,0.977417,514
25784924,9999,0.064575,-0.158936,0.976562,511
25794909,9985,0.063477,-0.165283,0.973389,509
25804913,10004,0.062012,-0.167236,0.967651,512
25814925,10012,0.059448,-0.176514,0.962280,511
25824908,9983,0.059326,-0.182495,0.964600,510
25834930,10022,0.049561,-0.176392,0.961426,511
25844931,10001,0.058960,-0.189575,0.966553,508
25854908,9977,0.054687,-0.199219,0.967773,509
25864906,9998,0.051270,-0.205078,0.971558,512
25874909,10003,0.050537,-0.209473,0.972290,511
25884930,10021,0.046143,-0.207642,0.970215,505
25894928,9998,0.044189,-0.194092,0.972290,510
25904927,9999,0.045776,-0.186279,0.974609,502
25914908,9981,0.045166,-0.187988,0.973877,510
25924910,10002,0.044800,-0.192505,0.972900,509
25934908,9998,0.044678,-0.188110,0.971436,509
25944922,10014,0.050293,-0.180908,0.973267,512
25954910,9988,0.052124,-0.174683,0.972290,509
25964931,10021,0.053101,-0.170898,0.973633,509
25974917,9986,0.057983,-0.158081,0.972534,510
25984912,9995,0.059448,-0.166260,0.970825,504
25994915,10003,0.056763,-0.173950,0.973389,509
26004928,10013,0.055908,-0.178833,0.972900,503
26014904,9976,0.056274,-0.184570,0.973633,507
26024930,10026,0.054687,-0.187134,0.974609,512
26034902,9972,0.056519,-0.175537,0.982666,511
26044935,10033,0.057373,-0.170532,0.985352,508
26054926,9991,0.057983,-0.173584,0.989380,505
26064909,9983,0.059570,-0.176147,0.989502,516
26074908,9999,0.060669,-0.178833,0.988037,514
26084923,10015,0.060425,-0.182861,0.981201,514
26094905,9982,0.060913,-0.184570,0.980469,515
26104915,10010,0.062500,-0.188843,0.979004,513
26114922,10007,0.061035,-0.192139,0.977051,512
26124908,9986,0.060791,-0.195435,0.972046,517
26134928,10020,0.059448,-0.191895,0.965942,514
26144909,9981,0.060669,-0.190063,0.961304,511
26154909,10000,0.059692,-0.188232,0.958618,508
26164928,10019,0.057251,-0.186646,0.957520,514
26174931,10003,0.052734,-0.188232,0.955444,513
26184923,9992,0.050659,-0.191406,0.957031,515
26194928,10005,0.046509,-0.202393,0.963135,509
26204913,9985,0.041626,-0.191406,0.967041,515
26214930,10017,0.042725,-0.185303,0.971191,515
26224927,9997,0.041626,-0.184326,0.973999,508
26234920,9993,0.039917,-0.183594,0.978027,509
26244946,10026,0.038696,-0.184204,0.979736,510
26254926,9980,0.039917,-0.187988,0.980957,512
26264920,9994,0.042236,-0.181152,0.980835,512
26274912,9992,0.045532,-0.178467,0.981201,514
26284902,9990,0.048218,-0.178955,0.978271,514
26294924,10022,0.052490,-0.179199,0.976929,512
26304907,9983,0.059448,-0.181885,0.978149,514
26314917,10010,0.061401,-0.182007,0.983521,516
26324916,9999,0.062988,-0.174927,0.989014,515
26334919,10003,0.062744,-0.158203,0.988403,514
26344927,10008,0.062744,-0.140869,0.984985,516
26354915,9988,0.062866,-0.133423,0.973633,516
26364905,9990,0.061157,-0.140259,0.969727,518
26374918,10013,0.055908,-0.135010,0.967773,509
26384927,10009,0.059082,-0.132812,0.969727,516
26394915,9988,0.060425,-0.143188,0.975952,514
26404919,10004,0.057129,-0.155029,0.978394,516
26414916,9997,0.045654,-0.173096,0.983154,515
26424931,10015,0.050415,-0.175659,0.984253,510
26434902,9971,0.044800,-0.189819,0.988159,512
26444920,10018,0.046509,-0.201538,0.980225,512
26454920,10000,0.045044,-0.214966,0.984009,513
26464957,10037,0.047241,-0.212158,0.973511,513
26474913,9956,0.043579,-0.204712,0.969482,510
26484904,9991,0.045532,-0.203857,0.962280,512
26494913,10009,0.050293,-0.215698,0.963867,510
26504911,9998,0.042480,-0.196655,0.962891,508
26514924,10013,0.045166,-0.186646,0.964233,511
26524921,9997,0.043701,-0.184082,0.961548,511
26534903,9982,0.047119,-0.180054,0.962158,512
26544913,10010,0.048950,-0.176270,0.961304,512
26554905,9992,0.047974,-0.176880,0.967407,510
26564916,10011,0.052734,-0.176636,0.968384,512
26574914,9998,0.053467,-0.178345,0.970825,503
26584909,9995,0.056763,-0.177368,0.969849,509
26594930,10021,0.057617,-0.176270,0.971802,510
26604920,9990,0.060303,-0.177612,0.971558,506
26614927,10007,0.061401,-0.177490,0.966431,509
26624922,9995,0.060669,-0.177979,0.964966,508
26634917,9995,0.064087,-0.181519,0.963135,509
26644917,10000,0.065063,-0.182373,0.964844,510
26654922,10005,0.062622,-0.182617,0.965820,509
26664914,9992,0.062134,-0.182129,0.969116,507
26674923,10009,0.061768,-0.180420,0.968628,501
26684911,9988,0.056885,-0.174438,0.970337,509
26694919,10008,0.055176,-0.170288,0.973511,505
26704905,9986,0.051392,-0.169189,0.975098,508
26714913,10008,0.049805,-0.170654,0.978516,504
26724912,9999,0.047607,-0.174194,0.979004,505
26734906,9994,0.044922,-0.177002,0.979004,507
26744927,10021,0.043945,-0.186035,0.981934,508
26754909,9982,0.043579,-0.192383,0.986084,506
26764905,9996,0.044312,-0.195190,0.989258,507
26774927,10022,0.043823,-0.193481,0.990112,504
26784907,9980,0.043457,-0.191040,0.988525,510
26794909,10002,0.045898,-0.180420,0.970825,511
26804920,10011,0.044189,-0.180054,0.974487,511
26814918,9998,0.048340,-0.174316,0.975098,508
26824927,10009,0.045288,-0.166992,0.973511,507
26834917,9990,0.038818,-0.167725,0.980347,515
26844922,10005,0.037231,-0.165649,0.978760,516
26854908,9986,0.032471,-0.168945,0.984253,511
26864920,10012,0.018311,-0.162964,0.985107,516
26874942,10022,0.020142,-0.138916,0.980835,514
26884929,9987,0.035278,-0.149536,0.973145,517
26894927,9998,0.039551,-0.174316,0.966187,514
26904921,9994,0.054199,-0.191284,0.950195,518
26914906,9985,0.063232,-0.201294,0.943604,518
26924931,10025,0.074707,-0.213135,0.946045,519
26934928,9997,0.085327,-0.224121,0.953613,520
26944923,9995,0.093262,-0.230103,0.957520,518
26954925,10002,0.099121,-0.232666,0.966431,519
26964917,9992,0.102417,-0.231445,0.972534,518
26974916,9999,0.096069,-0.218872,0.971802,518
26984909,9993,0.088013,-0.201904,0.973633,516
26994913,10004,0.100952,-0.216675,0.979492,518
27004907,9994,0.087280,-0.214111,0.979248,510
27014905,9998,0.078735,-0.193115,0.982056,514
27024922,10017,0.075317,-0.185425,0.977295,514
27034923,10001,0.070923,-0.183716,0.976074,511
27044922,9999,0.062378,-0.182251,0.975708,508
27054920,9998,0.054687,-0.180786,0.975586,511
27064930,10010,0.046021,-0.186279,0.984619,512
27074914,9984,0.034058,-0.189087,0.988892,513
27084912,9998,0.031128,-0.193604,0.990601,508
27094903,9991,0.030273,-0.196045,0.992187,503
27104911,10008,0.031738,-0.197021,0.990967,512
27114910,9999,0.035278,-0.193604,0.990234,507
27124903,9993,0.044189,-0.170776,0.976807,511
27134919,10016,0.048462,-0.169800,0.965698,506
27144912,9993,0.051514,-0.172607,0.959473,514
27154927,10015,0.054199,-0.174316,0.954102,510
27164925,9998,0.054932,-0.173706,0.953857,512
27174905,9980,0.057983,-0.180420,0.957642,517
27184914,10009,0.060547,-0.194092,0.960205,516
27194926,10012,0.060059,-0.199585,0.959595,512
27204932,10006,0.061157,-0.203491,0.960327,512
27214919,9987,0.062866,-0.206421,0.958862,515
27224914,9995,0.065674,-0.209351,0.957397,514
27234923,10009,0.074097,-0.215576,0.957153,508
27244911,9988,0.071899,-0.216187,0.957520,515
27254912,10001,0.068115,-0.212402,0.960693,514
27264909,9997,0.065796,-0.209473,0.964844,514
27274918,10009,0.067993,-0.207397,0.966919,511
27284913,9995,0.064087,-0.206421,0.969849,511
27294904,9991,0.074829,-0.216309,0.969971,512
27304923,10019,0.068237,-0.211548,0.964355,509
27314924,10001,0.062988,-0.201660,0.961914,512
27324928,10004,0.066895,-0.196533,0.961548,512
27334919,9991,0.068848,-0.196167,0.961060,512
27344921,10002,0.063843,-0.197144,0.953491,512
27354923,10002,0.062622,-0.196167,0.948364,511
27364930,10007,0.061035,-0.202759,0.952881,509
27374913,9983,0.059448,-0.198608,0.953247,510
27384911,9998,0.054810,-0.205078,0.959351,513
27394902,9991,0.051514,-0.216187,0.969849,510
27404924,10022,0.050171,-0.214600,0.974854,505
27414912,9988,0.050659,-0.217285,0.976685,512
27425864,10952,0.050049,-0.217285,0.981079,511
27434907,9043,0.050171,-0.217041,0.984741,511
27444915,10008,0.058716,-0.218994,0.985596,513
27454908,9993,0.059326,-0.205566,0.989502,514
27464929,10021,0.064697,-0.200317,0.992554,513
27474914,9985,0.062866,-0.196777,0.990112,515
27484909,9995,0.062134,-0.197632,0.993774,514
27494903,9994,0.062866,-0.189575,0.996704,516
27504931,10028,0.066162,-0.178467,0.983154,515
27514918,9987,0.068726,-0.185791,0.963013,517
27526906,11988,0.065674,-0.193115,0.964600,519
27534913,8007,0.076050,-0.195068,0.956543,516
27544903,9990,0.071411,-0.195190,0.960449,516
27554908,10005,0.077759,-0.213013,0.958618,519
27564929,10021,0.080078,-0.230591,0.960205,520
27574903,9974,0.078369,-0.240479,0.959961,521
27584931,10028,0.072266,-0.240479,0.964600,519
27594914,9983,0.068359,-0.240112,0.962036,517
27604917,10003,0.064453,-0.239868,0.958130,514
27614917,10000,0.067505,-0.239380,0.951538,517
27624904,9987,0.069702,-0.244263,0.949097,517
27634958,10054,0.059448,-0.223877,0.945435,514
27644916,9958,0.061401,-0.207642,0.944824,519
27654924,10008,0.062256,-0.198242,0.945190,515
27664916,9992,0.060181,-0.194580,0.953125,515
27674915,9999,0.058960,-0.198486,0.956665,515
27684903,9988,0.059326,-0.203491,0.958618,514
27694902,9999,0.059326,-0.206177,0.962158,514
27704921,10019,0.058594,-0.210937,0.964722,511
27714927,10006,0.057495,-0.213623,0.965698,510
27724909,9982,0.059692,-0.207886,0.963989,506
27734927,10018,0.058228,-0.216064,0.965454,507
27744911,9984,0.060059,-0.223877,0.965820,507
27754921,10010,0.059814,-0.225220,0.963623,506
27764918,9997,0.059204,-0.223999,0.963623,508
27774903,9985,0.057495,-0.222900,0.965332,510
27784917,10014,0.054810,-0.220459,0.965454,509
27794947,10030,0.053101,-0.219727,0.969360,511
27804913,9966,0.054810,-0.217651,0.970825,508
27814957,10044,0.054443,-0.216553,0.974243,508
27824930,9973,0.054565,-0.215210,0.974243,509
27834925,9995,0.058350,-0.218140,0.973022,509
27844905,9980,0.058228,-0.218994,0.968994,510
27854925,10020,0.062256,-0.224365,0.963745,509
27864914,9989,0.064941,-0.228516,0.957520,511
27874923,10009,0.064331,-0.228149,0.954468,503
27884921,9998,0.068481,-0.230347,0.952881,510
27894917,9996,0.068481,-0.230347,0.957764,509
27904928,10011,0.066040,-0.233154,0.964355,510
27914905,9977,0.066650,-0.228271,0.964111,502
27924905,10000,0.064209,-0.223022,0.968750,509
27934924,10019,0.063110,-0.219116,0.972900,506
27944904,9980,0.062500,-0.216553,0.970703,503
27954902,9998,0.061035,-0.213013,0.971313,509
27964926,10024,0.061035,-0.212891,0.971069,510
27974941,10015,0.062622,-0.213257,0.967163,511
27984928,9987,0.060181,-0.215088,0.969727,505
27994933,10005,0.061279,-0.218018,0.970215,511
28004914,9981,0.062500,-0.216187,0.967773,505
28014921,10007,0.061523,-0.218140,0.971802,511
28024915,9994,0.061890,-0.218140,0.972534,508
28034928,10013,0.060669,-0.221924,0.977051,505
28044913,9985,0.060669,-0.220947,0.975708,512
28054927,10014,0.056274,-0.221558,0.974609,511
28064929,10002,0.062988,-0.231567,0.973511,506
28074929,10000,0.050293,-0.229004,0.972290,510
28084908,9979,0.045288,-0.224609,0.971924,510
28094927,10019,0.043945,-0.229126,0.975220,514
28104909,9982,0.042236,-0.235352,0.973267,515
28114928,10019,0.040039,-0.232910,0.969360,511
28124907,9979,0.043945,-0.233887,0.964478,516
28134916,10009,0.044556,-0.231812,0.958862,516
28144920,10004,0.047119,-0.228760,0.954834,516
28154910,9990,0.051147,-0.223145,0.948730,510
28164933,10023,0.051147,-0.225586,0.946899,510
28174931,9998,0.051025,-0.225708,0.947510,513
28184921,9990,0.050903,-0.227295,0.951782,514
28194929,10008,0.050171,-0.229736,0.954102,514
28204915,9986,0.049438,-0.229370,0.955444,514
28214915,10000,0.048950,-0.231079,0.956421,511
28224909,9994,0.041382,-0.218384,0.954590,513
28234905,9996,0.050781,-0.220215,0.955078,511
28244912,10007,0.051147,-0.227173,0.955688,505
28254903,9991,0.044800,-0.224609,0.959106,510
28264909,10006,0.058594,-0.230347,0.959229,506
28274931,10022,0.046021,-0.223511,0.978149,508
28284919,9988,0.073486,-0.213745,0.967651,509
28294915,9996,0.075073,-0.224854,0.959106,500
28304931,10016,0.071045,-0.239380,0.958984,509
28314918,9987,0.079956,-0.240723,0.964111,506
28324924,10006,0.070068,-0.228149,0.969849,508
28334919,9995,0.061279,-0.220825,0.979736,506
28344914,9995,0.070557,-0.229004,0.978882,507
28354913,9999,0.069946,-0.231812,0.972412,501
28364928,10015,0.062500,-0.216553,0.963257,508
28374946,10018,0.052002,-0.217529,0.974609,502
28384925,9979,0.048096,-0.224487,0.974609,508
28394920,9995,0.036621,-0.257446,0.977539,510
28404918,9998,0.040894,-0.259399,0.973389,509
28414928,10010,0.025513,-0.251221,0.967773,510
28424913,9985,0.036987,-0.221802,0.966064,509
28434908,9995,0.033569,-0.237549,0.964233,511
28444916,10008,0.038696,-0.234741,0.964844,511
28454920,10004,0.035034,-0.233643,0.960937,511
28464926,10006,0.046631,-0.234131,0.961426,511
28474903,9977,0.046631,-0.227173,0.958374,510
28484925,10022,0.053589,-0.230835,0.958374,513
28494906,9981,0.055908,-0.237915,0.954468,512
28504908,10002,0.057861,-0.236084,0.954956,512
28514927,10019,0.053589,-0.217041,0.953125,506
28524909,9982,0.064819,-0.230469,0.958862,512
28534910,10001,0.090454,-0.242798,0.962280,511
28544903,9993,0.063354,-0.240845,0.960449,510
28554917,10014,0.061646,-0.241333,0.960571,508
28564917,10000,0.061157,-0.242676,0.958740,512
28574928,10011,0.056641,-0.239136,0.955444,512
28584908,9980,0.056641,-0.233398,0.955566,507
28594909,10001,0.051147,-0.236816,0.961182,510
28604928,10019,0.051270,-0.231079,0.958496,512
28614931,10003,0.048096,-0.228027,0.957397,511
28624911,9980,0.044678,-0.228394,0.958008,510
28634904,9993,0.041870,-0.230103,0.958130,505
28644925,10021,0.039307,-0.232544,0.955688,510
28654924,9999,0.033081,-0.230713,0.955933,503
28664929,10005,0.028442,-0.229492,0.957275,506
28674902,9973,0.033813,-0.235352,0.960083,505
28684928,10026,0.032837,-0.237671,0.962646,510
28694911,9983,0.032349,-0.241943,0.967529,505
28704929,10018,0.035889,-0.246826,0.972656,510
28714908,9979,0.039063,-0.243652,0.973755,511
28724903,9995,0.040283,-0.244507,0.976196,514
28734920,10017,0.041504,-0.246094,0.975342,511
28744952,10032,0.042847,-0.241089,0.971313,511
28754924,9972,0.043091,-0.234619,0.961670,513
28764918,9994,0.044556,-0.232178,0.958374,514
28774920,10002,0.046387,-0.230225,0.956543,522
28784906,9986,0.045044,-0.232178,0.955566,509
28794919,10013,0.045654,-0.236084,0.958496,515
28804911,9992,0.048584,-0.240601,0.961914,517
28814909,9998,0.045532,-0.238281,0.963379,515
28824916,10007,0.045288,-0.237915,0.963745,518
28834905,9989,0.042847,-0.238281,0.963013,515
28844929,10024,0.041870,-0.238403,0.962891,513
28854912,9983,0.041504,-0.235107,0.962524,514
28864928,10016,0.040771,-0.234497,0.962158,514
28874918,9990,0.041992,-0.235962,0.962524,514
28884924,10006,0.042358,-0.236084,0.962524,512
28894907,9983,0.041748,-0.234619,0.960815,509
28904911,10004,0.040283,-0.232910,0.960815,504
28914939,10028,0.038574,-0.227295,0.961304,510
28924930,9991,0.036743,-0.224854,0.959839,507
28934933,10003,0.035278,-0.225342,0.962158,511
28944924,9991,0.035645,-0.226685,0.961548,509
28954929,10005,0.036255,-0.228882,0.963989,511
28964904,9975,0.037476,-0.230835,0.963379,512
28974917,10013,0.041382,-0.248169,0.971558,507
28984925,10008,0.042236,-0.251953,0.975098,506
28994912,9987,0.044678,-0.255981,0.979858,507
29004904,9992,0.045776,-0.256592,0.976318,505
29014914,10010,0.046753,-0.252563,0.973755,503
29024918,10004,0.043213,-0.235962,0.965942,506
29034907,9989,0.043335,-0.232910,0.966553,513
29044921,10014,0.042969,-0.231079,0.969238,511
29054907,9986,0.042969,-0.230713,0.972046,511
29064928,10021,0.052979,-0.239258,0.974976,512
29074906,9978,0.043701,-0.234741,0.977295,511
29084906,10000,0.043091,-0.221802,0.978516,513
29094903,9997,0.041504,-0.222778,0.977417,505
29104936,10033,0.038574,-0.219971,0.986572,513
29114905,9969,0.044678,-0.213867,0.985840,512
29124949,10044,0.043091,-0.216675,0.975830,513
29134906,9957,0.036743,-0.222778,0.979614,508
29144910,10004,0.042480,-0.210815,0.985107,507
29154915,10005,0.040527,-0.210693,0.984863,513
29164925,10010,0.042114,-0.211792,0.974976,513
29174902,9977,0.039429,-0.216187,0.963745,512
29184930,10028,0.038086,-0.224609,0.955444,511
29194907,9977,0.037354,-0.245239,0.947998,510
29204904,9997,0.039307,-0.247314,0.947388,513
29214904,10000,0.039673,-0.241089,0.946167,515
29224932,10028,0.036743,-0.238037,0.947510,515
29234924,9992,0.034302,-0.240234,0.951416,516
29244913,9989,0.030640,-0.249878,0.961670,510
29254921,10008,0.030151,-0.249023,0.965942,513
29264924,10003,0.027954,-0.245605,0.963135,514
29274909,9985,0.026245,-0.247681,0.962524,512
29284924,10015,0.026978,-0.247559,0.967651,509
29294915,9991,0.026001,-0.245117,0.973999,511
29304957,10042,0.026367,-0.227051,0.975830,509
29314929,9972,0.028198,-0.230713,0.974243,505
29324902,9973,0.031738,-0.231201,0.973877,509
29334923,10021,0.035278,-0.222168,0.965454,507
29344931,10008,0.036133,-0.216797,0.962769,508
29354909,9978,0.043335,-0.218140,0.943237,508
29364916,10007,0.044434,-0.215454,0.938843,503
29374929,10013,0.047974,-0.217773,0.944092,507
29384921,9992,0.049438,-0.225708,0.950073,507
29394927,10006,0.049438,-0.226196,0.951050,508
29404923,9996,0.045288,-0.219238,0.951416,505
29414918,9995,0.050781,-0.231934,0.953125,502
29424930,10012,0.048950,-0.239868,0.956665,505
29434917,9987,0.047607,-0.243286,0.961060,501
29444925,10008,0.049561,-0.238525,0.967407,510
29454912,9987,0.049194,-0.237061,0.972290,510
29464903,9991,0.049561,-0.221191,0.973511,510
29474921,10018,0.053711,-0.218872,0.969482,510
29484917,9996,0.055176,-0.218872,0.966919,512
29494927,10010,0.056274,-0.214844,0.966064,512
29504925,9998,0.058350,-0.211792,0.964600,509
29514916,9991,0.063354,-0.210083,0.963257,512
29524921,10005,0.062256,-0.210449,0.965454,513
29534921,10000,0.056763,-0.210449,0.966187,513
29544918,9997,0.054565,-0.216553,0.970093,510
29554927,10009,0.045898,-0.215576,0.972412,513
29564921,9994,0.043701,-0.216553,0.976074,512
29574923,10002,0.035278,-0.215454,0.973999,509
29584920,9997,0.035889,-0.215088,0.972656,507
29594908,9988,0.035034,-0.217285,0.968994,508
29604914,10006,0.034058,-0.217896,0.968628,505
29614909,9995,0.031738,-0.216431,0.969849,512
29624920,10011,0.040649,-0.200195,0.969604,512
29634922,10002,0.042603,-0.211304,0.969849,511
29644919,9997,0.048462,-0.216064,0.971191,509
29654914,9995,0.057007,-0.218994,0.967773,513
29664941,10027,0.062012,-0.223633,0.966675,512
29674921,9980,0.068970,-0.231323,0.960693,510
29684910,9989,0.073853,-0.242798,0.958252,511
29694926,10016,0.074219,-0.240234,0.957764,508
29704911,9985,0.072021,-0.237305,0.956055,510
29714910,9999,0.070312,-0.238770,0.954834,509
29724926,10016,0.062744,-0.238647,0.955322,509
29734920,9994,0.056152,-0.216187,0.964478,506
29744930,10010,0.055908,-0.208984,0.971191,509
29754920,9990,0.051758,-0.213989,0.975952,509
29764913,9993,0.051147,-0.210449,0.974487,503
29774912,9999,0.039429,-0.186890,0.970459,512
29784917,10005,0.050171,-0.197632,0.977051,508
29794930,10013,0.051025,-0.205322,0.967285,514
29804910,9980,0.049927,-0.211304,0.960815,516
29814924,10014,0.052246,-0.221680,0.958862,518
29824931,10007,0.057007,-0.230225,0.958740,520
29834933,10002,0.063110,-0.236328,0.958862,521
29844903,9970,0.066650,-0.245850,0.958130,521
29854930,10027,0.059326,-0.241333,0.959106,522
29864915,9985,0.056885,-0.228638,0.959839,523
29874931,10016,0.057739,-0.223389,0.960449,522
29884923,9992,0.067993,-0.232666,0.962524,520
29894922,9999,0.053101,-0.208130,0.957764,519
29904915,9993,0.051392,-0.198486,0.955444,520
29914926,10011,0.049561,-0.197021,0.951538,514
29924904,9978,0.046631,-0.195679,0.951538,518
29934921,10017,0.040283,-0.195068,0.957153,516
29944923,10002,0.037231,-0.195923,0.962646,518
29954921,9998,0.034912,-0.212646,0.977417,515
29964920,9999,0.034546,-0.216431,0.980591,512
29974923,10003,0.033447,-0.216187,0.988770,516
29984917,9994,0.037476,-0.214233,0.990356,516
29994939,10022,0.038940,-0.211426,0.985962,517
30004915,9976,0.045654,-0.210937,0.971069,516
30014903,9988,0.045898,-0.212646,0.963013,512
30024923,10020,0.048462,-0.211914,0.960327,516
30034917,9994,0.050537,-0.208862,0.956055,513
30044932,10015,0.050659,-0.208130,0.957886,516
30054932,10000,0.052612,-0.208130,0.967163,511
30064917,9985,0.052490,-0.210083,0.968262,512
30074919,10002,0.049561,-0.212891,0.971558,514
30094633,19714,0.051880,-0.216431,0.968872,516
30100162,5529,0.043945,-0.216064,0.963501,515
30105367,5205,0.000000,0.000000,0.000000,512
30114912,9545,0.036621,-0.199829,0.962769,514
30124926,10014,0.031372,-0.202637,0.967163,512
30134909,9983,0.027344,-0.206543,0.966797,511
30144905,9996,0.022705,-0.211426,0.968140,513
30154911,10006,0.021851,-0.210693,0.969116,504
30164921,10010,0.021973,-0.206665,0.977905,511
30174908,9987,0.025635,-0.206299,0.981934,511
30184946,10038,0.027832,-0.205200,0.983398,511
30194926,9980,0.031738,-0.199829,0.983765,505
30209877,14951,0.033447,-0.190796,0.974243,512
30215334,5457,0.000000,0.000000,0.000000,513
30224915,9581,0.039673,-0.196533,0.964600,514
30234904,9989,0.042725,-0.196655,0.958618,509
30244904,10000,0.042847,-0.197144,0.954468,516
30254908,10004,0.043213,-0.198120,0.953735,516
30264925,10017,0.045532,-0.203369,0.953369,518
30274919,9994,0.044556,-0.213623,0.961304,518
30284912,9993,0.046509,-0.221680,0.969482,518
30294926,10014,0.047119,-0.230225,0.974487,519
30304903,9977,0.045898,-0.234985,0.978882,514
30314915,10012,0.049316,-0.241089,0.981323,515
30324921,10006,0.049194,-0.239502,0.980835,510
30334919,9998,0.047119,-0.213501,0.974609,514
30344927,10008,0.059448,-0.221802,0.973633,515
30354930,10003,0.052246,-0.217407,0.969238,512
30364927,9997,0.047485,-0.203735,0.965454,511
30374932,10005,0.044922,-0.197144,0.965332,511
30384925,9993,0.037964,-0.191772,0.973145,513
30394912,9987,0.036255,-0.187988,0.979004,512
30404902,9990,0.035156,-0.188232,0.981812,510
30414913,10011,0.035522,-0.192505,0.984253,508
30424915,10002,0.034546,-0.194946,0.982910,511
30434923,10008,0.033936,-0.199219,0.979614,509
30444909,9986,0.035645,-0.202759,0.976074,510
30454921,10012,0.034546,-0.207031,0.971069,510
30464917,9996,0.034546,-0.213501,0.965454,510
30474925,10008,0.035156,-0.218506,0.962524,511
30484907,9982,0.031860,-0.223755,0.960327,509
30494909,10002,0.030029,-0.224976,0.965210,511
30504924,10015,0.032227,-0.231079,0.964600,505
30514906,9982,0.025269,-0.224609,0.964600,510
30524902,9996,0.027100,-0.219238,0.963745,509
30534905,10003,0.026855,-0.217041,0.963989,509
30544929,10024,0.025513,-0.212158,0.968994,508
30554924,9995,0.028687,-0.209106,0.967407,510
30564904,9980,0.029297,-0.209106,0.966064,512
30574919,10015,0.031006,-0.208984,0.966431,514
30584909,9990,0.033936,-0.206543,0.973877,514
30594926,10017,0.038086,-0.203979,0.973022,507
30604932,10006,0.043091,-0.207886,0.978882,513
30614913,9981,0.047241,-0.207642,0.977905,510
30624926,10013,0.048828,-0.210449,0.977417,513
30634912,9986,0.052979,-0.210937,0.974487,516
30644903,9991,0.056274,-0.207642,0.968140,512
30654929,10026,0.066895,-0.208740,0.954834,514
30664913,9984,0.057007,-0.203735,0.953247,513
30674918,10005,0.056152,-0.201294,0.954834,515
30684912,9994,0.057617,-0.205566,0.960205,514
30694906,9994,0.054443,-0.208252,0.964600,511
30704909,10003,0.052368,-0.210571,0.969971,514
30714919,10010,0.044678,-0.208130,0.980835,505
30724950,10031,0.040283,-0.204834,0.986938,506
30734924,9974,0.037354,-0.203857,0.987549,511
30744928,10004,0.034790,-0.205078,0.987061,503
30754905,9977,0.034912,-0.204834,0.980835,512
30764926,10021,0.034058,-0.198364,0.960571,512
30774902,9976,0.032349,-0.194336,0.959229,510
30784926,10024,0.034668,-0.193604,0.957886,505
30794915,9989,0.037842,-0.195679,0.957642,513
30804903,9988,0.040405,-0.199829,0.963623,511
30814928,10025,0.039795,-0.203125,0.971924,513
30824926,9998,0.034302,-0.190552,0.982300,512
30834903,9977,0.046631,-0.192261,0.982544,510
30844907,10004,0.047729,-0.203369,0.977905,511
30854925,10018,0.043823,-0.206421,0.973022,513
30864928,10003,0.044312,-0.202393,0.969360,513
30874907,9979,0.050171,-0.206177,0.964478,512
30884935,10028,0.053223,-0.211060,0.965576,513
30894903,9968,0.057251,-0.216309,0.965698,513
30904936,10033,0.060669,-0.216309,0.968506,508
30914919,9983,0.062744,-0.213867,0.970581,509
30924929,10010,0.066406,-0.214111,0.966553,516
30934927,9998,0.057373,-0.205933,0.964966,515
30944928,10001,0.060669,-0.203247,0.967896,514
30954912,9984,0.055420,-0.202637,0.973999,514
30964903,9991,0.043823,-0.180664,0.980469,515
30974906,10003,0.047607,-0.167114,0.988403,512
30984927,10021,0.049683,-0.187134,0.996948,515
30994923,9996,0.048096,-0.186401,0.993774,515
31004917,9994,0.051392,-0.187012,0.983154,514
31014921,10004,0.059937,-0.207397,0.980469,518
31024916,9995,0.062012,-0.206421,0.964844,510
31034931,10015,0.065430,-0.199951,0.941650,515
31044929,9998,0.066528,-0.199829,0.934448,515
31054924,9995,0.063843,-0.196899,0.936523,515
31064923,9999,0.061279,-0.188965,0.936279,514
31074914,9991,0.057007,-0.180908,0.942627,511
31084938,10024,0.052490,-0.179077,0.955566,513
31094910,9972,0.044434,-0.178345,0.978394,512
31104929,10019,0.041016,-0.180908,0.989868,510
31114902,9973,0.041626,-0.187256,0.993774,508
31124918,10016,0.041260,-0.192749,0.993164,509
31134926,10008,0.037964,-0.197510,0.989990,499
31144902,9976,0.044800,-0.202271,0.975586,502
31154906,10004,0.049438,-0.206787,0.969604,505
31164910,10004,0.049316,-0.212036,0.965210,500
31174908,9998,0.048096,-0.213379,0.960571,503
31184917,10009,0.048706,-0.210327,0.958984,505
31194905,9988,0.050049,-0.205811,0.958130,508
31204904,9999,0.047363,-0.215576,0.967529,508
31214911,10007,0.046265,-0.209351,0.967041,504
31224911,10000,0.048828,-0.202759,0.965332,506
31234928,10017,0.053833,-0.199585,0.959351,507
31244907,9979,0.054565,-0.187012,0.950806,512
31254915,10008,0.065186,-0.186646,0.930908,506
31264902,9987,0.062012,-0.192871,0.938110,512
31274908,10006,0.063110,-0.194824,0.943848,514
31284926,10018,0.061768,-0.191895,0.955200,512
31294915,9989,0.062134,-0.187622,0.969238,510
31304931,10016,0.066528,-0.187134,0.995605,511
31314930,9999,0.055786,-0.183838,1.003540,511
31324920,9990,0.053223,-0.182251,1.007446,510
31334911,9991,0.052979,-0.183350,1.004883,504
31344904,9993,0.054443,-0.185913,0.997681,505
31354927,10023,0.053589,-0.181763,0.988159,509
31364921,9994,0.056152,-0.168823,0.972290,508
31374926,10005,0.063232,-0.170898,0.966553,509
31384920,9994,0.064209,-0.177734,0.963013,509
31394924,10004,0.064209,-0.183472,0.963135,510
31404920,9996,0.063721,-0.186035,0.966187,511
31414918,9998,0.065308,-0.187744,0.973633,510
31424932,10014,0.062134,-0.189087,0.969849,509
31434917,9985,0.061401,-0.187500,0.968018,512
31444932,10015,0.058716,-0.188354,0.963867,510
31454930,9998,0.056396,-0.190430,0.961792,512
31464923,9993,0.055176,-0.192505,0.966064,510
31474903,9980,0.054199,-0.195190,0.968872,514
31484912,10009,0.050903,-0.193970,0.966431,511
31494910,9998,0.047729,-0.192383,0.961548,513
31504914,10004,0.045532,-0.186646,0.954224,508
31514929,10015,0.041260,-0.173462,0.944458,511
31524909,9980,0.041504,-0.183228,0.946289,509
31534910,10001,0.040894,-0.186768,0.955200,516
31544907,9997,0.042114,-0.187744,0.961182,515
31554923,10016,0.037842,-0.188354,0.979736,516
31564916,9993,0.040649,-0.199707,0.999878,510
31574931,10015,0.046387,-0.209106,1.009399,513
31584909,9978,0.055786,-0.216553,1.009766,515
31594922,10013,0.055908,-0.208374,1.002563,516
31604923,10001,0.059326,-0.195801,0.997437,512
31614941,10018,0.064453,-0.186523,0.992310,515
31624908,9967,0.077515,-0.196167,0.986084,511
31634903,9995,0.063721,-0.184082,0.975586,516
31644910,10007,0.063843,-0.174805,0.973389,512
31654931,10021,0.063599,-0.173462,0.967896,516
31664914,9983,0.061279,-0.174194,0.966064,512
31674917,10003,0.056030,-0.167480,0.967651,517
31684915,9998,0.055786,-0.125366,0.968262,517
31694915,10000,0.049805,-0.160278,0.968750,515
31704915,10000,0.046509,-0.175293,0.966309,510
31714908,9993,0.041504,-0.184937,0.966553,516
31724913,10005,0.042114,-0.200562,0.974976,512
31734913,10000,0.042725,-0.218262,0.986572,508
31744912,9999,0.037231,-0.242554,1.020020,507
31754908,9996,0.025146,-0.238647,1.027710,497
31764929,10021,0.027710,-0.228882,1.027710,492
31774932,10003,0.031128,-0.224243,1.023438,476
31784910,9978,0.036377,-0.222534,1.008301,469
31794902,9992,0.042847,-0.204102,0.963135,470
31804911,10009,0.046875,-0.189941,0.939453,466
31814921,10010,0.050049,-0.179199,0.925903,470
31824905,9984,0.051514,-0.169556,0.920288,471
31834920,10015,0.051025,-0.160156,0.925903,475
31844909,9989,0.052124,-0.156128,0.936401,483
31854907,9998,0.052124,-0.155396,0.959961,486
31864930,10023,0.052856,-0.158813,0.968994,490
31874908,9978,0.055054,-0.167480,0.978149,505
31884917,10009,0.056152,-0.172363,0.983643,511
31894917,10000,0.055786,-0.172729,0.980225,521
31904912,9995,0.059082,-0.183716,0.965942,526
31914920,10008,0.064941,-0.183350,0.958862,531
31924903,9983,0.065063,-0.181885,0.956909,536
31934903,10000,0.069458,-0.184204,0.954346,541
31944916,10013,0.070190,-0.185913,0.956177,541
31954915,9999,0.070312,-0.191406,0.957886,543
31964925,10010,0.061646,-0.203125,0.968628,537
31974925,10000,0.064819,-0.208984,0.974243,541
31984905,9980,0.061401,-0.208496,0.972168,539
31994920,10015,0.057617,-0.210327,0.979736,529
32004908,9988,0.056885,-0.209229,0.978149,532
32014921,10013,0.054687,-0.203735,0.972778,532
32024910,9989,0.057251,-0.198975,0.965698,523
32034917,10007,0.060425,-0.197388,0.962646,518
32044909,9992,0.063599,-0.190674,0.960449,521
32054915,10006,0.067017,-0.180542,0.953369,518
32064923,10008,0.066772,-0.173218,0.951904,516
32074911,9988,0.070679,-0.185913,0.950195,515
32084911,10000,0.071533,-0.190186,0.952271,514
32094907,9996,0.073853,-0.192017,0.957031,511
32104917,10010,0.070435,-0.191650,0.964355,505
32114925,10008,0.066895,-0.195923,0.974609,506
32124927,10002,0.071655,-0.199463,0.988159,507
32134927,10000,0.068848,-0.200195,0.985840,510
32144916,9989,0.066895,-0.196899,0.983887,508
32154928,10012,0.072632,-0.194824,0.975464,508
32164913,9985,0.073975,-0.193726,0.971436,502
32174916,10003,0.077026,-0.199951,0.955444,507
32184927,10011,0.076904,-0.199707,0.954590,510
32194930,10003,0.075684,-0.193359,0.954834,507
32204912,9982,0.082642,-0.196899,0.960327,509
32214919,10007,0.085815,-0.202637,0.963501,509
32224922,10003,0.085327,-0.205078,0.968994,511
32234929,10007,0.089600,-0.197754,0.977417,509
32244907,9978,0.090942,-0.192627,0.980469,510
32254920,10013,0.092163,-0.193237,0.979858,511
32264931,10011,0.089355,-0.192017,0.977173,512
32274924,9993,0.088501,-0.189331,0.972900,507
32284918,9994,0.086060,-0.183350,0.968750,507
32294918,10000,0.086426,-0.182739,0.964600,511
32304914,9996,0.085815,-0.181641,0.961914,511
32314928,10014,0.085449,-0.184326,0.958374,508
32324904,9976,0.085205,-0.185913,0.960815,511
32334909,10005,0.089600,-0.188477,0.974609,508
32344913,10004,0.083740,-0.199463,0.992676,501
32354905,9992,0.080811,-0.200439,0.994751,492
32364904,9999,0.074463,-0.199951,0.994751,485
32374915,10011,0.074585,-0.203613,0.986328,478
32384921,10006,0.072876,-0.205688,0.973145,473
32394930,10009,0.069092,-0.203735,0.937988,467
32404909,9979,0.067139,-0.202637,0.925293,474
32414914,10005,0.065186,-0.199951,0.916504,477
32424929,10015,0.068481,-0.200806,0.918457,482
32434927,9998,0.072266,-0.211060,0.927856,482
32444902,9975,0.073364,-0.217529,0.950195,497
32454929,10027,0.073242,-0.206787,0.958496,499
32464926,9997,0.079224,-0.219971,0.969849,508
32474904,9978,0.078491,-0.231323,0.975220,512
32484918,10014,0.076782,-0.231201,0.975952,533
32494940,10022,0.075195,-0.228394,0.977295,532
32504941,10001,0.072632,-0.221436,0.971191,537
32514919,9978,0.071411,-0.219849,0.969849,534
32524916,9997,0.074951,-0.217529,0.964478,544
32534905,9989,0.076050,-0.216797,0.960571,538
32544926,10021,0.076538,-0.217285,0.954834,539
32554914,9988,0.078125,-0.188843,0.948120,543
32564902,9988,0.079224,-0.221069,0.947632,542
32574923,10021,0.080078,-0.221313,0.949585,536
32584907,9984,0.084229,-0.218140,0.949463,535
32594912,10005,0.079224,-0.221802,0.955444,529
32604904,9992,0.078003,-0.221802,0.957520,524
32614917,10013,0.068481,-0.211792,0.963989,517
32624916,9999,0.062988,-0.209473,0.968018,518
32634917,10001,0.062134,-0.209229,0.972168,508
32644906,9989,0.057373,-0.206055,0.973633,512
32654910,10004,0.056396,-0.203003,0.974243,507
32664919,10009,0.059448,-0.213867,0.976196,505
32674931,10012,0.058472,-0.215210,0.980713,503
32684922,9991,0.057129,-0.212036,0.982056,504
32694916,9994,0.056274,-0.211426,0.983643,501
32704926,10010,0.064575,-0.223267,0.987183,495
32714933,10007,0.055176,-0.224365,0.987549,501
32724918,9985,0.056641,-0.221924,0.980957,500
32734928,10010,0.057373,-0.221558,0.978516,505
32744906,9978,0.058716,-0.214111,0.976074,505
32754915,10009,0.068970,-0.208984,0.975830,507
32764919,10004,0.077026,-0.205200,0.979004,509
32774924,10005,0.086060,-0.203247,0.982300,508
32784925,10001,0.092529,-0.208618,0.981567,511
32794903,9978,0.097046,-0.212280,0.983276,510
32804927,10024,0.100098,-0.214844,0.984741,509
32814904,9977,0.106445,-0.218506,0.985107,512
32824915,10011,0.108032,-0.220825,0.979858,505
32834902,9987,0.107056,-0.210083,0.970459,509
32844912,10010,0.110840,-0.213135,0.969360,512
32854929,10017,0.110962,-0.222656,0.967651,506
32864910,9981,0.118774,-0.243530,0.968384,517
32874927,10017,0.110107,-0.235840,0.967773,508
32884924,9997,0.100708,-0.215820,0.965942,513
32894913,9989,0.093750,-0.214844,0.961914,515
32904919,10006,0.085815,-0.215454,0.955566,517
32914919,10000,0.079712,-0.214844,0.948120,515
32924924,10005,0.076416,-0.214233,0.946899,509
32934904,9980,0.072144,-0.212646,0.947998,516
32944920,10016,0.066650,-0.222290,0.957153,515
32954902,9982,0.065552,-0.229736,0.964722,513
32964910,10008,0.064209,-0.232056,0.972778,507
32974926,10016,0.061279,-0.232178,0.978638,508
32984914,9988,0.063110,-0.236450,0.981567,512
32994914,10000,0.068237,-0.237183,0.977173,514
33004920,10006,0.070801,-0.234131,0.973145,509
33014930,10010,0.078125,-0.233765,0.968994,512
33024930,10000,0.086182,-0.233276,0.960571,512
33034930,10000,0.092285,-0.234741,0.951782,512
33044906,9976,0.097168,-0.231567,0.941406,509
33054908,10002,0.104858,-0.217041,0.938354,511
33064931,10023,0.109131,-0.209839,0.941406,514
33074925,9994,0.113892,-0.203247,0.941406,512
33084958,10033,0.117676,-0.197510,0.942749,509
33094908,9950,0.118408,-0.193970,0.944946,511
33104912,10004,0.118042,-0.197510,0.945923,513
33114905,9993,0.117920,-0.207886,0.943237,512
33124927,10022,0.120728,-0.219360,0.950317,514
33134919,9992,0.124268,-0.227295,0.955811,511
33144903,9984,0.125488,-0.225708,0.957764,507
33154919,10016,0.129639,-0.240845,0.959229,510
33164902,9983,0.128418,-0.251587,0.958252,510
33174907,10005,0.128540,-0.250488,0.958252,507
33184915,10008,0.126953,-0.240234,0.960083,504
33194923,10008,0.122925,-0.231079,0.964844,510
33204926,10003,0.123413,-0.227173,0.969116,508
33214913,9987,0.123047,-0.237183,0.985229,509
33224925,10012,0.125244,-0.237549,0.979980,503
33234931,10006,0.124268,-0.240723,0.972534,508
33244926,9995,0.120239,-0.235840,0.972534,508
33254922,9996,0.127441,-0.227173,0.957031,510
33264935,10013,0.121094,-0.226074,0.949585,509
33274918,9983,0.117310,-0.218994,0.952515,507
33284916,9998,0.120361,-0.193604,0.955688,508
33294912,9996,0.118164,-0.192017,0.963257,508
33304909,9997,0.124634,-0.207886,0.973511,501
33314928,10019,0.112183,-0.208496,0.975098,506
33324930,10002,0.117798,-0.212524,0.973389,507
33334914,9984,0.118530,-0.219116,0.972534,509
33344927,10013,0.119629,-0.223877,0.965942,512
33354923,9996,0.124512,-0.224487,0.957764,513
33364907,9984,0.133667,-0.224609,0.945801,510
33374910,10003,0.148437,-0.224731,0.930176,514
33384917,10007,0.147583,-0.231323,0.923340,511
33394909,9992,0.152466,-0.237427,0.916870,516
33404914,10005,0.163208,-0.259033,0.922729,516
33414902,9988,0.161499,-0.273682,0.925415,515
33424926,10024,0.150757,-0.275024,0.931885,513
33434923,9997,0.155884,-0.273560,0.944214,516
33444928,10005,0.143677,-0.270386,0.948975,514
33454929,10001,0.132812,-0.254883,0.951416,516
33464903,9974,0.131348,-0.244263,0.958130,511
33474928,10025,0.126709,-0.231689,0.959717,508
33484930,10002,0.130493,-0.213867,0.958008,513
33494931,10001,0.127563,-0.204834,0.951416,514
33504922,9991,0.126587,-0.196777,0.947754,512
33514925,10003,0.135986,-0.198486,0.949829,510
33524913,9988,0.138550,-0.206177,0.952148,512
33534907,9994,0.116455,-0.166870,0.953491,512
33544911,10004,0.133057,-0.173096,0.960205,511
33554908,9997,0.128296,-0.178955,0.963501,514
33564906,9998,0.128052,-0.177002,0.962646,507
33574907,10001,0.130371,-0.172485,0.959717,512
33584913,10006,0.131104,-0.174805,0.957031,507
33594904,9991,0.134033,-0.189941,0.953369,513
33604905,10001,0.136353,-0.195190,0.948364,514
33614930,10025,0.136841,-0.204712,0.942505,514
33624918,9988,0.141846,-0.215332,0.942993,515
33634915,9997,0.148804,-0.226929,0.949585,513
33644917,10002,0.162354,-0.250122,0.945190,513
33654920,10003,0.161743,-0.251953,0.946533,514
33664910,9990,0.161133,-0.251709,0.949097,515
33674914,10004,0.158813,-0.249634,0.952515,514
33684920,10006,0.158203,-0.245605,0.959473,512
33694910,9990,0.158447,-0.241943,0.965332,513
33704915,10005,0.159912,-0.234009,0.977661,512
33714914,9999,0.158936,-0.242676,0.980469,512
33724914,10000,0.146973,-0.238525,0.978760,511
33734912,9998,0.145264,-0.226562,0.972656,510
33744920,10008,0.163330,-0.236694,0.968506,509
33754928,10008,0.155884,-0.219849,0.957886,509
33764902,9974,0.158813,-0.213501,0.955322,508
33774927,10025,0.156128,-0.210083,0.958374,504
33784920,9993,0.154907,-0.210449,0.963501,507
33794909,9989,0.153442,-0.215942,0.972900,505
33804915,10006,0.146240,-0.219360,0.976807,507
33814941,10026,0.127197,-0.222168,0.968140,507
33824955,10014,0.121338,-0.219238,0.968506,507
33834925,9970,0.121704,-0.210693,0.969116,509
33844922,9997,0.133667,-0.215454,0.970337,501
33854904,9982,0.118408,-0.204224,0.966797,509
33864908,10004,0.133789,-0.194824,0.973022,508
33874930,10022,0.138062,-0.194336,0.976196,512
33884913,9983,0.148437,-0.195068,0.981689,508
33894905,9992,0.149902,-0.193481,0.981567,511
33904913,10008,0.148804,-0.190674,0.975952,508
33914913,10000,0.146973,-0.188110,0.965454,507
33924930,10017,0.150024,-0.175293,0.956055,509
33934916,9986,0.154907,-0.184326,0.944824,508
33944928,10012,0.142578,-0.192139,0.926880,511
33954926,9998,0.150635,-0.204834,0.910767,507
33964918,9992,0.161865,-0.214233,0.902832,506
33974917,9999,0.158081,-0.177856,0.897705,512
33984916,9999,0.162354,-0.145508,0.912842,516
33994916,10000,0.166992,-0.124878,0.921509,514
34004903,9987,0.168823,-0.127319,0.928833,519
34014952,10049,0.178467,-0.151489,0.950195,522
34024917,9965,0.197510,-0.256592,0.979736,525
34034912,9995,0.196533,-0.286255,0.983032,528
34044907,9995,0.188110,-0.275635,0.975586,531
34069947,25040,0.193481,-0.116943,0.920776,530
34075220,5273,0.000000,0.000000,0.000000,535
34079522,4302,0.190063,-0.064209,0.902832,534
34084978,5456,0.189575,-0.035156,0.901245,531
34094905,9927,0.190063,-0.052124,0.905884,537
34104927,10022,0.173706,-0.058350,0.913696,534
34114905,9978,0.166626,-0.065186,0.930054,536
34124931,10026,0.156006,-0.075562,0.946167,536
34134920,9989,0.148071,-0.088745,0.976440,532
34144904,9984,0.142578,-0.106201,0.996582,523
34154919,10015,0.137329,-0.114380,1.010620,524
34164922,10003,0.140015,-0.117920,1.025146,526
34174924,10002,0.135620,-0.136841,1.028198,526
34191129,16205,0.115601,-0.200562,1.017700,519
34196785,5656,0.115479,-0.229004,1.008545,521
34204928,8143,0.115234,-0.247559,1.000610,519
34214913,9985,0.110229,-0.256470,0.986572,517
34224917,10004,0.117310,-0.246338,0.972168,516
34234923,10006,0.128174,-0.228760,0.962036,516
34244916,9993,0.127441,-0.203735,0.950928,515
34254929,10013,0.126221,-0.183105,0.943604,512
34264908,9979,0.142700,-0.173950,0.935669,516
34274910,10002,0.138550,-0.160522,0.927612,511
34284931,10021,0.139648,-0.149536,0.922241,516
34294924,9993,0.141846,-0.138428,0.883057,514
34304908,9984,0.138306,-0.115845,0.905151,509
34314917,10009,0.128906,-0.104858,0.916626,513
34324917,10000,0.125977,-0.089355,0.959106,507
34334907,9990,0.146362,-0.098022,0.997314,506
34344905,9998,0.147949,-0.138550,1.006104,512
34354903,9998,0.147705,-0.181885,0.978027,512
34364916,10013,0.145630,-0.179321,0.956665,513
34374948,10032,0.141968,-0.158691,0.941895,513
34384917,9969,0.141113,-0.127563,0.937988,514
34394910,9993,0.136597,-0.093262,0.940918,509
34404914,10004,0.141357,-0.032959,0.974243,515
34414916,10002,0.153809,-0.031616,0.992065,514
34424920,10004,0.145020,-0.022461,1.010620,514
34434926,10006,0.131348,-0.026855,1.038696,513
34444929,10003,0.119751,-0.045654,1.057617,508
34454920,9991,0.107788,-0.066406,1.064087,509
34464908,9988,0.089722,-0.114380,1.085449,515
34474918,10010,0.087158,-0.135376,1.076660,512
34484928,10010,0.079346,-0.155762,1.048462,518
34494923,9995,0.071289,-0.167480,1.007813,517
34504909,9986,0.063721,-0.178711,0.967285,515
34514917,10008,0.089111,-0.199341,0.913208,522
34524916,9999,0.066162,-0.193237,0.904297,516
34534909,9993,0.065063,-0.176880,0.920532,524
34544908,9999,0.071045,-0.174683,0.939087,523
34554919,10011,0.069702,-0.189331,0.953491,523
34564917,9998,0.071167,-0.214600,0.961426,520
34574929,10012,0.095337,-0.231934,0.956543,517
34584903,9974,0.106689,-0.207153,0.945312,524
34594930,10027,0.109985,-0.196167,0.929077,515
34604916,9986,0.110474,-0.175781,0.914185,520
34614920,10004,0.126465,-0.149048,0.907349,519
34624922,10002,0.136230,-0.114136,0.930298,515
34634907,9985,0.147339,-0.101440,0.955566,518
34644928,10021,0.153442,-0.096558,0.983521,515
34654909,9981,0.154053,-0.094116,1.005249,512
34664906,9997,0.154053,-0.093262,1.011230,511
34674926,10020,0.146606,-0.088135,1.010742,508
34684902,9976,0.142456,-0.072021,1.000854,503
34694931,10029,0.148560,-0.086670,0.990234,507
34704904,9973,0.141724,-0.103516,0.982666,498
34714924,10020,0.152222,-0.121704,0.986084,505
34724912,9988,0.147827,-0.137207,0.981567,513
34734915,10003,0.147461,-0.143188,0.985840,503
34744922,10007,0.146484,-0.149536,0.994263,504
34754923,10001,0.144531,-0.161011,0.998169,505
34764931,10008,0.130615,-0.160767,0.994873,508
34774909,9978,0.136475,-0.159790,0.992920,504
34784910,10001,0.135864,-0.162598,0.979980,507
34794912,10002,0.118042,-0.146240,0.970093,505
34804910,9998,0.117798,-0.145142,0.958130,511
34814912,10002,0.115479,-0.131470,0.954834,512
34824902,9990,0.115112,-0.118286,0.954102,514
34834925,10023,0.117798,-0.107300,0.963379,515
34844917,9992,0.107666,-0.119385,0.990112,510
34854929,10012,0.108032,-0.139038,1.005005,509
34864923,9994,0.107056,-0.159668,1.007080,518
34874904,9981,0.098877,-0.169922,1.000488,514
34884907,10003,0.096924,-0.167725,0.990845,516
34894922,10015,0.102539,-0.133545,0.966675,511
34904936,10014,0.106323,-0.110474,0.959106,508
34914945,10009,0.110107,-0.094360,0.954590,514
34924907,9962,0.112549,-0.089233,0.953247,509
34934904,9997,0.116577,-0.091187,0.953125,514
34944911,10007,0.123169,-0.099243,0.955200,516
34954920,10009,0.113770,-0.107666,0.975220,513
34964931,10011,0.122681,-0.115967,0.978394,510
34974911,9980,0.122070,-0.127441,0.973999,512
34984922,10011,0.123169,-0.133301,0.967041,514
34994929,10007,0.126953,-0.135864,0.961670,505
35004912,9983,0.127686,-0.132080,0.948242,514
35014932,10020,0.127930,-0.124878,0.944824,512
35024909,9977,0.128540,-0.117432,0.947144,512
35034931,10022,0.125000,-0.115479,0.947144,511
35044921,9990,0.122681,-0.118164,0.951172,506
35054908,9987,0.124146,-0.119873,0.961914,513
35064910,10002,0.125610,-0.124390,0.983154,510
35074908,9998,0.119263,-0.122192,0.989258,511
35084956,10048,0.116455,-0.124146,0.992920,511
35094935,9979,0.113403,-0.127319,0.992187,509
35104922,9987,0.113892,-0.129272,0.990112,509
35114921,9999,0.118896,-0.125977,0.985840,511
35124931,10010,0.119141,-0.124268,0.984985,511
35134926,9995,0.117188,-0.126587,0.983643,505
35144913,9987,0.119385,-0.127930,0.980469,510
35154925,10012,0.125732,-0.127930,0.979614,509
35164915,9990,0.131226,-0.129395,0.976685,511
35174926,10011,0.133301,-0.130005,0.973511,506
35184902,9976,0.133179,-0.128906,0.970337,510
35194903,10001,0.131104,-0.119019,0.969238,506
35204931,10028,0.131836,-0.112671,0.972412,509
35214903,9972,0.129517,-0.111938,0.974976,512
35224915,10012,0.128784,-0.105835,0.987183,512
35234907,9992,0.129272,-0.109619,0.988281,511
35244916,10009,0.128052,-0.116333,0.984985,511
35254907,9991,0.131592,-0.117676,0.980835,511
35265544,10637,0.132446,-0.114990,0.974731,507
35274913,9369,0.135254,-0.117065,0.972412,511
35284912,9999,0.136963,-0.120239,0.970703,513
35294918,10006,0.136719,-0.122070,0.970093,513
35304926,10008,0.134521,-0.122192,0.973267,514
35314923,9997,0.135254,-0.125244,0.975586,515
35324927,10004,0.135742,-0.128174,0.979248,516
35334928,10001,0.138672,-0.124512,0.981567,513
35344909,9981,0.140259,-0.118408,0.979370,512
35354926,10017,0.142822,-0.112915,0.976685,514
35364902,9976,0.141602,-0.107788,0.974487,513
35374928,10026,0.142456,-0.109619,0.973633,515
35384908,9980,0.132935,-0.126587,0.980347,515
35394924,10016,0.132568,-0.137207,0.983521,517
35404908,9984,0.135376,-0.147217,0.988525,516
35414906,9998,0.141357,-0.153076,0.996338,515
35424923,10017,0.147583,-0.157593,0.997070,514
35434929,10006,0.149902,-0.160767,0.989868,516
35444939,10010,0.152710,-0.157104,0.957153,516
35454920,9981,0.155884,-0.151855,0.945312,510
35464907,9987,0.161011,-0.144043,0.939209,510
35474928,10021,0.161987,-0.134644,0.937744,510
35484916,9988,0.161499,-0.130859,0.937500,511
35494929,10013,0.155151,-0.125366,0.949585,515
35504914,9985,0.150757,-0.123291,0.960937,514
35514912,9998,0.144165,-0.123047,0.970947,513
35524915,10003,0.137695,-0.125732,0.973389,512
35534932,10017,0.128662,-0.131714,0.975220,512
35544925,9993,0.117310,-0.135010,0.981934,511
35554930,10005,0.117065,-0.128662,0.987671,513
35564905,9975,0.115845,-0.120239,0.992676,512
35574908,10003,0.118408,-0.113159,0.995605,511
35584921,10013,0.125488,-0.109131,0.998047,510
35594906,9985,0.135498,-0.111206,0.994019,511
35604911,10005,0.152954,-0.110840,0.973267,509
35614904,9993,0.157959,-0.104980,0.954956,507
35624909,10005,0.163574,-0.098145,0.942749,512
35634916,10007,0.169800,-0.098999,0.937378,511
35644907,9991,0.172485,-0.103149,0.937256,508
35654925,10018,0.174683,-0.113403,0.936890,508
35664931,10006,0.166382,-0.120850,0.946533,510
35674928,9997,0.166626,-0.121216,0.962646,510
35684903,9975,0.166260,-0.124023,0.979492,510
35694905,10002,0.166138,-0.129761,0.988525,505
35704907,10002,0.167114,-0.134521,0.985840,508
35714920,10013,0.171753,-0.140625,0.970093,509
35724931,10011,0.174683,-0.140991,0.962402,508
35734906,9975,0.176636,-0.137329,0.957520,509
35744916,10010,0.175537,-0.130493,0.953613,509
35754903,9987,0.175659,-0.118530,0.955322,509
35764921,10018,0.171997,-0.103149,0.969604,508
35774918,9997,0.168945,-0.103638,0.977539,502
35784927,10009,0.164795,-0.103027,0.985962,508
35794903,9976,0.165894,-0.098999,0.990723,506
35804927,10024,0.164917,-0.097656,0.990479,503
35814938,10011,0.165771,-0.097168,0.989380,502
35824907,9969,0.178223,-0.104614,0.975098,507
35834914,10007,0.181396,-0.111572,0.966187,508
35844903,9989,0.174805,-0.115356,0.956299,499
35854905,10002,0.182129,-0.119385,0.948853,507
35864913,10008,0.186279,-0.130005,0.945923,510
35874924,10011,0.179810,-0.138428,0.939331,502
35884919,9995,0.180298,-0.142334,0.936157,510
35894915,9996,0.174561,-0.146484,0.937134,509
35904925,10010,0.174194,-0.155396,0.942627,508
35914917,9992,0.171997,-0.161621,0.945190,510
35924911,9994,0.166260,-0.159668,0.946289,506
35934917,10006,0.164795,-0.156372,0.953125,509
35944907,9990,0.162842,-0.156128,0.955200,512
35954918,10011,0.162842,-0.138916,0.953491,505
35964904,9986,0.165649,-0.126465,0.949219,506
35974923,10019,0.163818,-0.148437,0.944214,508
35984971,10048,0.171753,-0.145752,0.944458,514
35994940,9969,0.174561,-0.141479,0.951538,514
36004904,9964,0.179687,-0.138794,0.960327,512
36014923,10019,0.184937,-0.131104,0.970581,514
36024903,9980,0.188721,-0.121826,0.975098,507
36034912,10009,0.187134,-0.110107,0.978027,511
36044912,10000,0.185059,-0.096558,0.979492,507
36054918,10006,0.179932,-0.100830,0.981079,513
36064906,9988,0.178589,-0.108643,0.980713,506
36074913,10007,0.175049,-0.118530,0.976440,512
36084917,10004,0.173218,-0.128174,0.969238,509
36094904,9987,0.172119,-0.133057,0.956665,512
36104913,10009,0.171631,-0.134644,0.951294,509
36114907,9994,0.174438,-0.130371,0.951660,513
36124917,10010,0.176758,-0.121460,0.953735,512
36134909,9992,0.175171,-0.115479,0.958496,512
36144919,10010,0.166992,-0.122437,0.973633,507
36154921,10002,0.164673,-0.127563,0.975830,512
36164916,9995,0.165039,-0.127930,0.976807,512
36174907,9991,0.171265,-0.137451,0.977173,508
36184915,10008,0.160889,-0.135498,0.975708,511
36194917,10002,0.161987,-0.132324,0.968750,508
36204908,9991,0.162231,-0.117065,0.959229,511
36214917,10009,0.159180,-0.112549,0.957764,509
36224913,9996,0.155640,-0.110229,0.956543,505
36234924,10011,0.152466,-0.115112,0.954346,511
36244903,9979,0.149292,-0.127319,0.953003,509
36254930,10027,0.131348,-0.143188,0.954468,504
36264906,9976,0.111694,-0.139648,0.960327,512
36274932,10026,0.123047,-0.137573,0.967041,503
36284919,9987,0.130249,-0.138672,0.980835,507
36294929,10010,0.131958,-0.147095,0.991577,492
36304915,9986,0.137695,-0.157104,1.000488,510
36314903,9988,0.134277,-0.170532,0.994995,508
36324931,10028,0.131348,-0.175049,0.983276,508
36334974,10043,0.129272,-0.177490,0.974854,508
36344926,9952,0.130005,-0.178345,0.966553,502
36354916,9990,0.129517,-0.170532,0.957275,505
36364914,9998,0.149170,-0.141846,0.957031,503
36374907,9993,0.156982,-0.130371,0.974609,508
36384907,10000,0.160889,-0.122314,0.989258,507
36394925,10018,0.163330,-0.123779,0.993774,512
36404909,9984,0.166138,-0.135986,0.994995,508
36414906,9997,0.162231,-0.141357,0.983154,513
36424929,10023,0.151978,-0.159546,0.971558,513
36434918,9989,0.149780,-0.164062,0.962891,511
36444912,9994,0.145996,-0.158691,0.957886,512
36454907,9995,0.144531,-0.151978,0.958862,514
36464928,10021,0.152954,-0.152222,0.963379,513
36474932,10004,0.142456,-0.132080,0.962891,516
36484911,9979,0.143799,-0.152344,0.970703,515
36494930,10019,0.137573,-0.166016,0.968506,513
36504922,9992,0.127441,-0.175293,0.962891,516
36514942,10020,0.121460,-0.186646,0.957153,518
36524927,9985,0.123169,-0.189575,0.955444,517
36534905,9978,0.123657,-0.185303,0.955933,511
36544921,10016,0.124756,-0.175171,0.957520,517
36554907,9986,0.129150,-0.158813,0.958496,518
36564908,10001,0.128540,-0.145142,0.966797,518
36574912,10004,0.129150,-0.142212,0.977295,515
36584908,9996,0.121582,-0.151611,0.970825,514
36594917,10009,0.119995,-0.166870,0.966187,518
36604921,10004,0.113892,-0.181763,0.960693,518
36614912,9991,0.108765,-0.194824,0.958496,517
36624930,10018,0.105713,-0.200195,0.957275,517
36634908,9978,0.103149,-0.182251,0.962891,517
36644913,10005,0.103394,-0.166748,0.974976,518
36654912,9999,0.102417,-0.155273,0.984009,516
36664923,10011,0.101807,-0.149536,0.987549,515
36674915,9992,0.100952,-0.163208,0.986328,513
36684915,10000,0.093750,-0.179565,0.980835,515
36694928,10013,0.088379,-0.200317,0.969727,516
36704912,9984,0.088501,-0.204590,0.960937,516
36714914,10002,0.085815,-0.201904,0.956299,510
36724924,10010,0.085205,-0.194458,0.948242,515
36734921,9997,0.086060,-0.183716,0.941284,515
36744931,10010,0.093628,-0.184204,0.955933,515
36754919,9988,0.099121,-0.184692,0.961670,512
36764902,9983,0.102905,-0.193237,0.965576,511
36774911,10009,0.101318,-0.205933,0.967407,515
36784903,9992,0.098022,-0.216553,0.964355,514
36794922,10019,0.105103,-0.230225,0.962158,511
36804921,9999,0.097412,-0.235229,0.959839,508
36814927,10006,0.095703,-0.227783,0.959106,511
36824918,9991,0.094727,-0.214966,0.958984,505
36834912,9994,0.097778,-0.199219,0.961304,512
36844927,10015,0.089844,-0.189087,0.968018,512
36854914,9987,0.093384,-0.193726,0.982666,508
36864932,10018,0.095337,-0.208130,0.990356,511
36874914,9982,0.093628,-0.219238,0.994385,510
36884930,10016,0.094604,-0.229736,0.992920,509
36894906,9976,0.092407,-0.236572,0.991699,508
36904905,9999,0.084717,-0.225098,0.978271,506
36914916,10011,0.085815,-0.206909,0.969849,513
36924925,10009,0.086670,-0.185425,0.956421,510
36934906,9981,0.080444,-0.171997,0.951782,512
36944917,10011,0.092896,-0.178101,0.940186,508
36954922,10005,0.081665,-0.182495,0.942993,512
36964909,9987,0.076538,-0.183472,0.953857,515
36974911,10002,0.069214,-0.192261,0.958984,514
36984927,10016,0.062866,-0.200439,0.964966,513
36994931,10004,0.061401,-0.206543,0.966187,513
37004923,9992,0.056274,-0.213013,0.966309,513
37014912,9989,0.057983,-0.207031,0.961670,509
37024911,9999,0.057129,-0.205688,0.963867,511
37034964,10053,0.056152,-0.201172,0.962769,513
37044922,9958,0.063110,-0.203979,0.965210,513
37054907,9985,0.067505,-0.211060,0.966309,510
37064917,10010,0.068604,-0.221069,0.969116,507
37074926,10009,0.067993,-0.239380,0.974243,516
37084924,9998,0.068237,-0.241455,0.976562,511
37094931,10007,0.068604,-0.237915,0.977051,514
37104926,9995,0.070679,-0.231689,0.976318,511
37114906,9980,0.070557,-0.226196,0.974243,517
37124905,9999,0.074707,-0.208252,0.968872,515
37134908,10003,0.078491,-0.202515,0.963379,513
37144908,10000,0.079834,-0.199341,0.962769,516
37154920,10012,0.083130,-0.198242,0.968140,516
37164919,9999,0.085815,-0.200928,0.971680,508
37174906,9987,0.083618,-0.202637,0.973389,512
37184926,10020,0.081909,-0.198486,0.976196,516
37194905,9979,0.080688,-0.195312,0.977661,511
37204914,10009,0.079102,-0.197266,0.977051,516
37214937,10023,0.078369,-0.201294,0.974976,518
37224913,9976,0.075806,-0.204468,0.972290,517
37234923,10010,0.074097,-0.206665,0.968262,517
37244912,9989,0.074219,-0.209839,0.961914,514
37254905,9993,0.074341,-0.213745,0.960083,517
37264908,10003,0.072876,-0.213379,0.958130,519
37274927,10019,0.072266,-0.213623,0.959595,520
37284922,9995,0.072388,-0.220093,0.961426,520
37294923,10001,0.071777,-0.223999,0.963257,521
37304914,9991,0.070923,-0.227661,0.965332,518
37314922,10008,0.071411,-0.229370,0.964233,521
37324902,9980,0.069946,-0.233765,0.962402,521
37334920,10018,0.066895,-0.234131,0.957886,514
37344921,10001,0.064819,-0.232300,0.966553,519
37354917,9996,0.063965,-0.231079,0.969116,514
37364913,9996,0.063965,-0.231689,0.968994,517
37374928,10015,0.061646,-0.228516,0.968384,512
37384959,10031,0.061279,-0.222168,0.962402,518
37394905,9946,0.060669,-0.218384,0.949829,518
37404909,10004,0.061401,-0.216675,0.944824,517
37414917,10008,0.060547,-0.213135,0.942871,512
37424907,9990,0.061890,-0.212891,0.942505,510
37434910,10003,0.062744,-0.212158,0.940430,516
37444921,10011,0.061646,-0.210205,0.940674,513
37454920,9999,0.055176,-0.197998,0.947144,507
37464927,10007,0.054199,-0.199951,0.954712,508
37474905,9978,0.055786,-0.198608,0.962158,514
37484926,10021,0.058960,-0.196167,0.969360,514
37494903,9977,0.061401,-0.197876,0.973022,505
37504907,10004,0.069824,-0.211182,0.976562,511
37514915,10008,0.073730,-0.215576,0.970215,511
37524922,10007,0.076782,-0.215454,0.965576,512
37534922,10000,0.080078,-0.213989,0.961670,511
37544918,9996,0.083130,-0.213867,0.959229,511
37554925,10007,0.086182,-0.248657,0.959717,512
37564949,10024,0.084351,-0.223022,0.961548,514
37574917,9968,0.080566,-0.223755,0.962769,515
37584907,9990,0.076172,-0.223145,0.963745,508
37594931,10024,0.073242,-0.222046,0.964355,513
37604929,9998,0.070312,-0.218994,0.965332,512
37614908,9979,0.064209,-0.217407,0.973999,510
37624904,9996,0.062378,-0.219238,0.979370,508
37634922,10018,0.058594,-0.218506,0.985229,512
37644922,10000,0.058105,-0.218384,0.986206,512
37654904,9982,0.055908,-0.218994,0.986328,511
37664929,10025,0.054321,-0.218750,0.984863,514
37674922,9993,0.055054,-0.218140,0.979980,512
37684906,9984,0.056152,-0.219971,0.977539,508
37694906,10000,0.057617,-0.218506,0.972656,511
37704905,9999,0.059204,-0.213745,0.969238,512
37714913,10008,0.061157,-0.210693,0.964722,510
37724929,10016,0.064209,-0.212646,0.958252,512
37734910,9981,0.064819,-0.215820,0.957031,506
37744933,10023,0.063354,-0.220215,0.959717,512
37754931,9998,0.064087,-0.223877,0.962280,513
37764917,9986,0.063110,-0.229980,0.965088,507
37774906,9989,0.058350,-0.239014,0.972168,512
37784929,10023,0.057495,-0.241211,0.972778,512
37794911,9982,0.056519,-0.240479,0.968872,512
37804902,9991,0.054565,-0.236450,0.965332,511
37814922,10020,0.057495,-0.235352,0.961670,511
37824922,10000,0.057007,-0.236938,0.959229,512
37834920,9998,0.055176,-0.234253,0.962524,507
37844913,9993,0.054199,-0.232300,0.966797,515
37854925,10012,0.056152,-0.235229,0.969849,508
37864925,10000,0.055664,-0.241089,0.971924,507
37874906,9981,0.048950,-0.233398,0.973145,514
37884907,10001,0.051147,-0.224365,0.972900,513
37894917,10010,0.056274,-0.222656,0.973022,506
37904924,10007,0.055908,-0.228394,0.965820,507
37914907,9983,0.053833,-0.226074,0.965332,510
37924951,10044,0.060669,-0.221069,0.966675,514
37934917,9966,0.061646,-0.218262,0.964355,517
37944919,10002,0.061401,-0.221680,0.959229,516
37954910,9991,0.063110,-0.220459,0.959595,511
37964910,10000,0.066772,-0.226929,0.961792,516
37974924,10014,0.067017,-0.230591,0.961792,516
37984926,10002,0.065918,-0.228638,0.964355,512
