t_us,dt_us,ax,ay,az,ppg
74425779,10010,-0.063843,-0.644531,-0.800293,525
74435796,10017,-0.061279,-0.641602,-0.798096,525
74445778,9982,-0.057251,-0.635620,-0.794922,525
74455791,10013,-0.057129,-0.630493,-0.792603,522
74465787,9996,-0.058960,-0.630859,-0.789429,526
74475778,9991,-0.062256,-0.630249,-0.787476,517
74485771,9993,-0.063599,-0.630005,-0.785645,522
74495775,10004,-0.065674,-0.629517,-0.785400,516
74505794,10019,-0.063354,-0.633789,-0.784668,522
74515774,9980,-0.064209,-0.634399,-0.783447,524
74525793,10019,-0.065186,-0.635620,-0.784058,524
74535779,9986,-0.063477,-0.637817,-0.787109,514
74545786,10007,-0.061646,-0.638184,-0.789429,518
74555806,10020,-0.057861,-0.638794,-0.793091,520
74565790,9984,-0.058838,-0.639648,-0.795776,521
74575783,9993,-0.061768,-0.640259,-0.795532,509
74585784,10001,-0.063477,-0.639648,-0.793823,515
74595780,9996,-0.067383,-0.639160,-0.793457,520
74605789,10009,-0.070068,-0.639771,-0.793579,518
74615774,9985,-0.070557,-0.639893,-0.792480,516
74625775,10001,-0.067871,-0.641968,-0.791748,513
74635799,10024,-0.066772,-0.642212,-0.791138,515
74645788,9989,-0.066650,-0.639771,-0.790283,517
74655780,9992,-0.066406,-0.641968,-0.790283,510
74665778,9998,-0.067749,-0.643555,-0.789185,507
74675770,9992,-0.066650,-0.638550,-0.789917,515
74685772,10002,-0.067261,-0.638794,-0.789917,507
74695773,10001,-0.066284,-0.642578,-0.790039,507
74705784,10011,-0.067993,-0.644653,-0.788574,515
74715775,9991,-0.065063,-0.644165,-0.788452,514
74736566,20791,-0.064209,-0.646362,-0.789307,513
74742739,6173,-0.065063,-0.647461,-0.789917,514
74749069,6330,0.000000,0.000000,0.000000,513
74755781,6712,-0.064697,-0.649170,-0.791992,506
74765790,10009,-0.060913,-0.648682,-0.795166,511
74775793,10003,-0.056152,-0.650391,-0.796387,505
74785769,9976,-0.057129,-0.649536,-0.796509,511
74795787,10018,-0.058716,-0.644165,-0.794312,511
74805770,9983,-0.060181,-0.643188,-0.792603,512
74815779,10009,-0.063354,-0.640991,-0.790894,504
74829404,13625,-0.066284,-0.639038,-0.790527,512
74835790,6386,-0.063477,-0.641724,-0.790405,509
74845781,9991,-0.063721,-0.640503,-0.789795,512
74855770,9989,-0.062622,-0.639038,-0.789185,505
74865791,10021,-0.063965,-0.637451,-0.789307,510
74875777,9986,-0.063843,-0.636108,-0.789185,511
74885789,10012,-0.066528,-0.637817,-0.790405,505
74895776,9987,-0.065308,-0.635498,-0.789917,510
74905771,9995,-0.066040,-0.634155,-0.790039,512
74915771,10000,-0.068237,-0.635010,-0.791138,506
74933888,18117,-0.067017,-0.638794,-0.790039,512
74939233,5345,-0.067261,-0.640259,-0.789185,511
74945781,6548,-0.066650,-0.642578,-0.789307,513
74955787,10006,-0.065186,-0.642090,-0.789185,512
74992116,36329,-0.061157,-0.644897,-0.793457,507
74997568,5452,-0.061401,-0.646118,-0.793945,512
75003013,5445,0.000000,0.000000,0.000000,506
75007165,4152,-0.060303,-0.644409,-0.793579,513
75012843,5678,-0.059326,-0.643066,-0.792969,512
75018455,5612,0.000000,0.000000,0.000000,512
75031003,12548,-0.061401,-0.642212,-0.790771,505
75036395,5392,0.000000,0.000000,0.000000,512
75045788,9393,-0.060669,-0.639038,-0.786621,513
75055778,9990,-0.061401,-0.639282,-0.787476,513
75065773,9995,-0.066284,-0.639038,-0.787720,513
75075781,10008,-0.059937,-0.646118,-0.790771,512
75085771,9990,-0.066406,-0.645752,-0.791382,513
75095770,9999,-0.066162,-0.640625,-0.788940,512
75121960,26190,-0.062012,-0.639648,-0.793701,516
75127714,5754,0.000000,0.000000,0.000000,513
75131783,4069,-0.064453,-0.638550,-0.790894,514
75137483,5700,0.000000,0.000000,0.000000,508
75145784,8301,-0.062866,-0.638916,-0.788574,510
75155769,9985,-0.063232,-0.638794,-0.786743,511
75165778,10009,-0.064087,-0.639771,-0.787720,521
75175794,10016,-0.066895,-0.640381,-0.787842,524
75185774,9980,-0.066284,-0.640625,-0.790161,516
75195774,10000,-0.067749,-0.641724,-0.791504,524
75205777,10003,-0.062988,-0.640991,-0.793579,525
75215798,10021,-0.062622,-0.644409,-0.795898,526
75225792,9994,-0.061768,-0.642578,-0.794922,520
75235778,9986,-0.062622,-0.642700,-0.795898,528
75245772,9994,-0.062134,-0.642944,-0.796143,520
75255779,10007,-0.065308,-0.641968,-0.795898,528
75265793,10014,-0.065430,-0.642700,-0.793091,524
75275789,9996,-0.066162,-0.642212,-0.790894,514
75285780,9991,-0.063599,-0.641113,-0.789307,521
75295769,9989,-0.063354,-0.639771,-0.789062,514
75305774,10005,-0.061523,-0.638428,-0.786499,521
75315788,10014,-0.061157,-0.636963,-0.787720,519
75325775,9987,-0.062988,-0.636475,-0.789795,511
75346317,20542,-0.060425,-0.640747,-0.793213,512
75352595,6278,-0.057983,-0.635986,-0.792114,511
75359423,6828,-0.058594,-0.647949,-0.794189,512
75365790,6367,0.000000,0.000000,0.000000,517
75375801,10011,-0.064209,-0.642822,-0.792725,510
75385780,9979,-0.063843,-0.643799,-0.791138,511
75395782,10002,-0.065552,-0.644287,-0.791138,515
75405797,10015,-0.064697,-0.645020,-0.789917,510
75415795,9998,-0.067993,-0.643677,-0.788452,507
75425795,10000,-0.064331,-0.644775,-0.788208,513
75435790,9995,-0.064087,-0.641846,-0.788208,513
75445781,9991,-0.064087,-0.642212,-0.787842,516
75455792,10011,-0.063354,-0.645386,-0.788330,513
75465778,9986,-0.062500,-0.644897,-0.789062,505
75475784,10006,-0.061768,-0.640503,-0.790039,509
75485781,9997,-0.061279,-0.641602,-0.791016,514
75495785,10004,-0.062744,-0.641724,-0.791992,511
75505769,9984,-0.061279,-0.642578,-0.792236,510
75515793,10024,-0.061279,-0.642090,-0.792480,509
75525774,9981,-0.062256,-0.641479,-0.791992,505
75535773,9999,-0.061768,-0.639526,-0.789429,504
75545796,10023,-0.064087,-0.638794,-0.790161,506
75555774,9978,-0.063721,-0.638794,-0.789429,513
75565773,9999,-0.065918,-0.639648,-0.791016,510
75575792,10019,-0.064575,-0.640991,-0.791382,516
75585797,10005,-0.032471,-0.642456,-0.793823,512
75595791,9994,-0.061157,-0.643188,-0.793335,513
75605787,9996,-0.060669,-0.642578,-0.792358,516
75615783,9996,-0.061035,-0.641602,-0.791748,508
75625791,10008,-0.063354,-0.640503,-0.790283,515
75635786,9995,-0.065430,-0.638672,-0.788696,509
75645782,9996,-0.067993,-0.638062,-0.788940,509
75659108,13326,-0.065796,-0.640259,-0.789185,513
75665785,6677,-0.062500,-0.639771,-0.788574,505
75675785,10000,-0.062134,-0.641602,-0.789185,512
75685785,10000,-0.061646,-0.642334,-0.790405,513
75723551,37766,-0.064575,-0.643188,-0.790405,511
75728941,5390,0.000000,0.000000,0.000000,514
75733002,4061,-0.064209,-0.642090,-0.789673,510
75738414,5412,0.000000,0.000000,0.000000,509
75785833,47419,-0.061401,-0.643677,-0.789307,504
75791323,5490,-0.062622,-0.643433,-0.787720,505
75796649,5326,0.000000,0.000000,0.000000,509
75800625,3976,-0.062012,-0.643433,-0.788330,512
75806009,5384,0.000000,0.000000,0.000000,509
75810077,4068,-0.062378,-0.644531,-0.789429,510
75815474,5397,-0.063721,-0.645386,-0.790527,511
75820880,5406,0.000000,0.000000,0.000000,505
75825105,4225,-0.063721,-0.644897,-0.789795,506
75830365,5260,0.000000,0.000000,0.000000,505
75835778,5413,-0.062988,-0.642578,-0.789307,508
75845795,10017,-0.063232,-0.641357,-0.787354,511
75855780,9985,-0.062988,-0.640381,-0.787964,510
75865782,10002,-0.063599,-0.642090,-0.790771,510
75875776,9994,-0.062378,-0.640991,-0.789673,512
75885798,10022,-0.063354,-0.640503,-0.791626,511
75895770,9972,-0.062866,-0.641846,-0.791504,512
75905800,10030,-0.062378,-0.641968,-0.791626,511
75915792,9992,-0.063599,-0.642090,-0.790894,508
75925774,9982,-0.063843,-0.642944,-0.790161,512
75935798,10024,-0.064209,-0.641968,-0.789429,514
75945792,9994,-0.064453,-0.643066,-0.789429,516
75974606,28814,-0.064087,-0.640015,-0.792236,517
75980048,5442,0.000000,0.000000,0.000000,521
75984016,3968,-0.066284,-0.640259,-0.793091,524
75989386,5370,0.000000,0.000000,0.000000,524
75995779,6393,-0.064453,-0.641724,-0.793701,521
76005770,9991,-0.063843,-0.642822,-0.794189,521
76015794,10024,-0.064209,-0.641235,-0.793335,517
76025783,9989,-0.065063,-0.644775,-0.792725,532
76035772,9989,-0.063477,-0.642212,-0.791016,521
76045783,10011,-0.063477,-0.640991,-0.790283,522
76055774,9991,-0.063354,-0.639771,-0.788696,519
76065786,10012,-0.063843,-0.638550,-0.787842,521
76075782,9996,-0.064087,-0.638306,-0.787964,521
76085815,10033,-0.062134,-0.638672,-0.788452,516
76095798,9983,-0.060913,-0.638794,-0.789429,520
76105790,9992,-0.060547,-0.638916,-0.787964,512
76115772,9982,-0.060669,-0.640381,-0.788818,515
76125776,10004,-0.062134,-0.642090,-0.791870,515
76135791,10015,-0.064209,-0.642456,-0.789673,515
76145783,9992,-0.064697,-0.643921,-0.791138,515
76155789,10006,-0.065063,-0.643677,-0.790039,506
76165785,9996,-0.064453,-0.646729,-0.789673,508
76175789,10004,-0.063965,-0.648071,-0.789062,514
76185772,9983,-0.062378,-0.646362,-0.789429,513
76195796,10024,-0.064087,-0.645508,-0.788452,514
76205794,9998,-0.064331,-0.643921,-0.787476,512
76215774,9980,-0.063599,-0.645996,-0.787598,505
76225773,9999,-0.063232,-0.643555,-0.788818,512
76235781,10008,-0.063354,-0.642822,-0.786865,514
76245784,10003,-0.062866,-0.641968,-0.788940,513
76257617,11833,-0.062378,-0.644897,-0.789551,507
76281893,24276,-0.062012,-0.645020,-0.791382,514
76287306,5413,0.000000,0.000000,0.000000,513
76291506,4200,-0.063965,-0.644653,-0.789307,512
76296809,5303,-0.065308,-0.645020,-0.790161,513
76312132,15323,-0.066162,-0.642212,-0.791626,512
76318314,6182,0.000000,0.000000,0.000000,514
76325779,7465,-0.064819,-0.642944,-0.793091,514
76335789,10010,-0.061890,-0.643311,-0.790405,513
76345783,9994,-0.064575,-0.639404,-0.790161,511
76355773,9990,-0.064575,-0.641479,-0.790527,510
76376691,20918,-0.062378,-0.640015,-0.789795,511
76382247,5556,-0.061157,-0.641235,-0.791504,512
76387928,5681,0.000000,0.000000,0.000000,512
76395780,7852,-0.061279,-0.641235,-0.789917,505
76405788,10008,-0.062012,-0.643311,-0.787109,509
76415781,9993,-0.062134,-0.642456,-0.788818,501
76425779,9998,-0.064575,-0.640137,-0.785522,512
76435779,10000,-0.067017,-0.641602,-0.786133,502
76445783,10004,-0.065674,-0.641357,-0.787476,510
76455795,10012,-0.062012,-0.644287,-0.790161,511
76465791,9996,-0.061401,-0.644653,-0.791138,510
76475771,9980,-0.059082,-0.645142,-0.791260,510
76485782,10011,-0.060425,-0.646362,-0.790527,512
76495782,10000,-0.060547,-0.645508,-0.791260,511
76505788,10006,-0.063599,-0.643433,-0.790161,502
76515784,9996,-0.066772,-0.643677,-0.790039,510
76525788,10004,-0.065552,-0.644653,-0.791504,510
76535772,9984,-0.067017,-0.641724,-0.790649,511
76545797,10025,-0.066406,-0.642212,-0.790649,511
76555795,9998,-0.062866,-0.645142,-0.790283,509
76565780,9985,-0.059937,-0.643677,-0.788696,511
76575792,10012,-0.059448,-0.645386,-0.788696,510
76585773,9981,-0.063599,-0.644897,-0.790283,512
76595786,10013,-0.065308,-0.644165,-0.789062,507
76605770,9984,-0.066162,-0.641968,-0.788818,508
76615784,10014,-0.065674,-0.641479,-0.789307,506
76625825,10041,-0.064941,-0.643799,-0.789673,509
76635790,9965,-0.064941,-0.644287,-0.787598,507
76645789,9999,-0.062988,-0.643188,-0.788086,510
76655790,10001,-0.061768,-0.640259,-0.787109,511
76665797,10007,-0.062744,-0.638428,-0.787720,509
76675773,9976,-0.065430,-0.640137,-0.787720,503
76685796,10023,-0.062622,-0.640747,-0.789551,511
76695791,9995,-0.061523,-0.641846,-0.790894,512
76705776,9985,-0.059692,-0.642944,-0.789795,507
76715793,10017,-0.059814,-0.642822,-0.788330,512
76725785,9992,-0.062378,-0.643188,-0.789307,512
76735777,9992,-0.061890,-0.648926,-0.789307,506
76745784,10007,-0.064575,-0.645508,-0.787598,516
76755782,9998,-0.066284,-0.643677,-0.785767,515
76765796,10014,-0.067871,-0.644531,-0.785645,518
76802301,36505,-0.064575,-0.647949,-0.790405,521
76866334,64033,-0.065430,-0.639404,-0.786499,517
76873067,6733,-0.064209,-0.638306,-0.786377,518
76879191,6124,-0.065308,-0.638916,-0.786499,517
76885263,6072,0.000000,0.000000,0.000000,518
76890674,5411,-0.063110,-0.639160,-0.786865,514
76896938,6264,-0.066895,-0.638428,-0.786011,516
76903225,6287,0.000000,0.000000,0.000000,516
76908437,5212,-0.062744,-0.641846,-0.786621,514
76914662,6225,-0.060547,-0.641846,-0.786621,516
76921273,6611,-0.060303,-0.642334,-0.787720,516
76927514,6241,0.000000,0.000000,0.000000,516
76931656,4142,-0.061279,-0.643188,-0.789307,509
76938080,6424,-0.061157,-0.645264,-0.790283,514
76944150,6070,0.000000,0.000000,0.000000,513
76948977,4827,-0.060425,-0.647461,-0.791504,516
76955830,6853,-0.058716,-0.650269,-0.793335,511
76961810,5980,0.000000,0.000000,0.000000,511
76966094,4284,-0.060547,-0.650146,-0.792847,515
76972186,6092,-0.061890,-0.649292,-0.791016,507
76977619,5433,0.000000,0.000000,0.000000,515
76985782,8163,-0.062988,-0.651245,-0.791016,513
76995782,10000,-0.065552,-0.652100,-0.789307,507
77005790,10008,-0.067993,-0.646606,-0.785645,511
77015798,10008,-0.067383,-0.646606,-0.781860,512
77029626,13828,-0.068359,-0.645752,-0.781006,505
77035795,6169,-0.068604,-0.646973,-0.785278,512
77045779,9984,-0.066528,-0.647949,-0.786133,512
77055787,10008,-0.063843,-0.645264,-0.788940,511
77065794,10007,-0.061523,-0.645996,-0.789062,511
77075787,9993,-0.060791,-0.646118,-0.789795,512
77085799,10012,-0.060181,-0.646118,-0.788574,512
77095779,9980,-0.063965,-0.640991,-0.786255,513
77156119,60340,-0.058960,-0.646484,-0.795898,507
77161623,5504,-0.059570,-0.648071,-0.794312,514
77167129,5506,-0.067749,-0.644897,-0.791992,508
77172495,5366,0.000000,0.000000,0.000000,512
77176459,3964,-0.058838,-0.647705,-0.793945,512
77182350,5891,0.000000,0.000000,0.000000,511
77186860,4510,-0.064453,-0.652222,-0.791992,503
77193043,6183,-0.063477,-0.649536,-0.790894,513
77199242,6199,0.000000,0.000000,0.000000,512
77204311,5069,-0.067383,-0.646973,-0.790649,508
77210640,6329,-0.063354,-0.646118,-0.787598,504
77217252,6612,-0.065552,-0.646973,-0.787842,508
77225780,8528,-0.065552,-0.647095,-0.785889,511
77235776,9996,-0.065430,-0.643188,-0.785034,504
77245789,10013,-0.066895,-0.646240,-0.782837,510
77255783,9994,-0.068237,-0.642090,-0.779175,507
77265774,9991,-0.067139,-0.641968,-0.781250,507
77275790,10016,-0.065063,-0.640991,-0.780273,503
77285779,9989,-0.064697,-0.640259,-0.779419,512
77295789,10010,-0.063477,-0.638672,-0.779419,508
77305790,10001,-0.062866,-0.641235,-0.781982,510
77315791,10001,-0.065063,-0.643066,-0.783203,512
77325773,9982,-0.065063,-0.647095,-0.786255,510
77335789,10016,-0.066895,-0.648193,-0.788452,511
77345788,9999,-0.067993,-0.650391,-0.789307,512
77355778,9990,-0.066528,-0.651001,-0.787354,514
77365792,10014,-0.066040,-0.651123,-0.786255,511
77375811,10019,-0.066650,-0.649292,-0.786499,511
77385772,9961,-0.064331,-0.648682,-0.784302,509
77395794,10022,-0.065308,-0.648315,-0.783325,509
77405784,9990,-0.065063,-0.649170,-0.784790,512
77415781,9997,-0.064575,-0.648193,-0.787720,500
77425788,10007,-0.061035,-0.647583,-0.787964,503
77479310,53522,-0.065796,-0.648193,-0.786987,511
77485565,6255,0.000000,0.000000,0.000000,501
77490048,4483,-0.068726,-0.648926,-0.786255,508
77496163,6115,-0.069458,-0.648560,-0.785400,500
77502548,6385,0.000000,0.000000,0.000000,510
77507204,4656,-0.068115,-0.650391,-0.785278,511
77513407,6203,-0.067627,-0.648682,-0.784668,511
77518941,5534,0.000000,0.000000,0.000000,511
77523238,4297,-0.066772,-0.646362,-0.782959,512
77528685,5447,0.000000,0.000000,0.000000,511
77535779,7094,-0.068115,-0.646729,-0.782593,511
77545785,10006,-0.069214,-0.645874,-0.781860,505
77555776,9991,-0.070312,-0.647583,-0.784668,513
77565826,10050,-0.069214,-0.649780,-0.785156,516
77575790,9964,-0.069336,-0.649292,-0.785767,517
77585795,10005,-0.067993,-0.648560,-0.786133,518
77614874,29079,-0.064331,-0.648193,-0.785278,518
77620421,5547,0.000000,0.000000,0.000000,520
77624820,4399,-0.064087,-0.647095,-0.784302,513
77630638,5818,-0.064575,-0.645508,-0.785156,512
77636224,5586,0.000000,0.000000,0.000000,523
77645771,9547,-0.065430,-0.645752,-0.784668,513
77655793,10022,-0.065063,-0.645996,-0.783936,519
77665776,9983,-0.066528,-0.644653,-0.783325,518
77675798,10022,-0.067139,-0.644775,-0.783936,519
77685786,9988,-0.067627,-0.645386,-0.783325,517
77722565,36779,-0.062866,-0.647705,-0.784668,515
77766482,43917,-0.062744,-0.654297,-0.787109,513
77772316,5834,0.000000,0.000000,0.000000,511
77776346,4030,-0.064941,-0.653442,-0.785278,519
77782027,5681,0.000000,0.000000,0.000000,513
77786296,4269,-0.066895,-0.653564,-0.783203,511
77791967,5671,-0.066040,-0.654541,-0.782471,512
77797631,5664,0.000000,0.000000,0.000000,512
77801819,4188,-0.065918,-0.655884,-0.781250,513
77807715,5896,0.000000,0.000000,0.000000,513
77812035,4320,-0.067261,-0.655640,-0.779053,511
77817890,5855,-0.066406,-0.655151,-0.779053,512
77823632,5742,0.000000,0.000000,0.000000,513
77827902,4270,-0.067871,-0.653564,-0.778809,510
77835791,7889,-0.066528,-0.653809,-0.776489,514
77845773,9982,-0.066650,-0.649170,-0.776855,508
77855781,10008,-0.066528,-0.649780,-0.777344,514
77865797,10016,-0.065796,-0.649780,-0.777466,513
77875792,9995,-0.065063,-0.648193,-0.778320,513
77885773,9981,-0.064941,-0.645142,-0.779419,513
77895796,10023,-0.065552,-0.646851,-0.781250,505
77905789,9993,-0.062256,-0.647095,-0.786255,513
77915769,9980,-0.061157,-0.646973,-0.789307,504
77925777,10008,-0.057861,-0.650146,-0.787231,507
77935771,9994,-0.064453,-0.646973,-0.784790,503
77945813,10042,-0.065918,-0.645020,-0.784790,514
77955781,9968,-0.069580,-0.643188,-0.781982,511
77965798,10017,-0.067993,-0.644897,-0.781738,505
77975772,9974,-0.068726,-0.646484,-0.781616,510
77986939,11167,-0.071289,-0.649414,-0.776489,507
77995794,8855,-0.075562,-0.655273,-0.779907,512
78005797,10003,-0.071899,-0.651855,-0.785156,511
78015782,9985,-0.072021,-0.651489,-0.786743,512
78025778,9996,-0.076660,-0.653809,-0.786499,511
78035770,9992,-0.074829,-0.655762,-0.786255,504
78045796,10026,-0.073120,-0.656738,-0.787476,510
78055791,9995,-0.071655,-0.656494,-0.785522,503
78065796,10005,-0.072510,-0.655884,-0.785400,512
78075791,9995,-0.069458,-0.654541,-0.783813,513
78093780,17989,-0.064331,-0.653076,-0.782959,508
78101649,7869,-0.063110,-0.650635,-0.783081,514
78107607,5958,-0.064331,-0.654419,-0.782104,511
78115796,8189,-0.062256,-0.648560,-0.780762,512
78125811,10015,-0.061890,-0.645508,-0.779907,512
78135780,9969,-0.062866,-0.643921,-0.777466,506
78145785,10005,-0.063354,-0.655151,-0.779419,513
78155788,10003,-0.059814,-0.644775,-0.778198,512
78165799,10011,-0.061646,-0.650391,-0.780029,512
78175794,9995,-0.062134,-0.649780,-0.779053,514
78185796,10002,-0.066772,-0.648315,-0.780273,507
78195792,9996,-0.069580,-0.653198,-0.783081,509
78205778,9986,-0.073486,-0.655151,-0.785278,506
78215784,10006,-0.074219,-0.655151,-0.785767,509
78225787,10003,-0.074463,-0.653320,-0.785645,509
78235786,9999,-0.074951,-0.653198,-0.784424,514
78245775,9989,-0.074829,-0.653687,-0.785645,516
78255781,10006,-0.071045,-0.650513,-0.782593,514
78265770,9989,-0.070068,-0.646973,-0.783691,515
78275773,10003,-0.067993,-0.647461,-0.781982,518
78285779,10006,-0.068359,-0.646240,-0.782593,517
78295769,9990,-0.067749,-0.645508,-0.785767,519
78305803,10034,-0.066772,-0.649414,-0.785522,520
78315790,9987,-0.066895,-0.650146,-0.787109,519
78325784,9994,-0.069458,-0.654175,-0.787476,519
78335806,10022,-0.069824,-0.655518,-0.786865,522
78345785,9979,-0.073120,-0.655029,-0.785645,518
78355798,10013,-0.073730,-0.654541,-0.782837,513
78365791,9993,-0.072754,-0.651855,-0.778931,520
78375783,9992,-0.071045,-0.651245,-0.777710,520
78385797,10014,-0.069214,-0.650757,-0.777832,519
78395771,9974,-0.067627,-0.648804,-0.776489,518
78405779,10008,-0.068237,-0.646240,-0.774780,515
78415774,9995,-0.063965,-0.650024,-0.776489,517
78425780,10006,-0.062622,-0.650391,-0.779175,518
78435789,10009,-0.059814,-0.651978,-0.780640,516
78445772,9983,-0.060913,-0.651978,-0.780029,514
78455777,10005,-0.062500,-0.653442,-0.781250,515
78465783,10006,-0.064575,-0.653442,-0.780640,512
78475772,9989,-0.071655,-0.654541,-0.779663,514
78485779,10007,-0.072388,-0.653442,-0.779297,512
78495778,9999,-0.073853,-0.651978,-0.779419,512
78505796,10018,-0.075562,-0.652832,-0.780029,514
78515798,10002,-0.072266,-0.655273,-0.781250,510
78525789,9991,-0.068970,-0.653809,-0.780151,505
78535773,9984,-0.069336,-0.654419,-0.781250,504
78545772,9999,-0.067749,-0.655762,-0.782104,509
78555782,10010,-0.069214,-0.655762,-0.781494,512
78565776,9994,-0.068970,-0.653687,-0.781250,515
78575772,9996,-0.070312,-0.653687,-0.781616,513
78585793,10021,-0.069946,-0.653076,-0.781738,514
78595789,9996,-0.068481,-0.653320,-0.781738,513
78605788,9999,-0.068604,-0.652710,-0.780273,512
78615782,9994,-0.069092,-0.653442,-0.781982,506
78625787,10005,-0.067627,-0.651245,-0.783081,516
78635773,9986,-0.064575,-0.652832,-0.782471,513
78645783,10010,-0.064941,-0.651489,-0.782593,513
78655777,9994,-0.066650,-0.650879,-0.780884,515
78665784,10007,-0.067261,-0.650391,-0.777954,514
78675797,10013,-0.070679,-0.650513,-0.780273,512
78685787,9990,-0.068726,-0.652954,-0.780029,506
78695815,10028,-0.071045,-0.651001,-0.781494,513
78705788,9973,-0.070190,-0.653320,-0.784180,505
78715789,10001,-0.069580,-0.653198,-0.784302,512
78725770,9981,-0.068115,-0.655029,-0.784180,513
78735783,10013,-0.070679,-0.653564,-0.783447,512
78745775,9992,-0.073120,-0.649780,-0.779419,510
78755777,10002,-0.073975,-0.647583,-0.779175,505
78765772,9995,-0.075073,-0.646606,-0.777832,511
78775798,10026,-0.073853,-0.648926,-0.777832,511
78785770,9972,-0.071045,-0.646729,-0.777100,510
78795782,10012,-0.064087,-0.651733,-0.780029,502
78805795,10013,-0.064941,-0.653076,-0.780396,511
78815790,9995,-0.065430,-0.654297,-0.779785,505
78825779,9989,-0.067261,-0.654663,-0.778931,505
78835792,10013,-0.069824,-0.654541,-0.780640,506
78845816,10024,-0.071533,-0.654907,-0.782715,510
78855795,9979,-0.071899,-0.658936,-0.784790,504
78865776,9981,-0.069092,-0.656982,-0.784424,512
78875769,9993,-0.068115,-0.654297,-0.782349,512
78885773,10004,-0.064697,-0.655273,-0.782593,511
78895796,10023,-0.062744,-0.653809,-0.782715,513
78905788,9992,-0.066040,-0.654053,-0.780640,513
78915793,10005,-0.068237,-0.653320,-0.780762,512
78925792,9999,-0.071045,-0.652466,-0.781372,511
78935788,9996,-0.072510,-0.651611,-0.781982,505
78945791,10003,-0.071045,-0.651245,-0.783447,515
78955791,10000,-0.069702,-0.651245,-0.783691,504
78965779,9988,-0.068848,-0.649414,-0.782593,509
78975769,9990,-0.068848,-0.651123,-0.782104,512
78985774,10005,-0.067993,-0.651123,-0.782471,510
78995798,10024,-0.069946,-0.649658,-0.785400,519
79005796,9998,-0.068481,-0.653442,-0.783081,512
79015770,9974,-0.073120,-0.647339,-0.781494,522
79025814,10044,-0.068848,-0.648193,-0.782837,520
79035772,9958,-0.067505,-0.653931,-0.781372,513
79045782,10010,-0.070801,-0.653442,-0.779663,521
79055786,10004,-0.068970,-0.648193,-0.781860,513
79065793,10007,-0.068604,-0.653442,-0.781982,520
79075796,10003,-0.069580,-0.656250,-0.782715,523
79085780,9984,-0.069214,-0.657471,-0.782715,513
79095781,10001,-0.068604,-0.657959,-0.782837,521
79111905,16124,-0.069214,-0.654175,-0.778687,512
79117780,5875,-0.072388,-0.653931,-0.778320,520
79125793,8013,-0.068237,-0.654785,-0.775146,519
79135784,9991,-0.074463,-0.653076,-0.774170,514
79145779,9995,-0.074707,-0.652466,-0.775513,518
79155773,9994,-0.072266,-0.654175,-0.778809,509
79165790,10017,-0.072144,-0.657471,-0.780396,514
79175771,9981,-0.067993,-0.657104,-0.784180,507
79185798,10027,-0.065674,-0.661621,-0.786011,516
79195782,9984,-0.062744,-0.661987,-0.787231,515
79205820,10038,-0.061768,-0.659668,-0.785034,515
79215789,9969,-0.063721,-0.654419,-0.783569,516
79225786,9997,-0.065308,-0.653442,-0.782227,515
79235775,9989,-0.068359,-0.652710,-0.777954,507
79245773,9998,-0.073730,-0.651489,-0.776245,516
79255798,10025,-0.074219,-0.648193,-0.775024,512
79265796,9998,-0.075562,-0.646362,-0.774658,509
79275798,10002,-0.076416,-0.644775,-0.776123,514
79285788,9990,-0.071533,-0.646118,-0.779541,515
79295788,10000,-0.068481,-0.641846,-0.781494,514
79305769,9981,-0.065674,-0.645386,-0.784546,513
79315792,10023,-0.065186,-0.645630,-0.783569,513
79325781,9989,-0.064453,-0.645142,-0.784058,512
79335798,10017,-0.065918,-0.647339,-0.783569,514
79345786,9988,-0.068359,-0.647339,-0.784424,510
79355788,10002,-0.069702,-0.649170,-0.782837,513
79365783,9995,-0.075928,-0.652710,-0.782715,513
79375788,10005,-0.076050,-0.653442,-0.783447,512
79385793,10005,-0.077637,-0.654175,-0.782715,512
79395809,10016,-0.076538,-0.658447,-0.783447,512
79405773,9964,-0.072754,-0.659180,-0.784424,515
79415791,10018,-0.068237,-0.657593,-0.783203,512
79425779,9988,-0.064331,-0.656494,-0.785767,514
79435802,10023,-0.061768,-0.655640,-0.786133,512
79445775,9973,-0.056274,-0.653320,-0.786133,513
79455769,9994,-0.059448,-0.652100,-0.785645,514
79465775,10006,-0.063965,-0.649536,-0.783203,514
79475793,10018,-0.069580,-0.650146,-0.781128,512
79485793,10000,-0.073730,-0.649902,-0.777954,511
79495772,9979,-0.075317,-0.648804,-0.775879,514
79505778,10006,-0.077271,-0.649536,-0.776978,506
79515778,10000,-0.075806,-0.652588,-0.777344,512
79525784,10006,-0.072388,-0.652710,-0.777222,506
79535796,10012,-0.070312,-0.654175,-0.778198,509
79545778,9982,-0.065796,-0.656860,-0.779297,513
79555798,10020,-0.032593,-0.659912,-0.779663,512
79565794,9996,-0.061279,-0.656738,-0.778564,513
79575795,10001,-0.062988,-0.655396,-0.776611,515
79585789,9994,-0.064087,-0.656738,-0.776367,513
79595813,10024,-0.065308,-0.656250,-0.775635,513
79605790,9977,-0.070068,-0.652710,-0.772583,514
79615769,9979,-0.078491,-0.651611,-0.769897,513
79625770,10001,-0.081055,-0.651001,-0.770386,513
79635796,10026,-0.082397,-0.650635,-0.771973,513
79645792,9996,-0.083618,-0.650269,-0.774292,506
79655784,9992,-0.076904,-0.651733,-0.778198,509
79665790,10006,-0.064697,-0.653076,-0.782227,509
79675785,9995,-0.058350,-0.654053,-0.784302,518
79685779,9994,-0.055908,-0.651611,-0.784546,517
79695780,10001,-0.056396,-0.652588,-0.784546,517
79705787,10007,-0.060059,-0.650269,-0.785522,514
79723660,17873,-0.070435,-0.653442,-0.786987,523
79729805,6145,-0.073608,-0.653564,-0.787842,523
79737610,7805,-0.074829,-0.654541,-0.789185,524
79745794,8184,-0.073364,-0.656860,-0.789917,518
79755784,9990,-0.072266,-0.657959,-0.789429,524
79765796,10012,-0.073486,-0.655518,-0.787231,526
79775824,10028,-0.072510,-0.653809,-0.785156,513
79785793,9969,-0.072754,-0.650146,-0.782104,517
79795773,9980,-0.070312,-0.649414,-0.781494,520
79805789,10016,-0.068237,-0.651245,-0.782593,511
79815790,10001,-0.066040,-0.650635,-0.780029,513
79825779,9989,-0.064087,-0.649536,-0.777954,518
79835793,10014,-0.065430,-0.650757,-0.776367,518
79845769,9976,-0.066772,-0.651489,-0.774780,517
79855778,10009,-0.068359,-0.649536,-0.775269,519
79865782,10004,-0.069702,-0.651611,-0.776489,517
79875778,9996,-0.069092,-0.653198,-0.776978,509
79885782,10004,-0.069824,-0.657471,-0.780273,516
79895779,9997,-0.068970,-0.657959,-0.781616,516
79905782,10003,-0.068359,-0.660400,-0.782104,516
79915792,10010,-0.068970,-0.659058,-0.781860,505
79925787,9995,-0.070312,-0.662720,-0.784302,516
79935776,9989,-0.069580,-0.657593,-0.780518,512
79945771,9995,-0.075684,-0.654907,-0.776489,517
79955769,9998,-0.072876,-0.653687,-0.773437,514
79965800,10031,-0.072144,-0.653931,-0.774414,509
79975795,9995,-0.070923,-0.653198,-0.772583,513
79985789,9994,-0.069092,-0.651855,-0.771851,508
79995777,9988,-0.064209,-0.649414,-0.773437,516
80005787,10010,-0.065186,-0.645996,-0.777100,511
80015775,9988,-0.065430,-0.645142,-0.777710,514
80025778,10003,-0.065918,-0.646484,-0.779175,514
80035789,10011,-0.066895,-0.649292,-0.781006,515
80045777,9988,-0.067383,-0.652466,-0.783325,509
80055795,10018,-0.067139,-0.652832,-0.782593,514
80065772,9977,-0.068604,-0.649780,-0.779785,515
80075770,9998,-0.068359,-0.650391,-0.780396,515
80085798,10028,-0.069946,-0.649536,-0.780884,513
80095795,9997,-0.071411,-0.648560,-0.783691,514
80105795,10000,-0.071533,-0.652710,-0.786743,512
80115781,9986,-0.069580,-0.652588,-0.786621,513
80125778,9997,-0.066895,-0.654053,-0.785767,514
80135781,10003,-0.064575,-0.655762,-0.786743,515
80145819,10038,-0.063843,-0.657715,-0.788696,513
80155774,9955,-0.067017,-0.659546,-0.793213,514
80165777,10003,-0.068970,-0.659668,-0.793945,513
80175772,9995,-0.071411,-0.657471,-0.790894,509
80185778,10006,-0.072510,-0.654663,-0.789062,516
80195784,10006,-0.071411,-0.653320,-0.785767,512
80205769,9985,-0.069580,-0.649048,-0.786377,509
80215790,10021,-0.072266,-0.642944,-0.772827,512
80225777,9987,-0.074097,-0.647461,-0.772461,504
80235797,10020,-0.075073,-0.649536,-0.773193,511
80245793,9996,-0.073608,-0.650146,-0.773560,505
80255777,9984,-0.071411,-0.651733,-0.774536,512
80265785,10008,-0.062744,-0.654663,-0.775391,506
80275796,10011,-0.066162,-0.658569,-0.776001,511
80285775,9979,-0.061157,-0.656860,-0.776001,514
80295784,10009,-0.063843,-0.656006,-0.775146,513
80305772,9988,-0.063477,-0.653320,-0.778198,512
80315787,10015,-0.064819,-0.650391,-0.777588,513
80325774,9987,-0.068481,-0.650391,-0.776367,510
80335777,10003,-0.069214,-0.652588,-0.776978,516
80345781,10004,-0.068604,-0.650269,-0.775879,515
80355770,9989,-0.070312,-0.652954,-0.776489,516
80365795,10025,-0.069580,-0.652222,-0.774658,514
80375792,9997,-0.066406,-0.652832,-0.776855,516
80385791,9999,-0.064819,-0.649048,-0.778687,514
80395783,9992,-0.063965,-0.651855,-0.781372,520
80405798,10015,-0.060913,-0.654297,-0.784668,521
80415773,9975,-0.059570,-0.658203,-0.787109,514
80425779,10006,-0.059570,-0.664551,-0.788696,523
80435770,9991,-0.059570,-0.665161,-0.788452,524
80445777,10007,-0.063110,-0.665405,-0.785767,515
80455780,10003,-0.067017,-0.667236,-0.783936,516
80465784,10004,-0.069336,-0.667358,-0.782471,523
80475775,9991,-0.070557,-0.664185,-0.782837,516
80485784,10009,-0.069458,-0.659546,-0.779297,521
80495786,10002,-0.066284,-0.660278,-0.775757,518
80505789,10003,-0.066406,-0.659912,-0.770630,523
80515781,9992,-0.066895,-0.656494,-0.767212,518
80533821,18040,-0.075317,-0.649170,-0.767090,515
80539686,5865,-0.076782,-0.644287,-0.767944,518
80545794,6108,-0.075562,-0.640503,-0.768799,518
80555789,9995,-0.074463,-0.639893,-0.771118,514
80595970,40181,-0.059692,-0.653198,-0.785889,516
80601801,5831,0.000000,0.000000,0.000000,508
80606137,4336,-0.058228,-0.650391,-0.786133,505
80612329,6192,-0.062988,-0.651855,-0.785645,516
80619111,6782,0.000000,0.000000,0.000000,515
80623798,4687,-0.067749,-0.653809,-0.785522,516
80630061,6263,-0.072388,-0.654785,-0.784790,512
80696593,66532,-0.070312,-0.655396,-0.787476,515
80702133,5540,0.000000,0.000000,0.000000,514
80706360,4227,-0.066406,-0.656982,-0.786255,516
80712011,5651,0.000000,0.000000,0.000000,511
80716440,4429,-0.064087,-0.654419,-0.786743,509
80722218,5778,-0.062866,-0.654053,-0.786011,513
80727924,5706,0.000000,0.000000,0.000000,508
80732196,4272,-0.060059,-0.655396,-0.783936,506
80737787,5591,0.000000,0.000000,0.000000,515
80742165,4378,-0.061401,-0.653076,-0.782349,514
80748106,5941,-0.062134,-0.654541,-0.779419,513
80753970,5864,0.000000,0.000000,0.000000,514
80758066,4096,-0.063110,-0.655518,-0.777954,511
80765799,7733,-0.066162,-0.656372,-0.776245,510
80775795,9996,-0.067749,-0.655762,-0.773560,516
80785782,9987,-0.068481,-0.655029,-0.772461,506
80795769,9987,-0.068115,-0.657715,-0.771973,510
80805781,10012,-0.066284,-0.658569,-0.772949,507
80815798,10017,-0.063232,-0.657471,-0.774780,513
80825782,9984,-0.062378,-0.657959,-0.775757,513
80835776,9994,-0.063110,-0.657715,-0.777588,511
80845771,9995,-0.064087,-0.656982,-0.777466,514
80855770,9999,-0.065430,-0.656372,-0.776245,514
80865785,10015,-0.067749,-0.657104,-0.778320,509
80875784,9999,-0.066528,-0.658447,-0.777710,514
80885778,9994,-0.066772,-0.656860,-0.776611,514
80895784,10006,-0.068481,-0.656494,-0.778687,512
80905776,9992,-0.068481,-0.657959,-0.778076,510
80915787,10011,-0.069214,-0.655273,-0.777954,513
80925798,10011,-0.068481,-0.656738,-0.779663,513
80935797,9999,-0.066162,-0.658813,-0.782837,513
80945787,9990,-0.064453,-0.659424,-0.784546,505
80955792,10005,-0.062500,-0.658203,-0.783325,512
80965772,9980,-0.060913,-0.658447,-0.781494,513
80975789,10017,-0.066162,-0.656128,-0.778320,516
80985776,9987,-0.067749,-0.654297,-0.779053,513
80995786,10010,-0.069702,-0.653442,-0.778198,508
81005774,9988,-0.072144,-0.654785,-0.778076,516
81015785,10011,-0.072021,-0.655640,-0.778198,512
81025771,9986,-0.070312,-0.653442,-0.774170,514
81045306,19535,-0.070679,-0.651489,-0.773682,507
81050899,5593,0.000000,0.000000,0.000000,515
81055796,4897,-0.069458,-0.653320,-0.773804,514
81065775,9979,-0.069092,-0.652832,-0.772095,517
81075782,10007,-0.067627,-0.650146,-0.773437,514
81085784,10002,-0.064453,-0.651978,-0.773804,518
81095798,10014,-0.062988,-0.654297,-0.775269,522
81105788,9990,-0.062622,-0.653809,-0.775391,523
81115779,9991,-0.061768,-0.656494,-0.776123,515
81125786,10007,-0.063843,-0.656616,-0.777954,523
81135773,9987,-0.063599,-0.653076,-0.781738,525
81145780,10007,-0.067749,-0.661621,-0.782959,522
81155792,10012,-0.067139,-0.659668,-0.782104,523
81165794,10002,-0.071655,-0.660645,-0.784058,521
81175791,9997,-0.066162,-0.663574,-0.783936,517
81185786,9995,-0.067261,-0.659424,-0.780518,521
81195776,9990,-0.068359,-0.657349,-0.780762,520
81205783,10007,-0.068359,-0.655884,-0.777588,511
81215788,10005,-0.067627,-0.652710,-0.778320,517
81225778,9990,-0.072632,-0.656616,-0.776611,509
81235769,9991,-0.066895,-0.655273,-0.777100,508
81245824,10055,-0.066772,-0.654663,-0.777954,516
81255792,9968,-0.067017,-0.654907,-0.779663,506
81265781,9989,-0.066284,-0.656860,-0.781616,514
81275783,10002,-0.067871,-0.657227,-0.780884,511
81285770,9987,-0.066895,-0.656128,-0.779053,513
81295779,10009,-0.067383,-0.657715,-0.778198,506
81305790,10011,-0.067017,-0.661133,-0.778198,513
81315774,9984,-0.067505,-0.656250,-0.777100,513
81325787,10013,-0.069214,-0.659058,-0.779053,507
81335793,10006,-0.069092,-0.659546,-0.780273,513
81345770,9977,-0.069702,-0.659302,-0.780640,514
81355788,10018,-0.067261,-0.659302,-0.777588,508
81365791,10003,-0.065918,-0.658203,-0.777466,514
81375796,10005,-0.064453,-0.657837,-0.775269,512
81385781,9985,-0.062988,-0.655273,-0.774414,516
81395779,9998,-0.062866,-0.655762,-0.774170,514
81405776,9997,-0.064087,-0.654663,-0.776733,514
81415793,10017,-0.064575,-0.654663,-0.777710,514
81425786,9993,-0.065552,-0.654785,-0.777344,511
81435770,9984,-0.066406,-0.655884,-0.778442,513
81445796,10026,-0.067017,-0.655396,-0.777954,508
81455775,9979,-0.067017,-0.654297,-0.779053,512
81465791,10016,-0.070190,-0.654785,-0.778931,513
81475796,10005,-0.068237,-0.656128,-0.780029,507
81485772,9976,-0.069702,-0.654297,-0.779297,505
81495770,9998,-0.067749,-0.653931,-0.779175,505
81505792,10022,-0.066406,-0.654175,-0.780762,514
81515776,9984,-0.066528,-0.653564,-0.778687,512
81525774,9998,-0.066650,-0.654419,-0.779419,508
81535788,10014,-0.067383,-0.654541,-0.779541,512
81545775,9987,-0.067017,-0.655762,-0.780029,513
81555777,10002,-0.065186,-0.656494,-0.780640,514
81565773,9996,-0.066650,-0.656372,-0.781982,513
81575774,10001,-0.065552,-0.659180,-0.781372,508
81585787,10013,-0.067261,-0.657471,-0.778198,513
81595806,10019,-0.069214,-0.656982,-0.777466,512
81605793,9987,-0.068115,-0.657837,-0.777344,511
81615797,10004,-0.067871,-0.657104,-0.777344,512
81625772,9975,-0.068115,-0.656006,-0.776001,512
81635787,10015,-0.065918,-0.656494,-0.776978,511
81645795,10008,-0.063110,-0.654053,-0.776855,512
81655781,9986,-0.064575,-0.653198,-0.777344,511
81665779,9998,-0.064575,-0.654785,-0.778687,514
81675780,10001,-0.064087,-0.654419,-0.777832,510
81685785,10005,-0.065552,-0.654785,-0.777588,512
81695798,10013,-0.064453,-0.655273,-0.778076,512
81705788,9990,-0.065674,-0.656372,-0.777954,514
81715787,9999,-0.066040,-0.656860,-0.775513,507
81725783,9996,-0.067749,-0.655396,-0.777222,516
81735795,10012,-0.067383,-0.657349,-0.778076,511
81745773,9978,-0.068848,-0.657227,-0.776855,519
81755799,10026,-0.069824,-0.657593,-0.777954,519
81765796,9997,-0.068726,-0.658325,-0.778564,524
81775813,10017,-0.069580,-0.655884,-0.778076,522
81785798,9985,-0.067505,-0.656006,-0.777588,518
81795791,9993,-0.066162,-0.657593,-0.778442,523
81805791,10000,-0.063477,-0.657471,-0.781006,521
81815808,10017,-0.064209,-0.657227,-0.780762,524
81825786,9978,-0.064819,-0.654175,-0.780273,521
81835770,9984,-0.064453,-0.655640,-0.781616,522
81845772,10002,-0.066040,-0.656860,-0.780518,516
81855769,9997,-0.067017,-0.656616,-0.776855,511
81865792,10023,-0.067627,-0.654053,-0.775391,518
81875798,10006,-0.067383,-0.653687,-0.774658,520
81885781,9983,-0.067627,-0.653687,-0.773926,518
81895793,10012,-0.066406,-0.654175,-0.775879,506
81905786,9993,-0.065430,-0.653564,-0.776978,507
81915775,9989,-0.063721,-0.656616,-0.778076,514
81925775,10000,-0.062866,-0.657471,-0.780151,507
81935777,10002,-0.062622,-0.658081,-0.780273,511
81945772,9995,-0.063110,-0.658081,-0.779663,513
81963980,18208,-0.065308,-0.661255,-0.779907,514
81970168,6188,0.000000,0.000000,0.000000,514
81975789,5621,-0.067627,-0.660278,-0.780273,516
81985773,9984,-0.068237,-0.660767,-0.779663,512
81995770,9997,-0.069580,-0.657715,-0.777832,505
82005788,10018,-0.070557,-0.654297,-0.773193,514
82015788,10000,-0.069214,-0.654907,-0.772949,516
82025782,9994,-0.067871,-0.655518,-0.773560,511
82035785,10003,-0.063477,-0.655762,-0.774292,509
82045796,10011,-0.061768,-0.654541,-0.775757,511
82056268,10472,-0.060425,-0.658081,-0.779663,517
82065771,9503,-0.061890,-0.657471,-0.781616,508
82075777,10006,-0.061646,-0.656250,-0.781982,514
82085791,10014,-0.064087,-0.655762,-0.782593,516
82095774,9983,-0.065308,-0.658569,-0.780884,516
82105777,10003,-0.066650,-0.657471,-0.779419,516
82115786,10009,-0.067871,-0.659668,-0.776855,515
82125812,10026,-0.068604,-0.658325,-0.776855,514
82135798,9986,-0.068604,-0.656616,-0.775757,515
82145772,9974,-0.067261,-0.655151,-0.776367,507
82155782,10010,-0.067871,-0.654175,-0.777588,508
82165771,9989,-0.063354,-0.656616,-0.778442,505
82175788,10017,-0.063232,-0.654663,-0.777954,509
82185796,10008,-0.064331,-0.654907,-0.777954,506
82195792,9996,-0.064941,-0.653931,-0.778320,512
82205777,9985,-0.066528,-0.654907,-0.779053,509
82215772,9995,-0.065430,-0.656982,-0.779785,507
82225779,10007,-0.066406,-0.656738,-0.778931,511
82235790,10011,-0.067505,-0.657349,-0.779541,511
82245784,9994,-0.067261,-0.657104,-0.778076,512
82255781,9997,-0.068237,-0.657471,-0.775635,512
82265774,9993,-0.069702,-0.657593,-0.774658,510
82275788,10014,-0.069580,-0.656494,-0.775391,511
82285780,9992,-0.067871,-0.657471,-0.776855,505
82295786,10006,-0.065918,-0.657593,-0.777466,506
82305796,10010,-0.062866,-0.656860,-0.779053,510
82315779,9983,-0.060669,-0.658325,-0.780273,513
82325786,10007,-0.060913,-0.657593,-0.781616,506
82335782,9996,-0.064209,-0.658325,-0.780396,509
82345773,9991,-0.065308,-0.656128,-0.779907,507
82355778,10005,-0.066528,-0.656372,-0.780029,512
82365789,10011,-0.066895,-0.657715,-0.777710,514
82375774,9985,-0.066650,-0.658691,-0.777222,513
82385779,10005,-0.067017,-0.656494,-0.773926,506
82395797,10018,-0.067505,-0.654663,-0.772949,515
82405770,9973,-0.068237,-0.654053,-0.773560,517
82415794,10024,-0.067871,-0.654785,-0.773682,511
82425794,10000,-0.068237,-0.654419,-0.775513,521
82435777,9983,-0.066284,-0.655518,-0.777954,522
82445771,9994,-0.065063,-0.657227,-0.777832,515
82455795,10024,-0.063354,-0.657715,-0.780396,519
82465795,10000,-0.063354,-0.657471,-0.779297,523
82475794,9999,-0.065308,-0.656738,-0.779175,520
82485780,9986,-0.067749,-0.655518,-0.778687,517
82495775,9995,-0.069580,-0.653931,-0.777222,518
82505769,9994,-0.068970,-0.654663,-0.778198,522
82515794,10025,-0.067871,-0.656006,-0.779175,521
82525779,9985,-0.067139,-0.657593,-0.777954,518
82535770,9991,-0.067505,-0.657593,-0.776855,512
82545780,10010,-0.063477,-0.658203,-0.778687,511
82555786,10006,-0.064697,-0.659912,-0.778076,517
82565787,10001,-0.062500,-0.658447,-0.777100,514
82575789,10002,-0.063599,-0.656860,-0.779053,517
82585777,9988,-0.064453,-0.658203,-0.778931,514
82595789,10012,-0.065918,-0.657471,-0.779175,507
82605790,10001,-0.066284,-0.661133,-0.777588,514
82615788,9998,-0.065918,-0.660400,-0.778442,514
82625776,9988,-0.066772,-0.658691,-0.777100,507
82635787,10011,-0.066040,-0.659668,-0.775269,514
82645773,9986,-0.067505,-0.660156,-0.774292,514
82655778,10005,-0.066162,-0.659302,-0.776001,507
82665804,10026,-0.065674,-0.658691,-0.774414,514
82675789,9985,-0.064575,-0.657959,-0.773804,514
82685777,9988,-0.064331,-0.658325,-0.775513,508
82695794,10017,-0.063354,-0.657959,-0.776611,512
82705803,10009,-0.065796,-0.655640,-0.776611,515
82715779,9976,-0.065186,-0.657837,-0.778442,514
82725785,10006,-0.066528,-0.657104,-0.777588,516
82735779,9994,-0.066772,-0.656738,-0.777588,515
82745795,10016,-0.066650,-0.658203,-0.777954,514
82755782,9987,-0.066406,-0.656982,-0.776855,515
82765790,10008,-0.066772,-0.656128,-0.777344,514
82775783,9993,-0.064941,-0.656250,-0.777222,513
82785787,10004,-0.065552,-0.656982,-0.778198,515
82795775,9988,-0.064575,-0.656982,-0.778687,514
82805773,9998,-0.063354,-0.657104,-0.780151,504
82815775,10002,-0.062134,-0.657715,-0.781494,504
82825796,10021,-0.064819,-0.657593,-0.780273,513
82835782,9986,-0.066284,-0.656128,-0.780396,512
82845805,10023,-0.065308,-0.658691,-0.779419,513
82855781,9976,-0.066284,-0.656494,-0.777710,513
82865773,9992,-0.068848,-0.656006,-0.777344,504
82875783,10010,-0.067017,-0.655762,-0.776367,510
82885771,9988,-0.064819,-0.658203,-0.778687,513
82895784,10013,-0.066162,-0.657593,-0.776245,512
82905798,10014,-0.067017,-0.659790,-0.776001,511
82915798,10000,-0.066650,-0.658325,-0.774170,513
82925797,9999,-0.066895,-0.658447,-0.773560,511
82935774,9977,-0.070923,-0.656860,-0.772949,506
82945793,10019,-0.068237,-0.658813,-0.774048,513
82955787,9994,-0.068604,-0.661987,-0.776733,504
82965775,9988,-0.065918,-0.661499,-0.776123,511
82975797,10022,-0.062866,-0.658203,-0.776245,513
82985785,9988,-0.059814,-0.658203,-0.778809,512
82995783,9998,-0.060669,-0.658936,-0.779541,514
83005777,9994,-0.062134,-0.657715,-0.778564,512
83015784,10007,-0.065674,-0.657471,-0.779175,512
83025793,10009,-0.066406,-0.658081,-0.778931,505
83035824,10031,-0.067139,-0.655640,-0.777954,515
83045787,9963,-0.067505,-0.655884,-0.777588,515
83055794,10007,-0.065796,-0.658569,-0.777710,508
83065786,9992,-0.066650,-0.660400,-0.774536,518
83075772,9986,-0.065430,-0.661377,-0.773804,518
83085774,10002,-0.067017,-0.658325,-0.774414,520
83095771,9997,-0.066895,-0.656738,-0.772461,516
83105780,10009,-0.066528,-0.656372,-0.773560,522
83115791,10011,-0.065186,-0.657593,-0.775757,522
83125798,10007,-0.064331,-0.656372,-0.775757,523
83135775,9977,-0.064819,-0.654175,-0.774170,521
83145783,10008,-0.066650,-0.653076,-0.774414,521
83155769,9986,-0.067627,-0.650146,-0.773560,518
83165799,10030,-0.069824,-0.649902,-0.772095,520
83175791,9992,-0.073730,-0.649902,-0.772583,519
83185796,10005,-0.080200,-0.657593,-0.765503,517
83195792,9996,-0.063477,-0.655151,-0.773804,515
83205776,9984,-0.057129,-0.645508,-0.774658,515
83215801,10025,-0.058716,-0.651245,-0.769897,506
83225797,9996,-0.053467,-0.648315,-0.768433,510
83235778,9981,-0.053101,-0.646240,-0.766357,509
83245793,10015,-0.066528,-0.659424,-0.767578,509
83255794,10001,-0.056030,-0.657349,-0.770630,502
83265786,9992,-0.060303,-0.644897,-0.776367,505
83275773,9987,-0.055786,-0.653076,-0.787476,504
83285782,10009,-0.065430,-0.644775,-0.798950,501
83295776,9994,-0.054443,-0.685913,-0.795532,499
83305798,10022,-0.055786,-0.664429,-0.801392,496
83315794,9996,-0.054077,-0.656250,-0.799683,494
83325775,9981,-0.058716,-0.652832,-0.802612,502
83335787,10012,-0.055420,-0.658447,-0.797119,500
83345773,9986,-0.073853,-0.655884,-0.794067,499
83355781,10008,-0.070190,-0.645386,-0.791504,500
83365792,10011,-0.069336,-0.635498,-0.791382,493
83375787,9995,-0.063354,-0.631104,-0.795654,507
83385770,9983,-0.055054,-0.639160,-0.802002,499
83395806,10036,-0.050659,-0.639404,-0.797485,496
83405796,9990,-0.052124,-0.645996,-0.796509,490
83415770,9974,-0.054321,-0.641235,-0.795776,496
83425787,10017,-0.057129,-0.641846,-0.796143,494
83435811,10024,-0.064209,-0.644775,-0.797607,497
83445782,9971,-0.060303,-0.645996,-0.799805,496
83455781,9999,-0.058350,-0.638794,-0.803955,493
83465772,9991,-0.051514,-0.639404,-0.798096,492
83475797,10025,-0.054077,-0.643921,-0.799683,502
83485772,9975,-0.053589,-0.650757,-0.797607,501
83495780,10008,-0.055542,-0.642334,-0.796143,500
83505781,10001,-0.055176,-0.637939,-0.794800,500
83515784,10003,-0.052979,-0.637207,-0.789429,494
83525777,9993,-0.053467,-0.627930,-0.793701,492
83535781,10004,-0.049316,-0.629517,-0.800781,488
83545797,10016,-0.048218,-0.646606,-0.802856,497
83555784,9987,-0.047607,-0.641235,-0.821411,495
83565792,10008,-0.012573,-0.575073,-0.813965,486
83575794,10002,-0.094116,-0.647339,-0.733643,490
83585774,9980,-0.020630,-0.584473,-0.808228,482
83595799,10025,-0.069824,-0.656494,-0.802979,491
83605783,9984,-0.050171,-0.712646,-0.816772,484
83615798,10015,-0.046143,-0.638794,-0.803345,486
83625793,9995,-0.052734,-0.622070,-0.795532,488
83635788,9995,-0.033081,-0.650146,-0.772583,481
83645790,10002,-0.039185,-0.557129,-0.773193,481
83655775,9985,-0.040527,-0.665405,-0.792847,493
83665790,10015,-0.026611,-0.681519,-0.788696,495
83675791,10001,-0.046021,-0.646484,-0.788452,490
83685793,10002,-0.044312,-0.617187,-0.785645,501
83695786,9993,-0.038086,-0.634888,-0.791870,505
83705778,9992,-0.041016,-0.651978,-0.800659,506
83715773,9995,-0.040894,-0.647217,-0.807495,500
83725774,10001,-0.037476,-0.629517,-0.806274,512
83735785,10011,-0.040039,-0.623657,-0.812622,513
83745795,10010,-0.051392,-0.625854,-0.808472,513
83755814,10019,-0.055908,-0.629883,-0.806641,509
83765789,9975,-0.058838,-0.625000,-0.808228,520
83775795,10006,-0.059692,-0.609009,-0.812134,522
83785794,9999,-0.061035,-0.600830,-0.812256,518
83795769,9975,-0.052734,-0.621826,-0.805664,524
83805774,10005,-0.045654,-0.624878,-0.801880,525
83815789,10015,-0.042236,-0.618286,-0.803467,524
83825781,9992,-0.041382,-0.611450,-0.809082,519
83835791,10010,-0.042603,-0.611816,-0.812378,515
83845789,9998,-0.043823,-0.617187,-0.807007,521
83855797,10008,-0.047363,-0.617676,-0.808105,523
83865792,9995,-0.045898,-0.616577,-0.804810,519
83875769,9977,-0.043213,-0.617920,-0.800171,518
83897494,21725,-0.041504,-0.631470,-0.787109,509
83903496,6002,0.000000,0.000000,0.000000,515
83908747,5251,-0.041992,-0.627441,-0.779785,516
83915781,7034,-0.041504,-0.626099,-0.785156,515
83925783,10002,-0.047241,-0.627319,-0.792358,505
83935781,9998,-0.048462,-0.632446,-0.802368,514
83945796,10015,-0.042969,-0.635742,-0.806519,513
83955779,9983,-0.040649,-0.645874,-0.825439,505
83965785,10006,-0.022095,-0.626343,-0.785278,504
83975795,10010,-0.018311,-0.623657,-0.775391,512
83985787,9992,-0.030029,-0.630249,-0.803955,511
83995793,10006,-0.040405,-0.639771,-0.809937,511
84005782,9989,-0.042236,-0.643311,-0.799561,510
84015775,9993,-0.047607,-0.628174,-0.794434,507
84025769,9994,-0.045532,-0.631592,-0.797485,512
84035783,10014,-0.043457,-0.633179,-0.799927,506
84045772,9989,-0.038696,-0.627808,-0.798584,512
84055773,10001,-0.036011,-0.623779,-0.799561,513
84065789,10016,-0.032715,-0.625732,-0.808105,514
84075781,9992,-0.033203,-0.622681,-0.807739,508
84085795,10014,-0.031494,-0.618530,-0.803345,517
84095781,9986,-0.032593,-0.613281,-0.800659,511
84105769,9988,-0.035645,-0.607788,-0.801392,509
84115775,10006,-0.040161,-0.606079,-0.807129,518
84125772,9997,-0.040649,-0.610229,-0.813354,511
84135786,10014,-0.037720,-0.610229,-0.812988,515
84145786,10000,-0.035278,-0.611206,-0.810303,515
84155769,9983,-0.035645,-0.613525,-0.809937,514
84165771,10002,-0.036743,-0.619629,-0.812134,510
84175800,10029,-0.039551,-0.621704,-0.814941,514
84185789,9989,-0.046021,-0.619629,-0.813599,505
84200207,14418,-0.045288,-0.621216,-0.818359,515
84206306,6099,-0.045898,-0.619629,-0.814575,513
84215794,9488,-0.045898,-0.622070,-0.816406,514
84225795,10001,-0.040283,-0.626221,-0.815430,511
84235773,9978,-0.036743,-0.630371,-0.814819,513
84245771,9998,-0.037231,-0.626709,-0.812988,512
84255780,10009,-0.038452,-0.620850,-0.809326,514
84265795,10015,-0.045898,-0.617310,-0.810425,506
84275796,10001,-0.048950,-0.609619,-0.815552,513
84285777,9981,-0.048218,-0.603394,-0.814697,514
84295797,10020,-0.041748,-0.606079,-0.809448,511
84305790,9993,-0.036987,-0.608765,-0.808472,512
84315790,10000,-0.036255,-0.611206,-0.808228,506
84325815,10025,-0.035156,-0.613770,-0.802368,513
84335778,9963,-0.033447,-0.612305,-0.801147,514
84345792,10014,-0.042969,-0.601074,-0.804199,509
84355784,9992,-0.045410,-0.599365,-0.805908,516
84365769,9985,-0.045044,-0.599731,-0.810547,515
84375772,10003,-0.043701,-0.601807,-0.814087,520
84385771,9999,-0.042358,-0.605347,-0.811401,519
84395789,10018,-0.038574,-0.617310,-0.813110,523
84405797,10008,-0.038452,-0.619629,-0.815552,515
84415795,9998,-0.038940,-0.620972,-0.813599,518
84425791,9996,-0.042847,-0.619873,-0.812744,516
84435774,9983,-0.044067,-0.616333,-0.815308,520
84445785,10011,-0.046753,-0.615601,-0.817749,524
84455789,10004,-0.039429,-0.617187,-0.818970,524
84465798,10009,-0.036499,-0.622070,-0.816406,519
84475774,9976,-0.033203,-0.626709,-0.811768,523
84485771,9997,-0.031860,-0.628174,-0.806030,521
84495773,10002,-0.035278,-0.625854,-0.801025,518
84505821,10048,-0.041016,-0.617310,-0.798706,521
84515790,9969,-0.043457,-0.614014,-0.795288,514
84525769,9979,-0.045654,-0.613281,-0.793945,519
84535792,10023,-0.044067,-0.614258,-0.798218,513
84545783,9991,-0.040283,-0.613281,-0.811646,516
84555791,10008,-0.036377,-0.613403,-0.819214,507
84565786,9995,-0.028564,-0.614624,-0.815796,516
84575786,10000,-0.028687,-0.617432,-0.817017,509
84585786,10000,-0.031128,-0.615601,-0.820679,513
84595788,10002,-0.032349,-0.613403,-0.820190,515
84605775,9987,-0.037476,-0.610107,-0.817261,516
84615780,10005,-0.048096,-0.611572,-0.812378,511
84625789,10009,-0.052002,-0.615112,-0.813965,516
84635791,10002,-0.049927,-0.619507,-0.816040,517
84645787,9996,-0.047852,-0.621460,-0.816650,509
84655785,9998,-0.039917,-0.625488,-0.816528,517
84665792,10007,-0.021851,-0.642212,-0.804687,517
84675807,10015,-0.018311,-0.645508,-0.795166,516
84685772,9965,-0.027222,-0.637939,-0.784546,516
84695776,10004,-0.042480,-0.621216,-0.783325,509
84709375,13599,-0.070435,-0.591064,-0.795654,508
84715806,6431,0.000000,0.000000,0.000000,515
84725780,9974,-0.065918,-0.592041,-0.808960,513
84735775,9995,-0.053467,-0.604370,-0.818115,511
84745778,10003,-0.038818,-0.620117,-0.821533,511
84755772,9994,-0.023193,-0.633301,-0.823364,515
84765797,10025,-0.013672,-0.635742,-0.821899,515
84775770,9973,-0.022095,-0.629639,-0.829102,516
84785776,10006,-0.031128,-0.620972,-0.822632,515
84795769,9993,-0.037354,-0.610107,-0.814819,514
84805770,10001,-0.044922,-0.600830,-0.809448,514
84815780,10010,-0.048096,-0.600342,-0.800659,512
84825792,10012,-0.045044,-0.602295,-0.794434,510
84835769,9977,-0.040161,-0.606445,-0.791016,514
84845790,10021,-0.039917,-0.611084,-0.797974,513
84855779,9989,-0.038696,-0.617798,-0.803345,513
84865779,10000,-0.035400,-0.620361,-0.807495,512
84875769,9990,-0.030884,-0.620972,-0.811890,514
84885771,10002,-0.028320,-0.618164,-0.824219,513
84895797,10026,-0.026245,-0.616577,-0.827148,514
84905776,9979,-0.023926,-0.614990,-0.821411,515
84915772,9996,-0.028442,-0.616455,-0.817505,506
84925772,10000,-0.033569,-0.618042,-0.817749,505
84935779,10007,-0.042114,-0.618774,-0.812378,514
84945798,10019,-0.048340,-0.615601,-0.806396,516
84955791,9993,-0.046875,-0.614746,-0.804077,515
84965778,9987,-0.048096,-0.616089,-0.802490,508
84975794,10016,-0.046753,-0.618774,-0.802246,515
84985783,9989,-0.045288,-0.625122,-0.803345,518
84995787,10004,-0.038818,-0.625854,-0.812500,518
85005781,9994,-0.036255,-0.621948,-0.811035,520
85015781,10000,-0.037231,-0.619507,-0.807495,517
85025780,9999,-0.040161,-0.617554,-0.813965,523
85035815,10035,-0.040649,-0.615234,-0.818970,515
85045783,9968,-0.044067,-0.611206,-0.820190,524
85095519,49736,-0.030273,-0.616333,-0.814941,524
85101398,5879,-0.031982,-0.617920,-0.814453,526
85107296,5898,-0.031128,-0.619507,-0.809570,516
85112863,5567,0.000000,0.000000,0.000000,516
85117036,4173,-0.034790,-0.619385,-0.807739,521
85138335,21299,-0.037109,-0.609741,-0.800659,519
85143901,5566,-0.039795,-0.608032,-0.800293,515
85149742,5841,-0.038696,-0.609497,-0.801025,511
85155277,5535,0.000000,0.000000,0.000000,519
85159592,4315,-0.035889,-0.610107,-0.801758,520
85165394,5802,-0.034790,-0.613403,-0.801880,511
85170786,5392,0.000000,0.000000,0.000000,520
85175776,4990,-0.033203,-0.612549,-0.804932,518
85185770,9994,-0.031982,-0.613770,-0.808838,515
85195796,10026,-0.033081,-0.615356,-0.810669,517
85205787,9991,-0.034912,-0.617920,-0.811523,511
85215789,10002,-0.039551,-0.612549,-0.813232,517
85225804,10015,-0.042603,-0.610840,-0.813232,516
85235775,9971,-0.044312,-0.614380,-0.812622,512
85245796,10021,-0.044189,-0.617676,-0.814209,517
85255793,9997,-0.043945,-0.620972,-0.814575,516
85265799,10006,-0.043457,-0.625244,-0.808472,510
85275805,10006,-0.043335,-0.625732,-0.813843,510
85285781,9976,-0.041870,-0.621948,-0.817261,515
85295794,10013,-0.038818,-0.619873,-0.816528,510
85305789,9995,-0.035400,-0.619629,-0.813599,512
85315769,9980,-0.034424,-0.621094,-0.810181,515
85325796,10027,-0.033813,-0.623413,-0.804443,516
85350285,24489,-0.038818,-0.611938,-0.804443,508
85355771,5486,0.000000,0.000000,0.000000,511
85360248,4477,-0.038208,-0.610352,-0.804321,515
85365931,5683,0.000000,0.000000,0.000000,507
85375797,9866,-0.035034,-0.611694,-0.806030,507
85385783,9986,-0.032349,-0.614624,-0.808228,507
85395794,10011,-0.028564,-0.617432,-0.807373,510
85405771,9977,-0.030518,-0.621216,-0.806885,524
85415820,10049,-0.031494,-0.622925,-0.805908,508
85425785,9965,-0.033936,-0.622803,-0.804932,512
85435775,9990,-0.039551,-0.618408,-0.803833,515
85445796,10021,-0.039551,-0.616089,-0.805420,506
85455775,9979,-0.037231,-0.614990,-0.807373,512
85465778,10003,-0.034424,-0.619873,-0.808716,514
85475781,10003,-0.031982,-0.624634,-0.806519,509
85485778,9997,-0.032104,-0.630615,-0.804810,513
85495783,10005,-0.036621,-0.628540,-0.803955,505
85505784,10001,-0.042358,-0.622437,-0.806763,505
85515792,10008,-0.046875,-0.617065,-0.809570,512
85525770,9978,-0.047241,-0.611450,-0.816040,514
85535775,10005,-0.044678,-0.611816,-0.820312,512
85545790,10015,-0.035034,-0.614258,-0.818481,514
85555789,9999,-0.031128,-0.618530,-0.813477,513
85565789,10000,-0.033569,-0.622437,-0.817261,514
85575797,10008,-0.036255,-0.623291,-0.820801,507
85585795,9998,-0.040161,-0.621338,-0.817871,511
85595774,9979,-0.043701,-0.621826,-0.804321,516
85605776,10002,-0.045288,-0.621216,-0.805420,515
85615794,10018,-0.043335,-0.621704,-0.804810,514
85625771,9977,-0.036865,-0.621338,-0.808350,518
85635788,10017,-0.032471,-0.617676,-0.809448,516
85645780,9992,-0.029541,-0.607422,-0.806152,519
85655796,10016,-0.031128,-0.607056,-0.802612,519
85665794,9998,-0.036133,-0.605347,-0.805786,516
85675783,9989,-0.039673,-0.603638,-0.813110,522
85685773,9990,-0.040527,-0.600830,-0.817627,517
85695777,10004,-0.036621,-0.601929,-0.815674,520
85705796,10019,-0.032349,-0.613647,-0.815552,526
85715794,9998,-0.035889,-0.619019,-0.818604,517
85725773,9979,-0.036011,-0.621704,-0.821533,519
85735790,10017,-0.038208,-0.620728,-0.820068,521
85745787,9997,-0.039185,-0.621460,-0.810913,520
85755784,9997,-0.043457,-0.621704,-0.804932,524
85765789,10005,-0.046631,-0.616699,-0.804810,521
85775780,9991,-0.047607,-0.614502,-0.801392,520
85785791,10011,-0.047729,-0.615845,-0.799927,518
85795805,10014,-0.046753,-0.618530,-0.803467,522
85805784,9979,-0.042358,-0.618652,-0.808350,512
85815770,9986,-0.033569,-0.611328,-0.813599,518
85825781,10011,-0.027466,-0.613281,-0.812256,518
85835772,9991,-0.027222,-0.615967,-0.811401,516
85845797,10025,-0.026978,-0.618042,-0.811768,514
85855796,9999,-0.029419,-0.616089,-0.811523,508
85865795,9999,-0.033691,-0.611450,-0.804932,516
85875791,9996,-0.035767,-0.615356,-0.801636,512
85885769,9978,-0.038452,-0.619141,-0.805298,516
85895793,10024,-0.037842,-0.623169,-0.809326,514
85905791,9998,-0.035645,-0.623779,-0.808105,514
85915789,9998,-0.036865,-0.625122,-0.809692,516
85925791,10002,-0.043091,-0.619629,-0.816040,509
85935790,9999,-0.044922,-0.613525,-0.817017,509
85945786,9996,-0.044678,-0.610718,-0.816772,511
85955770,9984,-0.045654,-0.613770,-0.818726,514
85965786,10016,-0.041870,-0.613525,-0.823608,507
85975787,10001,-0.035889,-0.612061,-0.817871,514
85985792,10005,-0.033813,-0.611694,-0.814087,517
85995789,9997,-0.033203,-0.614624,-0.813110,508
86005772,9983,-0.033936,-0.615356,-0.817017,511
86015795,10023,-0.034546,-0.612671,-0.817871,508
86025784,9989,-0.033447,-0.609741,-0.810181,517
86035774,9990,-0.036255,-0.614258,-0.810181,513
86045788,10014,-0.036255,-0.619873,-0.810547,514
86055784,9996,-0.036743,-0.623657,-0.805420,513
86065787,10003,-0.037109,-0.626831,-0.800781,513
86075781,9994,-0.037354,-0.630127,-0.793823,513
86085797,10016,-0.049438,-0.628296,-0.792358,512
86095793,9996,-0.051392,-0.624512,-0.793823,504
86105783,9990,-0.051880,-0.618652,-0.796021,513
86115795,10012,-0.050415,-0.615112,-0.797241,512
86125793,9998,-0.044312,-0.615723,-0.799683,512
86135797,10004,-0.031616,-0.618530,-0.813232,503
86145784,9987,-0.028931,-0.617310,-0.814819,512
86155788,10004,-0.027832,-0.615234,-0.816040,508
86165788,10000,-0.030151,-0.616943,-0.816406,511
86190817,25029,-0.040405,-0.615112,-0.808594,512
86196443,5626,-0.041748,-0.611206,-0.804932,512
86202137,5694,0.000000,0.000000,0.000000,510
86206408,4271,-0.041016,-0.610474,-0.803101,505
86215793,9385,-0.041748,-0.611816,-0.806885,513
86225789,9996,-0.035522,-0.613525,-0.809448,507
86235781,9992,-0.032471,-0.613159,-0.809448,513
86245776,9995,-0.029541,-0.622437,-0.811279,514
86255799,10023,-0.030029,-0.623779,-0.815308,512
86265797,9998,-0.032349,-0.624634,-0.816040,510
86275796,9999,-0.036377,-0.625488,-0.813232,505
86285788,9992,-0.040527,-0.624023,-0.814453,512
86295782,9994,-0.043701,-0.622559,-0.815674,506
86305796,10014,-0.039307,-0.577759,-0.798950,513
86315790,9994,-0.043701,-0.587524,-0.788574,512
86325797,10007,-0.049927,-0.620483,-0.814087,512
86335776,9979,-0.043457,-0.619019,-0.806519,508
86345781,10005,-0.035156,-0.573853,-0.761719,512
86355789,10008,-0.020508,-0.665894,-0.816406,513
86405679,49890,-0.056152,-0.601929,-0.812988,515
86411272,5593,-0.061646,-0.626831,-0.811035,515
86418532,7260,-0.043701,-0.685547,-0.810547,515
86424410,5878,-0.053467,-0.680908,-0.821777,509
86431012,6602,0.000000,0.000000,0.000000,516
86436464,5452,-0.073608,-0.605957,-0.833374,513
86442356,5892,-0.051392,-0.599609,-0.827515,518
86448706,6350,0.000000,0.000000,0.000000,513
86453892,5186,-0.036743,-0.612305,-0.799438,517
86459723,5831,-0.035522,-0.609741,-0.784546,513
86465785,6062,0.000000,0.000000,0.000000,515
86475792,10007,-0.032349,-0.640259,-0.810547,521
86485771,9979,-0.026611,-0.617554,-0.825317,521
86495782,10011,-0.032227,-0.581543,-0.812378,524
86505784,10002,-0.029663,-0.608032,-0.801147,517
86515774,9990,-0.027954,-0.594604,-0.821655,522
86525783,10009,-0.014648,-0.507568,-0.816650,521
86535789,10006,-0.053223,-0.550415,-0.793213,518
86545769,9980,-0.025146,-0.663452,-0.791504,510
86555799,10030,-0.025879,-0.679321,-0.790039,511
86565774,9975,-0.048218,-0.641602,-0.798828,506
86575777,10003,-0.019287,-0.650024,-0.667480,503
86585786,10009,-0.018921,-0.672607,-0.810181,513
86595792,10006,-0.079346,-0.614502,-0.850342,512
86605795,10003,-0.060303,-0.596558,-0.850098,516
86615780,9985,-0.039673,-0.573120,-0.806396,522
86625794,10014,-0.037720,-0.593506,-0.831787,518
86635795,10001,-0.015259,-0.579346,-0.831421,526
86645779,9984,-0.023682,-0.608154,-0.822876,520
86655774,9995,-0.024780,-0.660767,-0.832275,520
86665769,9995,-0.033203,-0.662720,-0.847290,519
86675783,10014,-0.041138,-0.649048,-0.840576,512
86685777,9994,-0.051514,-0.578247,-0.819336,516
86695796,10019,-0.056763,-0.578491,-0.816040,516
86705777,9981,-0.054932,-0.596069,-0.818970,515
86715788,10011,-0.053345,-0.601440,-0.816406,508
86725788,10000,-0.055908,-0.590576,-0.815796,508
86735783,9995,-0.035156,-0.574463,-0.806763,508
86745797,10014,-0.034058,-0.585449,-0.825928,513
86755778,9981,-0.027466,-0.585449,-0.828369,506
86781594,25816,-0.033203,-0.605591,-0.831055,513
86787082,5488,-0.027344,-0.576660,-0.821777,518
86793080,5998,0.000000,0.000000,0.000000,512
86797231,4151,-0.041992,-0.598755,-0.826294,522
86805780,8549,-0.044800,-0.603638,-0.823608,525
86815810,10030,-0.045898,-0.596191,-0.820801,524
86825781,9971,-0.043579,-0.602783,-0.819336,529
86835792,10011,-0.045044,-0.603149,-0.818970,530
86846915,11123,-0.044556,-0.599487,-0.825073,531
86855779,8864,-0.051636,-0.595947,-0.828491,529
86865788,10009,-0.052246,-0.596069,-0.831665,526
86875798,10010,-0.052856,-0.598022,-0.830322,526
86885779,9981,-0.050415,-0.595825,-0.828247,525
86895788,10009,-0.048950,-0.595215,-0.828247,521
86905778,9990,-0.053711,-0.590210,-0.821777,521
86915787,10009,-0.053955,-0.591064,-0.822144,514
86925798,10011,-0.053101,-0.598877,-0.824707,512
86935798,10000,-0.053589,-0.603149,-0.826172,517
86945811,10013,-0.052979,-0.602173,-0.826782,511
86955784,9973,-0.056885,-0.605591,-0.820557,516
86965783,9999,-0.056396,-0.606567,-0.820679,510
86975770,9987,-0.057251,-0.608398,-0.817139,514
87011567,35797,-0.056885,-0.601807,-0.816895,513
87017285,5718,-0.059082,-0.610229,-0.816650,512
87022910,5625,0.000000,0.000000,0.000000,510
87027104,4194,-0.061157,-0.607544,-0.816772,504
87032525,5421,-0.058472,-0.606323,-0.818481,510
87038308,5783,0.000000,0.000000,0.000000,509
87045789,7481,-0.055298,-0.608887,-0.815063,510
87055787,9998,-0.054443,-0.610352,-0.814331,511
87065769,9982,-0.055298,-0.612183,-0.815918,508
87075797,10028,-0.053955,-0.614258,-0.816406,506
87085780,9983,-0.056152,-0.615356,-0.814087,508
87095777,9997,-0.054443,-0.616577,-0.813477,510
87105791,10014,-0.056152,-0.608521,-0.812134,509
87115781,9990,-0.060303,-0.609863,-0.811646,507
87125776,9995,-0.057251,-0.607666,-0.811157,510
87135792,10016,-0.053467,-0.610596,-0.812378,512
87145791,9999,-0.056396,-0.614746,-0.815918,511
87155771,9980,-0.057007,-0.619141,-0.821655,513
87165796,10025,-0.051025,-0.621826,-0.822754,511
87182225,16429,-0.055420,-0.618530,-0.822021,516
87187975,5750,-0.059204,-0.619385,-0.821411,515
87195794,7819,-0.061035,-0.617310,-0.818726,516
87205784,9990,-0.063354,-0.615479,-0.817627,516
87215786,10002,-0.064819,-0.617310,-0.816650,509
87225770,9984,-0.065796,-0.608276,-0.808716,518
87235795,10025,-0.061035,-0.609741,-0.809326,516
87245771,9976,-0.060059,-0.610962,-0.811890,514
87260440,14669,-0.054687,-0.608887,-0.810303,515
87266056,5616,0.000000,0.000000,0.000000,509
87275784,9728,-0.055176,-0.607544,-0.812500,509
87285792,10008,-0.052368,-0.614014,-0.818115,512
87332204,46412,-0.062622,-0.609497,-0.814941,511
87337552,5348,-0.062500,-0.607300,-0.811646,510
87343448,5896,0.000000,0.000000,0.000000,512
87347846,4398,-0.061523,-0.606201,-0.809204,511
87353440,5594,-0.061523,-0.605103,-0.811279,512
87359047,5607,0.000000,0.000000,0.000000,510
87363376,4329,-0.063110,-0.607300,-0.811890,506
87368761,5385,0.000000,0.000000,0.000000,506
87375798,7037,-0.059937,-0.609863,-0.814941,506
87385778,9980,-0.059448,-0.612183,-0.818481,511
87395776,9998,-0.056396,-0.611450,-0.820435,510
87405798,10022,-0.052734,-0.610962,-0.819336,512
87415795,9997,-0.053833,-0.612549,-0.818115,503
87425786,9991,-0.054321,-0.615112,-0.816162,504
87435798,10012,-0.056396,-0.615967,-0.811279,512
87445782,9984,-0.062378,-0.605835,-0.810181,512
87455798,10016,-0.063232,-0.608765,-0.811523,511
87465790,9992,-0.063110,-0.611084,-0.813721,506
87475775,9985,-0.062378,-0.609741,-0.816040,508
87485793,10018,-0.058960,-0.608154,-0.817261,512
87495797,10004,-0.058105,-0.613525,-0.817749,512
87505783,9986,-0.057129,-0.611938,-0.817383,512
87515798,10015,-0.056885,-0.609741,-0.816284,514
87525769,9971,-0.057373,-0.609253,-0.813965,512
87535794,10025,-0.059814,-0.610229,-0.813110,506
87545770,9976,-0.061768,-0.608643,-0.812012,509
87555777,10007,-0.062500,-0.607422,-0.808228,512
87565798,10021,-0.062378,-0.610352,-0.807495,503
87575788,9990,-0.059937,-0.610840,-0.808716,512
87585801,10013,-0.057373,-0.610352,-0.812500,512
87595771,9970,-0.055664,-0.608398,-0.812500,512
87605770,9999,-0.057495,-0.611084,-0.817505,504
87615780,10010,-0.055542,-0.610962,-0.818604,507
87625783,10003,-0.056641,-0.608887,-0.817017,512
87635785,10002,-0.058228,-0.606934,-0.818481,506
87645783,9998,-0.059326,-0.609985,-0.818237,511
87655778,9995,-0.059692,-0.610352,-0.817383,511
87665790,10012,-0.060791,-0.609497,-0.813721,510
87675793,10003,-0.064209,-0.609863,-0.813599,512
87685774,9981,-0.065918,-0.609619,-0.815186,504
87695774,10000,-0.064941,-0.609497,-0.815063,509
87705796,10022,-0.062134,-0.609741,-0.816162,511
87715787,9991,-0.059204,-0.607788,-0.817627,511
87725778,9991,-0.058594,-0.607178,-0.816528,502
87735809,10031,-0.057129,-0.607056,-0.815308,500
87745769,9960,-0.058105,-0.607666,-0.816284,506
87755774,10005,-0.058960,-0.607422,-0.814331,512
87783881,28107,-0.061890,-0.609253,-0.816528,503
87789363,5482,0.000000,0.000000,0.000000,508
87793684,4321,-0.061279,-0.609863,-0.816040,507
87799579,5895,0.000000,0.000000,0.000000,510
87805772,6193,-0.061523,-0.610229,-0.814453,505
87815793,10021,-0.062256,-0.607544,-0.813843,504
87825796,10003,-0.060669,-0.612671,-0.814453,511
87835794,9998,-0.062256,-0.612549,-0.813477,512
87845775,9981,-0.062866,-0.615112,-0.813354,503
87855798,10023,-0.062622,-0.617065,-0.814453,504
87865788,9990,-0.062256,-0.618042,-0.813477,510
87877708,11920,-0.057617,-0.621460,-0.816040,505
87885792,8084,-0.054810,-0.621582,-0.816772,512
87895787,9995,-0.054199,-0.621826,-0.816772,512
87905797,10010,-0.053711,-0.623535,-0.820312,510
87915783,9986,-0.054077,-0.624512,-0.820190,511
87925826,10043,-0.054443,-0.623535,-0.822266,504
87935797,9971,-0.057861,-0.619629,-0.817627,511
87945776,9979,-0.059082,-0.615479,-0.813721,508
87955788,10012,-0.061523,-0.610229,-0.810059,513
87965796,10008,-0.064209,-0.606934,-0.805176,508
87975794,9998,-0.068970,-0.601562,-0.801636,508
87985780,9986,-0.072144,-0.598755,-0.800781,506
87995792,10012,-0.073853,-0.596436,-0.801514,515
88005779,9987,-0.067261,-0.598389,-0.814331,513
88015777,9998,-0.067017,-0.601318,-0.804443,517
88025794,10017,-0.067993,-0.603882,-0.805664,516
88035791,9997,-0.059692,-0.607544,-0.811523,518
88045781,9990,-0.066406,-0.602051,-0.813232,517
88055795,10014,-0.066040,-0.602173,-0.813110,519
88065785,9990,-0.065552,-0.604736,-0.817383,518
88086093,20308,-0.073242,-0.602051,-0.809082,516
88112934,26841,-0.065552,-0.609985,-0.816406,519
88118624,5690,0.000000,0.000000,0.000000,518
88122656,4032,-0.060669,-0.613281,-0.817383,518
88128176,5520,0.000000,0.000000,0.000000,510
88132566,4390,-0.058960,-0.611572,-0.818848,514
88138517,5951,0.000000,0.000000,0.000000,515
88145777,7260,-0.057739,-0.611694,-0.818115,517
88155771,9994,-0.063965,-0.614258,-0.817139,517
88165778,10007,-0.065430,-0.614868,-0.817383,518
88175800,10022,-0.066772,-0.616455,-0.816040,512
88185795,9995,-0.067505,-0.612671,-0.815430,511
88195770,9975,-0.067505,-0.614258,-0.812622,517
88205792,10022,-0.065430,-0.616455,-0.810181,516
88215769,9977,-0.067383,-0.616211,-0.809570,508
88241337,25568,-0.067749,-0.610596,-0.810181,517
88247935,6598,0.000000,0.000000,0.000000,514
88252554,4619,-0.067383,-0.610474,-0.809814,518
88258597,6043,-0.067261,-0.609863,-0.808350,516
88265778,7181,-0.068970,-0.613037,-0.808350,515
88275794,10016,-0.068848,-0.609985,-0.809326,512
88285776,9982,-0.069092,-0.610840,-0.810181,515
88295785,10009,-0.067871,-0.612427,-0.810913,515
88305781,9996,-0.066284,-0.611450,-0.811279,513
88315796,10015,-0.063843,-0.615234,-0.811646,517
88325796,10000,-0.061768,-0.615234,-0.812622,506
88335782,9986,-0.061890,-0.614746,-0.813110,514
88345787,10005,-0.060547,-0.615479,-0.812500,517
88355809,10022,-0.059692,-0.613403,-0.813110,515
88365774,9965,-0.062256,-0.614990,-0.816406,510
88375778,10004,-0.061523,-0.609497,-0.813843,516
88385796,10018,-0.063110,-0.612305,-0.813110,516
88395770,9974,-0.065552,-0.611816,-0.813843,506
88405797,10027,-0.067139,-0.609619,-0.814087,505
88415794,9997,-0.070312,-0.609741,-0.813599,516
88425783,9989,-0.069092,-0.610474,-0.816650,513
88435769,9986,-0.067139,-0.609375,-0.817261,516
88452994,17225,-0.067017,-0.609009,-0.817017,517
88459420,6426,0.000000,0.000000,0.000000,508
88465778,6358,-0.066528,-0.608887,-0.819336,505
88475793,10015,-0.066528,-0.611450,-0.817139,516
88498738,22945,-0.069580,-0.605835,-0.814331,514
88504358,5620,-0.070435,-0.606567,-0.814087,515
88509761,5403,0.000000,0.000000,0.000000,513
88515784,6023,-0.070312,-0.609375,-0.813843,513
88525794,10010,-0.069946,-0.606689,-0.814575,511
88535771,9977,-0.066650,-0.607666,-0.816528,507
88545783,10012,-0.065918,-0.607178,-0.815796,512
88555789,10006,-0.065308,-0.609741,-0.817383,512
88565770,9981,-0.066284,-0.610596,-0.816162,506
88575793,10023,-0.066895,-0.609863,-0.816895,515
88585784,9991,-0.066284,-0.610107,-0.814087,513
88595769,9985,-0.068115,-0.611694,-0.815674,515
88643408,47639,-0.066040,-0.613770,-0.814819,515
88649043,5635,-0.066406,-0.612915,-0.813477,514
88654322,5279,-0.067139,-0.613037,-0.812866,507
88659787,5465,0.000000,0.000000,0.000000,505
88663890,4103,-0.067017,-0.613281,-0.813232,515
88669162,5272,0.000000,0.000000,0.000000,514
88673365,4203,-0.066162,-0.611694,-0.813965,513
88682658,9293,-0.067627,-0.610352,-0.812256,514
88688350,5692,-0.065918,-0.607422,-0.809448,511
88695777,7427,0.000000,0.000000,0.000000,514
88705783,10006,-0.063232,-0.609253,-0.810913,514
88715779,9996,-0.062134,-0.611816,-0.816406,505
88759040,43261,-0.067627,-0.611206,-0.812622,512
88764647,5607,-0.068115,-0.611694,-0.813354,516
88769973,5326,0.000000,0.000000,0.000000,516
88774457,4484,-0.072266,-0.611938,-0.812012,517
88780353,5896,0.000000,0.000000,0.000000,507
88784767,4414,-0.070312,-0.613159,-0.811035,516
88791012,6245,-0.067749,-0.607544,-0.804932,516
88797107,6095,0.000000,0.000000,0.000000,515
88805789,8682,-0.069824,-0.610352,-0.807739,511
88815788,9999,-0.071411,-0.609741,-0.808594,518
88825798,10010,-0.071777,-0.609375,-0.807739,508
88835771,9973,-0.069336,-0.610962,-0.810059,518
88845778,10007,-0.068237,-0.612183,-0.813965,517
88855778,10000,-0.066772,-0.612793,-0.816040,517
88865772,9994,-0.065308,-0.614990,-0.815552,510
88875781,10009,-0.066406,-0.613892,-0.817505,520
88885790,10009,-0.066040,-0.614990,-0.816772,519
88895776,9986,-0.066650,-0.612183,-0.814941,510
88905781,10005,-0.069580,-0.610718,-0.814331,516
88915794,10013,-0.069824,-0.611084,-0.814453,509
88925796,10002,-0.069092,-0.610962,-0.814087,503
88935785,9989,-0.069580,-0.607788,-0.812012,514
88945776,9991,-0.069336,-0.608276,-0.812012,509
88955780,10004,-0.068115,-0.610596,-0.814087,516
88965776,9996,-0.067017,-0.610474,-0.816284,510
88975771,9995,-0.066895,-0.610962,-0.814697,509
88985796,10025,-0.067749,-0.612183,-0.815674,516
88995775,9979,-0.067017,-0.612061,-0.813721,505
89013038,17263,-0.066772,-0.610352,-0.813354,516
89018421,5383,-0.066162,-0.609375,-0.812378,513
89025776,7355,-0.066162,-0.606812,-0.808960,512
89035794,10018,-0.067261,-0.610962,-0.808960,513
89045774,9980,-0.069336,-0.610718,-0.808838,513
89055805,10031,-0.071533,-0.608032,-0.808350,505
89065778,9973,-0.074463,-0.608765,-0.806885,513
89075790,10012,-0.074341,-0.609497,-0.811279,513
89085782,9992,-0.069336,-0.609131,-0.811646,514
89095789,10007,-0.066406,-0.609375,-0.812866,512
89105777,9988,-0.065430,-0.611206,-0.812866,507
89115779,10002,-0.063721,-0.610107,-0.811401,502
89125789,10010,-0.064819,-0.614502,-0.811279,506
89135796,10007,-0.069702,-0.606934,-0.812378,507
89145792,9996,-0.068848,-0.604126,-0.813477,510
89155777,9985,-0.074219,-0.576172,-0.816528,503
89165786,10009,-0.067139,-0.605347,-0.806641,507
89190349,24563,-0.065918,-0.602051,-0.815308,503
89196025,5676,-0.068115,-0.599609,-0.813477,506
89202869,6844,0.000000,0.000000,0.000000,497
89207674,4805,-0.066528,-0.599854,-0.817139,497
89215792,8118,-0.065796,-0.603760,-0.821045,505
89225779,9987,-0.063232,-0.605835,-0.823975,503
89235771,9992,-0.060791,-0.609863,-0.825684,508
89245771,10000,-0.062012,-0.618042,-0.825562,505
89255810,10039,-0.063354,-0.617065,-0.825195,504
89265798,9988,-0.064331,-0.614380,-0.823975,507
89275784,9986,-0.067017,-0.610596,-0.822754,506
89285796,10012,-0.066772,-0.609253,-0.820190,497
89313280,27484,-0.063232,-0.601440,-0.812866,505
89318784,5504,0.000000,0.000000,0.000000,500
89322891,4107,-0.061279,-0.605957,-0.813965,495
89328634,5743,0.000000,0.000000,0.000000,506
89335789,7155,-0.058350,-0.607666,-0.810425,504
89345782,9993,-0.055054,-0.606079,-0.817139,503
89355778,9996,-0.056763,-0.590820,-0.810059,494
89365779,10001,-0.058838,-0.595581,-0.811157,499
89375784,10005,-0.060547,-0.600464,-0.818359,502
89385779,9995,-0.064209,-0.595947,-0.812134,502
89395789,10010,-0.066895,-0.594971,-0.818115,500
89405781,9992,-0.061035,-0.598877,-0.814819,499
89432845,27064,-0.047852,-0.598145,-0.834839,491
89438124,5279,0.000000,0.000000,0.000000,492
89442352,4228,-0.042725,-0.597778,-0.837402,494
89447805,5453,0.000000,0.000000,0.000000,498
89455812,8007,-0.036377,-0.602539,-0.854004,498
89465786,9974,-0.038208,-0.598633,-0.838379,489
89475781,9995,-0.052002,-0.596313,-0.846436,492
89485782,10001,-0.052124,-0.580933,-0.833374,500
89495773,9991,-0.055298,-0.570923,-0.818604,496
89530944,35171,-0.047241,-0.557495,-0.823486,500
89536784,5840,-0.070557,-0.620605,-0.818481,492
89542417,5633,-0.063232,-0.631104,-0.826904,500
89548122,5705,0.000000,0.000000,0.000000,493
89552778,4656,-0.035522,-0.618896,-0.831909,499
89558499,5721,-0.053345,-0.561768,-0.855225,498
89565787,7288,0.000000,0.000000,0.000000,492
89575782,9995,-0.044189,-0.601196,-0.833130,501
89585794,10012,-0.047241,-0.617676,-0.833374,504
89595773,9979,-0.065186,-0.647095,-0.904297,494
89605780,10007,-0.049561,-0.593018,-0.826904,500
89615797,10017,-0.051392,-0.580811,-0.802368,498
89625780,9983,-0.048096,-0.598633,-0.830566,504
89635779,9999,-0.044312,-0.618042,-0.824463,504
89645809,10030,0.008301,-0.470215,-0.755737,502
89655781,9972,-0.084351,-0.488159,-0.808716,502
89665776,9995,0.016968,-0.614502,-0.810547,504
89675782,10006,-0.029419,-0.630615,-0.820923,504
89685777,9995,-0.023071,-0.562622,-0.807617,498
89695781,10004,-0.027832,-0.551758,-0.809937,504
89711766,15985,-0.036621,-0.614990,-0.807251,512
89717324,5558,0.000000,0.000000,0.000000,511
89725772,8448,-0.042480,-0.609741,-0.809937,507
89735773,10001,-0.046997,-0.582642,-0.828857,514
89745798,10025,-0.042358,-0.584595,-0.826416,510
89755794,9996,-0.037109,-0.601196,-0.820557,509
89765793,9999,-0.034790,-0.618408,-0.822876,514
89775770,9977,-0.035400,-0.621338,-0.834351,521
89785781,10011,-0.034912,-0.603271,-0.841431,513
89795798,10017,-0.040527,-0.596313,-0.847046,522
89805786,9988,-0.043335,-0.599854,-0.840210,523
89815786,10000,-0.045044,-0.602661,-0.830322,524
89825772,9986,-0.045898,-0.603760,-0.824829,524
89835822,10050,-0.046753,-0.596802,-0.824341,522
89845796,9974,-0.050049,-0.584229,-0.824219,523
89855790,9994,-0.046753,-0.583008,-0.820190,524
89865774,9984,-0.044678,-0.582275,-0.821533,524
89875770,9996,-0.039673,-0.580200,-0.826416,519
89885782,10012,-0.036255,-0.579102,-0.833252,525
89895772,9990,-0.030029,-0.579712,-0.835937,521
89905776,10004,-0.030518,-0.577148,-0.834961,520
89915796,10020,-0.033081,-0.576050,-0.835815,519
89925788,9992,-0.037720,-0.580444,-0.835815,521
89935786,9998,-0.037109,-0.584595,-0.832031,521
89945793,10007,-0.036865,-0.591797,-0.822876,517
89955795,10002,-0.040405,-0.602661,-0.819458,519
89965776,9981,-0.040527,-0.604370,-0.819092,518
89975795,10019,-0.044067,-0.607056,-0.815674,519
89985777,9982,-0.041260,-0.609375,-0.813232,520
89995790,10013,-0.041260,-0.610107,-0.816895,519
90005794,10004,-0.035645,-0.614990,-0.817261,520
90015782,9988,-0.034302,-0.612915,-0.817871,511
90025809,10027,-0.038818,-0.611328,-0.822876,509
90035769,9960,-0.040405,-0.606079,-0.827881,518
90045787,10018,-0.038086,-0.602051,-0.828247,519
90055776,9989,-0.039429,-0.594116,-0.823730,519
90065772,9996,-0.035400,-0.594727,-0.822144,519
90075780,10008,-0.032959,-0.594238,-0.823608,519
90085797,10017,-0.034424,-0.594360,-0.823730,518
90095783,9986,-0.033936,-0.596313,-0.822754,515
90107946,12163,-0.035034,-0.600830,-0.825684,517
90115778,7832,-0.034302,-0.603149,-0.825562,509
90125794,10016,-0.034302,-0.607544,-0.828247,518
90135776,9982,-0.034058,-0.606812,-0.832275,520
90145783,10007,-0.035889,-0.594116,-0.832886,520
90155787,10004,-0.034790,-0.592163,-0.819824,519
90165778,9991,-0.038086,-0.597290,-0.819580,520
90175792,10014,-0.038818,-0.597046,-0.818970,520
90185786,9994,-0.035889,-0.597412,-0.817993,519
90195792,10006,-0.035034,-0.593506,-0.817749,521
90205777,9985,-0.034180,-0.593262,-0.820923,511
90215770,9993,-0.031128,-0.598511,-0.827026,519
90225797,10027,-0.026611,-0.597168,-0.824097,521
90235771,9974,-0.027588,-0.595947,-0.820435,523
90245773,10002,-0.034058,-0.594116,-0.823975,523
90255786,10013,-0.039307,-0.591797,-0.823242,518
90265787,10001,-0.042114,-0.590576,-0.821655,520
90275777,9990,-0.049683,-0.587402,-0.820435,524
90285784,10007,-0.046265,-0.592285,-0.822876,526
90295794,10010,-0.041138,-0.598145,-0.822266,526
90316731,20937,-0.034790,-0.596680,-0.829224,519
90322726,5995,-0.030396,-0.599609,-0.831421,518
90329241,6515,-0.027466,-0.605225,-0.834473,528
90335794,6553,-0.025391,-0.605835,-0.835937,529
90345770,9976,-0.023193,-0.606445,-0.831177,527
90355788,10018,-0.029663,-0.607666,-0.826416,527
90365770,9982,-0.035645,-0.607788,-0.823364,527
90375795,10025,-0.039429,-0.612305,-0.820068,526
90385798,10003,-0.044922,-0.606445,-0.815674,524
90395772,9974,-0.044800,-0.599731,-0.816162,525
90405772,10000,-0.040771,-0.600708,-0.816406,523
90415780,10008,-0.034424,-0.608765,-0.813721,525
90425788,10008,-0.028931,-0.614746,-0.815308,515
90435769,9981,-0.027222,-0.616333,-0.819824,513
90445798,10029,-0.027344,-0.605591,-0.823730,513
90455799,10001,-0.028564,-0.602051,-0.826538,513
90465787,9988,-0.028564,-0.599365,-0.823608,522
90475784,9997,-0.031860,-0.601196,-0.817871,521
90485780,9996,-0.033203,-0.605103,-0.816650,513
90495780,10000,-0.037842,-0.604004,-0.822021,521
90505773,9993,-0.038452,-0.603516,-0.818237,520
90515788,10015,-0.039795,-0.604492,-0.818115,519
90525787,9999,-0.040039,-0.604126,-0.820435,521
90535789,10002,-0.040161,-0.606445,-0.823120,517
90545773,9984,-0.037354,-0.605103,-0.823486,519
90555798,10025,-0.034180,-0.602783,-0.824097,512
90565784,9986,-0.033813,-0.600708,-0.823608,511
90575783,9999,-0.034912,-0.599609,-0.823853,512
90585770,9987,-0.036377,-0.598877,-0.823853,523
90595770,10000,-0.039917,-0.597778,-0.824219,513
90605788,10018,-0.042725,-0.591431,-0.828369,513
90615795,10007,-0.040771,-0.593994,-0.823242,511
90625811,10016,-0.037109,-0.597534,-0.816650,520
90635787,9976,-0.035889,-0.602173,-0.815430,521
90645789,10002,-0.033325,-0.602051,-0.816895,521
90655774,9985,-0.033691,-0.601562,-0.814331,520
90665795,10021,-0.031616,-0.603271,-0.813721,512
90675775,9980,-0.032593,-0.602539,-0.814331,521
90685783,10008,-0.032593,-0.600708,-0.815430,520
90695792,10009,-0.034302,-0.594727,-0.816895,511
90705796,10004,-0.033203,-0.591064,-0.817993,522
90715786,9990,-0.032471,-0.594116,-0.823608,518
90725774,9988,-0.030762,-0.595581,-0.822266,513
90735796,10022,-0.031128,-0.598999,-0.821777,520
90745772,9976,-0.033813,-0.602783,-0.824341,510
90755809,10037,-0.033203,-0.607178,-0.826782,520
90765788,9979,-0.035400,-0.609985,-0.824951,519
90775795,10007,-0.034302,-0.611450,-0.828003,519
90785793,9998,-0.033813,-0.612183,-0.834717,510
90795797,10004,-0.035034,-0.614136,-0.832031,520
90805770,9973,-0.033447,-0.617187,-0.828003,520
90815791,10021,-0.031982,-0.618652,-0.819092,511
90825787,9996,-0.042603,-0.619019,-0.808960,514
90835780,9993,-0.051514,-0.606567,-0.811890,518
90845781,10001,-0.057739,-0.582397,-0.826050,518
90855787,10006,-0.043701,-0.586426,-0.824463,518
90865785,9998,-0.030518,-0.576294,-0.820679,519
90875793,10008,-0.016602,-0.596313,-0.822510,517
90885786,9993,-0.014160,-0.603638,-0.823364,513
90895770,9984,-0.019531,-0.601929,-0.819946,514
90905773,10003,-0.025024,-0.596436,-0.819580,510
90915770,9997,-0.032227,-0.593384,-0.822388,518
90925798,10028,-0.037231,-0.593750,-0.822144,518
90935814,10016,-0.033936,-0.590454,-0.823486,519
90945799,9985,-0.028076,-0.603271,-0.818604,512
90955792,9993,-0.023926,-0.611694,-0.811279,520
90965796,10004,-0.031616,-0.617432,-0.812988,516
90975794,9998,-0.035400,-0.615356,-0.812134,522
90985770,9976,-0.053955,-0.588989,-0.825439,521
90995784,10014,-0.052856,-0.581421,-0.830078,523
91005777,9993,-0.049072,-0.581909,-0.828735,519
91015775,9998,-0.041138,-0.587891,-0.825806,519
91025777,10002,-0.036865,-0.591919,-0.824951,526
91035799,10022,-0.038086,-0.583374,-0.837402,518
91045771,9972,-0.039429,-0.579224,-0.839722,528
91055792,10021,-0.043335,-0.575928,-0.844238,528
91065779,9987,-0.041870,-0.575317,-0.850708,520
91075775,9996,-0.036011,-0.574829,-0.849609,527
91085782,10007,-0.030151,-0.574951,-0.844238,528
91095783,10001,-0.026611,-0.590210,-0.832642,527
91105780,9997,-0.026611,-0.599487,-0.826172,516
91115778,9998,-0.027710,-0.602539,-0.819824,515
91125790,10012,-0.035278,-0.601318,-0.811279,514
91135797,10007,-0.039795,-0.602905,-0.808228,515
91145780,9983,-0.036987,-0.600098,-0.803711,523
91155773,9993,-0.035522,-0.601318,-0.806763,522
91165770,9997,-0.030762,-0.598999,-0.814209,512
91175805,10035,-0.026001,-0.600464,-0.819702,520
91185791,9986,-0.020508,-0.607056,-0.819214,522
91195779,9988,-0.019775,-0.617676,-0.819580,526
91205798,10019,-0.028320,-0.616699,-0.827881,516
91215778,9980,-0.034058,-0.608032,-0.828491,519
91225776,9998,-0.037231,-0.599731,-0.829102,518
91235791,10015,-0.041626,-0.594727,-0.828979,519
91245776,9985,-0.042480,-0.593262,-0.829346,520
91255785,10009,-0.036865,-0.587158,-0.824097,517
91265772,9987,-0.037842,-0.587158,-0.824829,521
91302843,37071,-0.035522,-0.589478,-0.826172,519
91308224,5381,-0.033813,-0.590576,-0.825073,522
91313644,5420,0.000000,0.000000,0.000000,521
91317864,4220,-0.033447,-0.595825,-0.825439,519
91323490,5626,0.000000,0.000000,0.000000,521
91327729,4239,-0.033569,-0.597534,-0.826172,521
91335775,8046,-0.033691,-0.599121,-0.823364,514
91345784,10009,-0.035645,-0.601929,-0.822998,522
91383630,37846,-0.033813,-0.594727,-0.823853,521
91389180,5550,0.000000,0.000000,0.000000,515
91393121,3941,-0.028931,-0.591064,-0.827759,521
91398622,5501,0.000000,0.000000,0.000000,521
91402625,4003,-0.022461,-0.590210,-0.825928,520
91408164,5539,-0.015991,-0.591919,-0.820801,517
91415770,7606,0.000000,0.000000,0.000000,515
91425779,10009,-0.017456,-0.597534,-0.819214,519
91435777,9998,-0.021362,-0.593872,-0.824707,520
91445786,10009,-0.024780,-0.587891,-0.827271,519
91455772,9986,-0.025879,-0.588257,-0.825439,518
91465792,10020,-0.027954,-0.594238,-0.824463,508
91475783,9991,-0.031860,-0.608887,-0.821045,517
91485773,9990,-0.038574,-0.611694,-0.815918,519
91495784,10011,-0.045410,-0.614502,-0.813232,512
91505778,9994,-0.051758,-0.614380,-0.817871,520
91515788,10010,-0.064209,-0.612427,-0.821411,517
91525795,10007,-0.067261,-0.605713,-0.823975,517
91535793,9998,-0.058594,-0.601318,-0.825073,507
91545785,9992,-0.047241,-0.599365,-0.826050,516
91555794,10009,-0.037964,-0.595825,-0.826782,519
91565791,9997,-0.034912,-0.593872,-0.827271,518
91575799,10008,-0.031494,-0.593018,-0.824707,518
91585778,9979,-0.033813,-0.579102,-0.828491,513
91595798,10020,-0.036499,-0.577881,-0.831909,512
91605794,9996,-0.033325,-0.579102,-0.832275,512
91615771,9977,-0.030762,-0.582275,-0.828857,511
91625793,10022,-0.024414,-0.586670,-0.824707,519
91635795,10002,-0.023926,-0.587402,-0.824585,520
91718139,82344,-0.025391,-0.595703,-0.845825,525
91723707,5568,-0.020508,-0.595581,-0.841553,524
91729325,5618,-0.021118,-0.595947,-0.836792,527
91734669,5344,0.000000,0.000000,0.000000,527
91739005,4336,-0.024414,-0.602173,-0.832397,525
91763718,24713,-0.041748,-0.597168,-0.835815,515
91769187,5469,0.000000,0.000000,0.000000,524
91773151,3964,-0.045654,-0.597778,-0.832153,524
91778744,5593,0.000000,0.000000,0.000000,524
91782851,4107,-0.041260,-0.599243,-0.823730,513
91788290,5439,-0.037231,-0.604248,-0.823486,523
91793814,5524,0.000000,0.000000,0.000000,517
91797772,3958,-0.036377,-0.611572,-0.821045,524
91803146,5374,0.000000,0.000000,0.000000,522
91807346,4200,-0.033325,-0.614868,-0.817505,521
91813420,6074,-0.037354,-0.618042,-0.818115,523
91819082,5662,0.000000,0.000000,0.000000,520
91824713,5631,-0.036499,-0.621826,-0.812500,523
91830098,5385,0.000000,0.000000,0.000000,522
91835821,5723,-0.037598,-0.617920,-0.803589,514
91845785,9964,-0.043457,-0.615967,-0.804077,516
91855789,10004,-0.040405,-0.609375,-0.804687,511
91865796,10007,-0.038574,-0.604980,-0.805908,511
91875795,9999,-0.033569,-0.603149,-0.807251,520
91885781,9986,-0.030151,-0.600952,-0.811768,519
91895778,9997,-0.025513,-0.602539,-0.818848,523
91905786,10008,-0.019531,-0.599365,-0.831787,522
91915778,9992,-0.018921,-0.598145,-0.832764,520
91925792,10014,-0.020020,-0.599121,-0.829956,522
91935789,9997,-0.020142,-0.601196,-0.822632,522
91945787,9998,-0.022339,-0.601196,-0.816772,520
91955771,9984,-0.030029,-0.595337,-0.819458,517
91965777,10006,-0.039673,-0.588623,-0.819580,521
91975776,9999,-0.034546,-0.591431,-0.821899,516
91985797,10021,-0.029663,-0.594849,-0.820190,517
91995779,9982,-0.027466,-0.598877,-0.816528,524
92005790,10011,-0.025269,-0.602417,-0.823608,523
92015792,10002,-0.032959,-0.596558,-0.829956,523
92025787,9995,-0.032227,-0.597046,-0.828247,521
92035778,9991,-0.035767,-0.595581,-0.826538,520
92045770,9992,-0.036987,-0.598999,-0.828491,521
92055786,10016,-0.036255,-0.598633,-0.827026,510
92065785,9999,-0.036987,-0.593994,-0.824951,517
92075783,9998,-0.040283,-0.588135,-0.827026,520
92115695,39912,-0.043213,-0.593750,-0.835205,511
92121507,5812,-0.043213,-0.591309,-0.835449,511
92127421,5914,-0.039063,-0.593628,-0.828247,510
92133402,5981,0.000000,0.000000,0.000000,514
92138165,4763,-0.037231,-0.597778,-0.824219,520
92143765,5600,-0.035767,-0.603760,-0.820923,510
92149258,5493,0.000000,0.000000,0.000000,514
92155774,6516,-0.035278,-0.598389,-0.820679,521
92165773,9999,-0.034180,-0.592651,-0.816895,519
92175773,10000,-0.034424,-0.583740,-0.816772,516
92185788,10015,-0.037109,-0.585083,-0.827148,511
92195796,10008,-0.030762,-0.587158,-0.834717,519
92205798,10002,-0.024170,-0.591553,-0.834351,513
92215769,9971,-0.016846,-0.600952,-0.832153,511
92225782,10013,-0.006836,-0.611938,-0.832886,524
92235779,9997,-0.010132,-0.615723,-0.824463,521
92245780,10001,-0.016479,-0.608276,-0.815674,520
92255774,9994,-0.027832,-0.594116,-0.812256,521
92265796,10022,-0.043579,-0.584351,-0.815552,519
92275785,9989,-0.051270,-0.581299,-0.825195,519
92285777,9992,-0.037354,-0.592041,-0.820435,515
92295781,10004,-0.031006,-0.601318,-0.822021,520
92305775,9994,-0.024292,-0.610107,-0.824707,520
92315790,10015,-0.027344,-0.609985,-0.826904,521
92325794,10004,-0.031982,-0.605957,-0.827637,520
92335791,9997,-0.040405,-0.598389,-0.828735,523
92345798,10007,-0.050659,-0.587280,-0.827026,525
92355786,9988,-0.051758,-0.586914,-0.826904,525
92365774,9988,-0.049805,-0.586792,-0.829834,526
92375782,10008,-0.042603,-0.591797,-0.829712,526
92385781,9999,-0.033447,-0.597168,-0.826172,525
92395794,10013,-0.027832,-0.606812,-0.822144,526
92405784,9990,-0.028931,-0.607056,-0.825073,528
92415774,9990,-0.031128,-0.606079,-0.821411,528
92425783,10009,-0.032837,-0.605713,-0.814575,527
92435792,10009,-0.033936,-0.608276,-0.813110,526
92445770,9978,-0.036133,-0.610962,-0.812134,522
92455780,10010,-0.037354,-0.607056,-0.809448,524
92465769,9989,-0.036621,-0.604248,-0.809082,524
92475786,10017,-0.032837,-0.601807,-0.814087,522
92485780,9994,-0.029541,-0.602295,-0.812744,524
92495794,10014,-0.024902,-0.603638,-0.819092,521
92505787,9993,-0.019409,-0.602295,-0.834839,524
92515780,9993,-0.017212,-0.603760,-0.833984,522
92525774,9994,-0.018188,-0.606445,-0.832886,520
92535791,10017,-0.021484,-0.609497,-0.831055,521
92545789,9998,-0.023682,-0.609741,-0.827148,520
92555771,9982,-0.029419,-0.602783,-0.813354,520
92565789,10018,-0.041748,-0.598145,-0.811157,520
92575782,9993,-0.051025,-0.590576,-0.810547,520
92585773,9991,-0.056519,-0.586548,-0.818481,519
92595773,10000,-0.056763,-0.577515,-0.821289,519
92605778,10005,-0.047119,-0.577637,-0.822754,518
92615802,10024,-0.031006,-0.597046,-0.827026,520
92625785,9983,-0.028442,-0.604248,-0.828979,511
92635798,10013,-0.026123,-0.608398,-0.831909,519
92645790,9992,-0.025391,-0.608765,-0.829224,510
92655796,10006,-0.029785,-0.609131,-0.825195,521
92665771,9975,-0.035400,-0.606323,-0.816284,519
92675797,10026,-0.040283,-0.603638,-0.812500,521
92685792,9995,-0.038452,-0.601318,-0.812866,511
92695777,9985,-0.038330,-0.597290,-0.816895,512
92705776,9999,-0.034058,-0.592773,-0.816772,513
92715790,10014,-0.031372,-0.594604,-0.815796,516
92725785,9995,-0.024902,-0.606934,-0.822754,509
92735787,10002,-0.026001,-0.609253,-0.828247,520
92745818,10031,-0.028687,-0.607300,-0.829712,518
92758255,12437,-0.029541,-0.602417,-0.829956,518
92765842,7587,-0.031128,-0.597656,-0.828735,513
92775796,9954,-0.031616,-0.601929,-0.819580,517
92785773,9977,-0.032837,-0.604980,-0.815430,510
92795769,9996,-0.039551,-0.602051,-0.810425,518
92805798,10029,-0.043945,-0.594482,-0.808960,513
92815793,9995,-0.052979,-0.586548,-0.813843,507
92825771,9978,-0.057861,-0.580811,-0.822632,515
92835769,9998,-0.045410,-0.579102,-0.832275,509
92845785,10016,-0.035278,-0.593140,-0.828857,518
92855786,10001,-0.026855,-0.599487,-0.831421,516
92865794,10008,-0.029419,-0.604858,-0.840454,508
92875780,9986,-0.024292,-0.609985,-0.835083,521
92885782,10002,-0.035278,-0.602417,-0.830322,514
92895795,10013,-0.037720,-0.598633,-0.830322,514
92905794,9999,-0.037476,-0.593750,-0.829224,517
92915791,9997,-0.034790,-0.591675,-0.821655,515
92925790,9999,-0.031738,-0.593628,-0.813110,516
92935796,10006,-0.030762,-0.598999,-0.814209,509
92945781,9985,-0.026855,-0.605957,-0.813477,509
92955776,9995,-0.026245,-0.605591,-0.812378,519
92965776,10000,-0.025879,-0.601074,-0.813477,522
92975769,9993,-0.027588,-0.598389,-0.821045,520
92985794,10025,-0.027588,-0.596191,-0.824585,515
92995770,9976,-0.028442,-0.593872,-0.824707,522
93005789,10019,-0.028687,-0.592407,-0.828979,523
93015780,9991,-0.031494,-0.593506,-0.827026,523
93025773,9993,-0.032104,-0.598389,-0.820679,526
93035792,10019,-0.035767,-0.600220,-0.816772,527
93045784,9992,-0.040161,-0.596924,-0.818481,519
93055789,10005,-0.044800,-0.596436,-0.819458,526
93065771,9982,-0.044189,-0.596680,-0.820068,529
93075772,10001,-0.042114,-0.598511,-0.821045,521
93085775,10003,-0.038086,-0.598755,-0.823608,528
93095777,10002,-0.034302,-0.601074,-0.824829,527
93105776,9999,-0.028198,-0.604858,-0.825562,525
93115770,9994,-0.029785,-0.605957,-0.826172,517
93125808,10038,-0.035034,-0.605713,-0.829346,524
93135782,9974,-0.037109,-0.607666,-0.831299,526
93145786,10004,-0.036499,-0.609131,-0.832642,524
93155788,10002,-0.033569,-0.611938,-0.821045,524
93165769,9981,-0.031738,-0.612305,-0.813477,513
93175787,10018,-0.034790,-0.606567,-0.809326,523
93185802,10015,-0.037231,-0.599121,-0.810059,513
93195788,9986,-0.037964,-0.592896,-0.811035,520
93205788,10000,-0.038330,-0.588745,-0.809204,518
93215793,10005,-0.035400,-0.588745,-0.810669,510
93225780,9987,-0.029541,-0.594360,-0.809570,510
93235793,10013,-0.031616,-0.585327,-0.816040,519
93245791,9998,-0.034668,-0.583374,-0.823242,511
93257286,11495,-0.031738,-0.582886,-0.823975,517
93265772,8486,0.000000,0.000000,0.000000,510
93275792,10020,-0.034180,-0.591309,-0.845093,511
93285779,9987,-0.027344,-0.598999,-0.841675,518
93295796,10017,-0.023804,-0.606201,-0.838257,519
93305812,10016,-0.018433,-0.612671,-0.827637,509
93315774,9962,-0.022583,-0.610596,-0.825317,513
93325771,9997,-0.037598,-0.591919,-0.825317,520
93335793,10022,-0.043457,-0.587891,-0.824829,510
93345773,9980,-0.042236,-0.590454,-0.820679,514
93355777,10004,-0.038818,-0.594849,-0.816406,520
93365779,10002,-0.036865,-0.601318,-0.818848,518
93375802,10023,-0.027954,-0.610596,-0.828857,521
93385793,9991,-0.025513,-0.611328,-0.826904,518
93395789,9996,-0.027222,-0.612915,-0.822632,518
93405795,10006,-0.030029,-0.607910,-0.829956,518
93445885,40090,-0.036987,-0.587524,-0.831421,518
93451690,5805,0.000000,0.000000,0.000000,508
93456234,4544,-0.031372,-0.587280,-0.828735,519
93461718,5484,-0.032349,-0.585571,-0.830811,517
93467297,5579,0.000000,0.000000,0.000000,516
93471651,4354,-0.029053,-0.591064,-0.822388,519
93477264,5613,0.000000,0.000000,0.000000,518
93485787,8523,-0.036133,-0.585815,-0.844238,514
93495798,10011,-0.025757,-0.589844,-0.841797,510
93505786,9988,-0.023437,-0.596313,-0.832520,517
93515792,10006,-0.027588,-0.607910,-0.825317,507
93525770,9978,-0.026245,-0.616943,-0.825195,515
93535787,10017,-0.031616,-0.613281,-0.820557,516
93545796,10009,-0.046509,-0.604614,-0.819458,518
93555795,9999,-0.050537,-0.595093,-0.820312,514
93565787,9992,-0.051758,-0.587769,-0.816772,511
93575778,9991,-0.046021,-0.580444,-0.815063,516
93585779,10001,-0.043091,-0.578125,-0.820801,515
93595774,9995,-0.032227,-0.593140,-0.821045,507
93605780,10006,-0.030029,-0.602295,-0.825806,515
93615781,10001,-0.027954,-0.602783,-0.826172,516
93625795,10014,-0.029297,-0.599976,-0.823608,509
93635792,9997,-0.032227,-0.596069,-0.819580,517
93645792,10000,-0.040527,-0.583008,-0.819580,520
93655793,10001,-0.039673,-0.580688,-0.820068,519
93665785,9992,-0.035034,-0.583984,-0.819824,521
93675817,10032,-0.033325,-0.594238,-0.821899,523
93685783,9966,-0.029785,-0.606934,-0.825317,525
93695784,10001,-0.027344,-0.621704,-0.827637,525
93705785,10001,-0.024902,-0.637939,-0.825439,528
93715769,9984,-0.024048,-0.641846,-0.822998,525
93725798,10029,-0.023926,-0.637451,-0.818726,529
93735802,10004,-0.026855,-0.627808,-0.807983,527
93745788,9986,-0.038818,-0.618408,-0.799194,525
93755780,9992,-0.052124,-0.605103,-0.802612,518
93765794,10014,-0.051147,-0.602905,-0.800049,516
93775779,9985,-0.047852,-0.604004,-0.798218,514
93785791,10012,-0.041504,-0.605469,-0.800781,523
93795784,9993,-0.038818,-0.606079,-0.809814,513
93805792,10008,-0.030396,-0.603271,-0.815063,522
93815778,9986,-0.021118,-0.589111,-0.817505,521
93825789,10011,-0.023682,-0.581787,-0.821899,515
93835796,10007,-0.026245,-0.577148,-0.823853,513
93845775,9979,-0.034424,-0.575317,-0.831421,516
93855808,10033,-0.039673,-0.575439,-0.837524,520
93865790,9982,-0.036865,-0.589111,-0.837402,508
93875781,9991,-0.035767,-0.598999,-0.840698,514
93895721,19940,-0.024780,-0.615112,-0.834961,517
93901678,5957,-0.025391,-0.619751,-0.829712,517
93907173,5495,0.000000,0.000000,0.000000,519
93915792,8619,-0.024780,-0.622925,-0.829834,518
93925798,10006,-0.031982,-0.619263,-0.821899,517
93935794,9996,-0.034424,-0.614624,-0.812378,506
93945776,9982,-0.039917,-0.613159,-0.807251,511
93955770,9994,-0.043701,-0.611328,-0.808960,517
93965782,10012,-0.046875,-0.605713,-0.809814,517
93975773,9991,-0.047119,-0.596191,-0.810913,517
93985769,9996,-0.040771,-0.598267,-0.813599,516
93995784,10015,-0.035034,-0.600464,-0.812012,512
94005798,10014,-0.029297,-0.599609,-0.814819,519
94015789,9991,-0.028320,-0.595825,-0.820435,514
94025779,9990,-0.028198,-0.587891,-0.827515,517
94035774,9995,-0.030396,-0.586792,-0.822266,516
94045810,10036,-0.033813,-0.589966,-0.821777,519
94055795,9985,-0.039795,-0.592773,-0.825195,518
94065792,9997,-0.045654,-0.597046,-0.823853,515
94075797,10005,-0.046143,-0.598633,-0.823120,516
94085786,9989,-0.045654,-0.596069,-0.827026,514
94095773,9987,-0.043335,-0.596680,-0.826660,516
94105773,10000,-0.038574,-0.600464,-0.824707,516
94115777,10004,-0.035400,-0.600220,-0.824707,519
94125786,10009,-0.034302,-0.598877,-0.824341,517
94135773,9987,-0.036499,-0.600952,-0.823608,516
94145769,9996,-0.040771,-0.599731,-0.823608,515
94155798,10029,-0.044556,-0.600830,-0.822266,511
94165793,9995,-0.042480,-0.600098,-0.820190,512
94175785,9992,-0.038208,-0.600464,-0.818237,505
94185775,9990,-0.035889,-0.602173,-0.821777,508
94198255,12480,-0.028687,-0.599365,-0.825562,508
94205794,7539,-0.028687,-0.600708,-0.820435,516
94215791,9997,-0.027588,-0.603271,-0.818359,514
94225776,9985,-0.025513,-0.608276,-0.818726,514
94264471,38695,-0.041992,-0.610596,-0.817017,516
94269818,5347,0.000000,0.000000,0.000000,515
94273933,4115,-0.039185,-0.609741,-0.817627,517
94279409,5476,0.000000,0.000000,0.000000,508
94283585,4176,-0.037476,-0.609253,-0.816650,516
94288846,5261,-0.034912,-0.608032,-0.812622,508
94295789,6943,0.000000,0.000000,0.000000,514
94305796,10007,-0.031128,-0.613159,-0.809692,514
94315786,9990,-0.031372,-0.612793,-0.813477,518
94325792,10006,-0.036499,-0.609497,-0.813477,513
94335787,9995,-0.039795,-0.603638,-0.812866,519
94345798,10011,-0.042358,-0.598755,-0.817017,517
94355792,9994,-0.042725,-0.593994,-0.825317,517
94365794,10002,-0.041748,-0.593262,-0.822998,523
94384650,18856,0.007080,-0.546387,-0.717041,516
94390017,5367,-0.036011,-0.613159,-0.852051,521
94395775,5758,0.000000,0.000000,0.000000,529
94405780,10005,-0.049805,-0.630371,-0.815063,531
94415797,10017,-0.049561,-0.598389,-0.801147,531
94440034,24237,-0.045532,-0.627441,-0.823730,531
94445816,5782,0.000000,0.000000,0.000000,523
94449977,4161,-0.049927,-0.622681,-0.825317,532
94455809,5832,0.000000,0.000000,0.000000,531
94465788,9979,-0.041138,-0.619629,-0.828491,526
94475776,9988,-0.035645,-0.617432,-0.823730,520
94485796,10020,-0.041138,-0.612183,-0.814697,527
94495781,9985,-0.052002,-0.609497,-0.812988,526
94505791,10010,-0.053223,-0.612183,-0.818604,524
94515794,10003,-0.053711,-0.617065,-0.828369,523
94525774,9980,-0.047729,-0.618652,-0.826904,522
94535770,9996,-0.043457,-0.616333,-0.821777,523
94545773,10003,-0.042969,-0.613892,-0.815674,522
94555789,10016,-0.040649,-0.618652,-0.813721,521
94565775,9986,-0.043335,-0.616943,-0.812622,518
94575804,10029,-0.049927,-0.608887,-0.811035,514
94585791,9987,-0.055298,-0.606567,-0.808960,521
94595779,9988,-0.050659,-0.614868,-0.805664,520
94605786,10007,-0.049805,-0.616333,-0.804565,508
94615777,9991,-0.049072,-0.613159,-0.804443,518
94625778,10001,-0.043335,-0.610107,-0.802979,507
94635813,10035,-0.037354,-0.609009,-0.805176,516
94645784,9971,-0.036987,-0.605469,-0.802368,507
94655780,9996,-0.034912,-0.609741,-0.804443,514
94665774,9994,-0.038330,-0.614014,-0.808228,516
94675769,9995,-0.039673,-0.616333,-0.811768,513
94685785,10016,-0.044312,-0.612793,-0.813110,507
94695798,10013,-0.044556,-0.615723,-0.814453,511
94705769,9971,-0.045898,-0.615967,-0.810547,513
94715791,10022,-0.048584,-0.617798,-0.807495,508
94725793,10002,-0.050049,-0.617920,-0.805054,508
94735784,9991,-0.054810,-0.611572,-0.801514,507
94745798,10014,-0.056519,-0.616089,-0.805420,509
94755789,9991,-0.056396,-0.621704,-0.805786,500
94765794,10005,-0.057739,-0.629883,-0.811279,504
94775782,9988,-0.062988,-0.624756,-0.806885,501
94785783,10001,-0.059692,-0.622314,-0.809082,501
94795790,10007,-0.059448,-0.623779,-0.812134,501
94805792,10002,-0.058105,-0.622803,-0.812256,505
94815800,10008,-0.058105,-0.623291,-0.814087,506
94825792,9992,-0.054565,-0.626587,-0.813599,506
94835791,9999,-0.051392,-0.629272,-0.813843,508
94845771,9980,-0.054199,-0.629395,-0.806885,506
94855777,10006,-0.054443,-0.623535,-0.802124,508
94865789,10012,-0.056030,-0.617065,-0.797607,507
94875771,9982,-0.058228,-0.615967,-0.796265,508
94885783,10012,-0.059326,-0.619873,-0.797607,503
94895797,10014,-0.054077,-0.618408,-0.801025,505
94905795,9998,-0.049194,-0.618408,-0.801025,512
94915779,9984,-0.048218,-0.622925,-0.801758,512
94925769,9990,-0.045044,-0.625977,-0.802246,512
94935794,10025,-0.047974,-0.623657,-0.800171,511
94945799,10005,-0.050659,-0.624268,-0.799927,512
94955781,9982,-0.054565,-0.628784,-0.801392,512
94965781,10000,-0.055054,-0.630615,-0.800049,512
94975783,10002,-0.055908,-0.634766,-0.798828,512
94985794,10011,-0.057129,-0.639648,-0.799072,512
94995790,9996,-0.054565,-0.637085,-0.797119,516
95005784,9994,-0.058716,-0.634521,-0.792236,515
95015796,10012,-0.060425,-0.634888,-0.792725,519
95025792,9996,-0.063477,-0.633423,-0.794800,518
95035784,9992,-0.065063,-0.633301,-0.797241,522
95045791,10007,-0.065918,-0.633423,-0.797363,514
95055775,9984,-0.062256,-0.633179,-0.800903,524
95065793,10018,-0.057007,-0.636108,-0.800781,523
95075775,9982,-0.056396,-0.632935,-0.802124,524
95085788,10013,-0.059937,-0.636108,-0.804443,524
95095781,9993,-0.059448,-0.632568,-0.802490,524
95105793,10012,-0.061157,-0.630493,-0.800293,524
95115781,9988,-0.066772,-0.633911,-0.800903,524
95125775,9994,-0.069458,-0.636963,-0.802368,521
95135794,10019,-0.063721,-0.639282,-0.802246,518
95145785,9991,-0.061279,-0.641479,-0.800537,523
95155780,9995,-0.061646,-0.642334,-0.797485,514
95165775,9995,-0.060669,-0.625366,-0.785645,520
95175796,10021,-0.069336,-0.640503,-0.798706,521
95185775,9979,-0.062744,-0.635498,-0.792969,519
95195795,10020,-0.063232,-0.628296,-0.786133,519
95205769,9974,-0.060669,-0.633301,-0.785645,519
95215793,10024,-0.055542,-0.632446,-0.781128,520
95225799,10006,-0.065552,-0.636475,-0.784790,512
95311581,85782,-0.076904,-0.634033,-0.764893,522
95317081,5500,0.000000,0.000000,0.000000,522
95321188,4107,-0.058594,-0.638184,-0.780273,518
95326727,5539,0.000000,0.000000,0.000000,521
95330986,4259,-0.054077,-0.636841,-0.782959,517
95336516,5530,-0.059448,-0.640625,-0.779541,515
95341825,5309,0.000000,0.000000,0.000000,513
95345822,3997,-0.066528,-0.634033,-0.774414,514
95351259,5437,0.000000,0.000000,0.000000,521
95419918,68659,-0.051636,-0.645264,-0.794434,520
95425444,5526,0.000000,0.000000,0.000000,510
95429548,4104,-0.054932,-0.639038,-0.794678,521
95435054,5506,0.000000,0.000000,0.000000,511
95439250,4196,-0.045410,-0.658203,-0.808960,520
95444811,5561,0.000000,0.000000,0.000000,514
95448907,4096,-0.036987,-0.651489,-0.796387,513
95454397,5490,-0.045898,-0.641357,-0.786865,519
95459802,5405,0.000000,0.000000,0.000000,514
95463872,4070,-0.042969,-0.661865,-0.797485,511
95469154,5282,0.000000,0.000000,0.000000,521
95473165,4011,-0.030029,-0.642700,-0.792847,511
95478666,5501,0.000000,0.000000,0.000000,519
95482871,4205,-0.036865,-0.649658,-0.789917,520
95488279,5408,-0.036621,-0.651733,-0.784058,510
95493700,5421,0.000000,0.000000,0.000000,520
95497905,4205,-0.044556,-0.642822,-0.783813,509
95503545,5640,0.000000,0.000000,0.000000,519
95507717,4172,-0.050049,-0.646973,-0.783569,518
95515783,8066,-0.057861,-0.645996,-0.780762,517
95525790,10007,-0.063721,-0.647461,-0.777710,504
95535782,9992,-0.070679,-0.653564,-0.776489,512
95545775,9993,-0.075439,-0.655762,-0.774414,511
95555782,10007,-0.076172,-0.647583,-0.760132,509
95565793,10011,-0.077026,-0.656250,-0.776367,508
95575780,9987,-0.066895,-0.669800,-0.782471,504
95585781,10001,-0.065796,-0.647461,-0.769653,502
95595792,10011,-0.060425,-0.667236,-0.787354,510
95612895,17103,-0.048950,-0.657837,-0.793091,509
95618370,5475,-0.042480,-0.670532,-0.793213,509
95625799,7429,-0.053711,-0.646118,-0.787720,507
95635775,9976,-0.044800,-0.679077,-0.799927,511
95645788,10013,-0.041382,-0.661865,-0.789062,503
95655789,10001,-0.050659,-0.679932,-0.789673,513
95665781,9992,-0.039307,-0.672729,-0.786865,513
95675788,10007,-0.048828,-0.667358,-0.778076,514
95685780,9992,-0.050659,-0.663696,-0.775024,510
95695773,9993,-0.051025,-0.659180,-0.775269,512
95705773,10000,-0.054565,-0.665894,-0.778809,520
95730825,25052,-0.057373,-0.677856,-0.776367,522
95736465,5640,-0.052979,-0.671997,-0.772095,512
95742485,6020,-0.054321,-0.667969,-0.763306,521
95748111,5626,0.000000,0.000000,0.000000,521
95755795,7684,-0.057495,-0.664307,-0.761353,512
95765793,9998,-0.050903,-0.677612,-0.774658,509
95775795,10002,-0.061035,-0.665527,-0.763184,518
95785780,9985,-0.058594,-0.670898,-0.765015,518
95795787,10007,-0.055420,-0.672974,-0.769287,517
95805776,9989,-0.055298,-0.662231,-0.756470,514
95815791,10015,-0.054443,-0.673218,-0.767822,507
95825792,10001,-0.046997,-0.665039,-0.753418,509
95835788,9996,-0.053223,-0.661621,-0.759155,515
95845796,10008,-0.042236,-0.673096,-0.762939,510
95855789,9993,-0.044189,-0.677734,-0.762573,515
95865793,10004,-0.052856,-0.673462,-0.741577,516
95875788,9995,-0.043213,-0.676270,-0.766357,505
95885770,9982,-0.046387,-0.670044,-0.758911,515
95895780,10010,-0.046265,-0.666626,-0.747314,513
95905787,10007,-0.051880,-0.666382,-0.753052,511
95915786,9999,-0.043213,-0.686401,-0.765869,516
95925795,10009,-0.038086,-0.669556,-0.753662,511
95935796,10001,-0.046265,-0.684082,-0.760742,515
95945790,9994,-0.042480,-0.677734,-0.758545,515
95955790,10000,-0.046265,-0.686401,-0.760986,514
95965797,10007,-0.046387,-0.680298,-0.753052,513
95975783,9986,-0.051025,-0.683594,-0.756714,514
95985819,10036,-0.046387,-0.688477,-0.758545,516
95995790,9971,-0.044922,-0.695435,-0.759766,519
96005774,9984,-0.044556,-0.692627,-0.761841,514
96015778,10004,-0.046753,-0.696045,-0.758179,516
96025770,9992,-0.049561,-0.693115,-0.757202,516
96035797,10027,-0.052246,-0.688354,-0.754272,513
96045789,9992,-0.053589,-0.687500,-0.752197,516
96055773,9984,-0.052490,-0.688721,-0.751709,516
96065772,9999,-0.051636,-0.687256,-0.750610,515
96075771,9999,-0.051270,-0.689331,-0.750488,515
96085780,10009,-0.046753,-0.688599,-0.749878,517
96095796,10016,-0.039063,-0.691895,-0.751953,518
96106407,10611,-0.041260,-0.690430,-0.749634,506
96118119,11712,-0.040894,-0.691650,-0.748657,515
96125775,7656,-0.040405,-0.694336,-0.749268,505
96135790,10015,-0.038330,-0.695679,-0.750488,514
96145782,9992,-0.044312,-0.696167,-0.747681,514
96155779,9997,-0.046265,-0.698120,-0.747925,511
96165809,10030,-0.036865,-0.702515,-0.766113,515
96175789,9980,-0.051147,-0.691040,-0.746094,513
96185772,9983,-0.061279,-0.697144,-0.741577,504
96195777,10005,-0.051880,-0.697266,-0.742676,511
96205771,9994,-0.052490,-0.688477,-0.747192,506
96215769,9998,-0.055664,-0.688965,-0.747070,509
96225808,10039,-0.055298,-0.690674,-0.750366,508
96235776,9968,-0.051514,-0.692627,-0.750122,511
96245793,10017,-0.049316,-0.689575,-0.750977,513
96255773,9980,-0.041504,-0.692627,-0.756470,512
96265792,10019,-0.046021,-0.692627,-0.758423,516
96275783,9991,-0.048340,-0.690796,-0.757935,515
96285791,10008,-0.050293,-0.685669,-0.756226,515
96295787,9996,-0.052246,-0.687988,-0.757080,516
96305791,10004,-0.051758,-0.678345,-0.754639,516
96315799,10008,-0.055176,-0.687012,-0.757202,518
96325781,9982,-0.057373,-0.682007,-0.750488,517
96335783,10002,-0.056641,-0.683838,-0.748535,518
96345797,10014,-0.058594,-0.682495,-0.749756,519
96355779,9982,-0.056274,-0.688110,-0.749756,518
96365776,9997,-0.054932,-0.686890,-0.749512,524
96375798,10022,-0.048218,-0.688965,-0.750732,522
96385772,9974,-0.049683,-0.688965,-0.751099,524
96395769,9997,-0.047485,-0.691406,-0.751099,523
96405787,10018,-0.044189,-0.692993,-0.752075,522
96415790,10003,-0.046265,-0.696045,-0.749756,521
96425790,10000,-0.046997,-0.696655,-0.750244,524
96435798,10008,-0.052490,-0.694336,-0.747192,520
96445776,9978,-0.053345,-0.693726,-0.747559,522
96455773,9997,-0.053711,-0.693359,-0.747192,523
96465789,10016,-0.052734,-0.696045,-0.747314,521
96475789,10000,-0.051514,-0.694946,-0.745483,511
96485789,10000,-0.051514,-0.694458,-0.743774,515
96495772,9983,-0.050903,-0.694092,-0.744507,520
96505790,10018,-0.049438,-0.692139,-0.746216,515
96515809,10019,-0.043457,-0.702026,-0.747681,508
96525785,9976,-0.051270,-0.691650,-0.741211,518
96535787,10002,-0.050781,-0.695801,-0.742676,518
96545786,9999,-0.053223,-0.694214,-0.741577,513
96555796,10010,-0.052856,-0.697754,-0.745605,508
96565797,10001,-0.053711,-0.696533,-0.742187,509
96575807,10010,-0.055542,-0.694092,-0.741699,510
96585778,9971,-0.054932,-0.693115,-0.744263,517
96595774,9996,-0.054565,-0.693359,-0.745972,518
96605775,10001,-0.054565,-0.695679,-0.748657,511
96615793,10018,-0.051758,-0.697632,-0.750610,518
96625794,10001,-0.052979,-0.691406,-0.749023,520
96635779,9985,-0.055420,-0.694946,-0.750610,514
96645770,9991,-0.056885,-0.692749,-0.750366,520
96655772,10002,-0.059937,-0.692017,-0.749878,520
96665795,10023,-0.060303,-0.689331,-0.747070,518
96675794,9999,-0.056030,-0.688843,-0.748657,508
96685777,9983,-0.055786,-0.688843,-0.749390,520
96695808,10031,-0.054077,-0.688354,-0.749634,518
96705797,9989,-0.051758,-0.688354,-0.751221,516
96715783,9986,-0.053589,-0.690918,-0.750854,517
96733085,17302,-0.052246,-0.691772,-0.750244,508
96739038,5953,-0.053833,-0.692139,-0.748901,508
96745777,6739,-0.053955,-0.690063,-0.747559,517
96755781,10004,-0.053467,-0.689697,-0.747070,511
96765798,10017,-0.056763,-0.689575,-0.744629,508
96775779,9981,-0.051514,-0.697021,-0.750610,508
96785769,9990,-0.062500,-0.692017,-0.748413,514
96795791,10022,-0.056885,-0.695068,-0.747070,512
96805778,9987,-0.051392,-0.697632,-0.752197,513
96815784,10006,-0.050659,-0.702759,-0.751587,509
96825796,10012,-0.051880,-0.702881,-0.751709,507
96835796,10000,-0.051758,-0.699951,-0.750000,517
96845791,9995,-0.051636,-0.701904,-0.748413,516
96855796,10005,-0.052612,-0.700073,-0.746582,516
96865774,9978,-0.053955,-0.703003,-0.746826,518
96875778,10004,-0.054321,-0.703857,-0.748169,517
96885776,9998,-0.052612,-0.710449,-0.756226,515
96895774,9998,-0.043457,-0.716064,-0.767090,512
96905798,10024,-0.057495,-0.698242,-0.736450,514
96915788,9990,-0.046143,-0.723755,-0.757690,512
96925790,10002,-0.043091,-0.695068,-0.738770,515
96935774,9984,-0.059814,-0.713135,-0.760376,506
96945775,10001,-0.075684,-0.687256,-0.734375,516
96955789,10014,-0.071411,-0.694092,-0.760498,511
96965798,10009,-0.080811,-0.691162,-0.747070,511
96975776,9978,-0.065430,-0.686523,-0.729858,509
96985793,10017,-0.074463,-0.683105,-0.732178,520
96995775,9982,-0.055908,-0.704468,-0.749512,513
97005784,10009,-0.066528,-0.675415,-0.729370,519
97015782,9998,-0.055664,-0.705688,-0.744873,517
97025775,9993,-0.061768,-0.688232,-0.739014,519
97035783,10008,-0.068604,-0.692261,-0.728271,521
97045789,10006,-0.066040,-0.699829,-0.741699,525
97055785,9996,-0.060181,-0.700684,-0.737305,520
97065778,9993,-0.067627,-0.696533,-0.733765,524
97075781,10003,-0.064209,-0.701172,-0.734375,520
97085781,10000,-0.065063,-0.702515,-0.729980,520
97095781,10000,-0.068970,-0.702881,-0.727051,524
97105778,9997,-0.067627,-0.703247,-0.728271,513
97115769,9991,-0.063110,-0.703735,-0.731445,524
97125796,10027,-0.067749,-0.700317,-0.731812,519
97135802,10006,-0.064575,-0.698120,-0.733276,511
97145792,9990,-0.061646,-0.701294,-0.733521,518
97155785,9993,-0.055176,-0.702148,-0.739868,521
97165793,10008,-0.056030,-0.702515,-0.739746,517
97175794,10001,-0.056763,-0.699097,-0.736694,518
97185778,9984,-0.057861,-0.701416,-0.739136,519
97195781,10003,-0.062134,-0.704590,-0.739868,518
97205786,10005,-0.062622,-0.703735,-0.742310,519
97215797,10011,-0.066284,-0.703491,-0.741455,518
97225795,9998,-0.067383,-0.702759,-0.741333,513
97235781,9986,-0.068970,-0.706665,-0.744141,516
97245814,10033,-0.067505,-0.707153,-0.744263,518
97255781,9967,-0.068359,-0.707153,-0.741211,512
97265779,9998,-0.067993,-0.702026,-0.739990,520
97275782,10003,-0.071167,-0.697754,-0.736572,518
97285789,10007,-0.067749,-0.707764,-0.740601,509
97295774,9985,-0.069336,-0.698853,-0.741943,519
97305790,10016,-0.071289,-0.693115,-0.732300,520
97315798,10008,-0.074829,-0.697998,-0.736328,520
97325772,9974,-0.071533,-0.699585,-0.739136,518
97343310,17538,-0.071899,-0.697754,-0.741333,510
97349369,6059,-0.068970,-0.697266,-0.742187,518
97355772,6403,-0.069458,-0.696655,-0.742432,524
97365778,10006,-0.068848,-0.698608,-0.743774,517
97375778,10000,-0.068726,-0.698608,-0.744629,519
97385775,9997,-0.068115,-0.698242,-0.746216,517
97395779,10004,-0.071533,-0.695679,-0.746826,515
97405788,10009,-0.070190,-0.697510,-0.748169,517
97415789,10001,-0.067993,-0.698730,-0.746826,517
97425796,10007,-0.068237,-0.701782,-0.744995,516
97435788,9992,-0.069458,-0.696533,-0.742920,506
97448064,12276,-0.069214,-0.696777,-0.739746,516
97455785,7721,-0.071899,-0.693848,-0.738770,514
97465792,10007,-0.072876,-0.700439,-0.737915,508
97475794,10002,-0.074097,-0.703613,-0.739258,507
97485779,9985,-0.071655,-0.712646,-0.740234,516
97495789,10010,-0.069092,-0.707642,-0.740845,517
97505789,10000,-0.065552,-0.707764,-0.742432,517
97515799,10010,-0.069824,-0.712036,-0.746216,512
97525776,9977,-0.071899,-0.709106,-0.746948,515
97535786,10010,-0.072632,-0.709473,-0.746582,516
97549872,14086,-0.072632,-0.702759,-0.750732,517
97555778,5906,0.000000,0.000000,0.000000,511
97565791,10013,-0.068604,-0.702026,-0.750244,515
97575792,10001,-0.072510,-0.693481,-0.746216,515
97585772,9980,-0.072876,-0.692993,-0.741699,506
97595770,9998,-0.067749,-0.690796,-0.749023,515
97605791,10021,-0.063721,-0.692383,-0.750732,508
97615770,9979,-0.068970,-0.688232,-0.738770,514
97625771,10001,-0.065918,-0.691406,-0.743408,516
97635782,10011,-0.068604,-0.680298,-0.744263,516
97645795,10013,-0.074097,-0.673950,-0.740723,512
97655791,9996,-0.073853,-0.680664,-0.743042,516
97665781,9990,-0.079956,-0.682617,-0.739258,505
97675806,10025,-0.082153,-0.683716,-0.739990,512
97685797,9991,-0.082031,-0.686035,-0.750610,517
97695777,9980,-0.079102,-0.681519,-0.740479,518
97705770,9993,-0.090576,-0.674316,-0.732666,521
97715786,10016,-0.086792,-0.679810,-0.738037,522
97725784,9998,-0.083618,-0.684814,-0.742920,520
97735793,10009,-0.079468,-0.684326,-0.742187,521
97745773,9980,-0.077515,-0.683838,-0.742187,523
97755798,10025,-0.072388,-0.686035,-0.745972,525
97765794,9996,-0.067871,-0.687622,-0.748413,516
97775773,9979,-0.067627,-0.695679,-0.750977,521
97785822,10049,-0.068848,-0.698853,-0.751221,526
97795796,9974,-0.068970,-0.695801,-0.749634,524
97805798,10002,-0.070557,-0.694336,-0.748291,525
97815790,9992,-0.071411,-0.696899,-0.748657,523
97825791,10001,-0.072754,-0.699097,-0.746460,521
97835778,9987,-0.077271,-0.692261,-0.743408,530
97845771,9993,-0.076050,-0.702026,-0.743530,521
97855778,10007,-0.080078,-0.699585,-0.738525,520
97865797,10019,-0.083008,-0.693115,-0.740234,513
97875781,9984,-0.087646,-0.705444,-0.740479,518
97885769,9988,-0.083984,-0.702637,-0.742920,515
97895778,10009,-0.082642,-0.699097,-0.747070,512
97905789,10011,-0.080811,-0.700806,-0.748169,514
97915770,9981,-0.072632,-0.703735,-0.751953,515
97925789,10019,-0.072632,-0.703491,-0.750610,516
97935769,9980,-0.064331,-0.703125,-0.756958,514
97945779,10010,-0.067993,-0.701416,-0.751831,517
97961779,16000,-0.068481,-0.701538,-0.747437,519
97967397,5618,0.000000,0.000000,0.000000,519
97975775,8378,-0.072266,-0.696167,-0.746094,518
97985777,10002,-0.076294,-0.695312,-0.739014,517
97995775,9998,-0.073120,-0.692993,-0.738037,516
98005782,10007,-0.077637,-0.686768,-0.734985,518
98015781,9999,-0.074707,-0.682739,-0.736206,516
98025797,10016,-0.072998,-0.685913,-0.742065,516
98035777,9980,-0.067505,-0.683960,-0.747437,514
98045776,9999,-0.068115,-0.671021,-0.750732,516
98055777,10001,-0.064819,-0.675415,-0.753906,517
98065794,10017,-0.070312,-0.680298,-0.757690,517
98075779,9985,-0.070068,-0.680664,-0.756104,514
98085797,10018,-0.070557,-0.682129,-0.754761,520
98095796,9999,-0.073853,-0.684692,-0.753052,512
98105776,9980,-0.070923,-0.689941,-0.754761,520
98115797,10021,-0.072998,-0.693237,-0.756592,513
98125794,9997,-0.069092,-0.693604,-0.757812,518
98135774,9980,-0.071899,-0.684692,-0.759155,512
98145796,10022,-0.083984,-0.661011,-0.759277,510
98157066,11270,-0.073853,-0.673828,-0.764404,517
98165781,8715,-0.075806,-0.673584,-0.762451,518
98175784,10003,-0.077271,-0.670044,-0.761963,511
98185797,10013,-0.073242,-0.676147,-0.762573,519
98195792,9995,-0.069214,-0.681641,-0.760132,519
98205789,9997,-0.070679,-0.678711,-0.760254,520
98215799,10010,-0.067993,-0.671997,-0.761719,516
98225792,9993,-0.067139,-0.674072,-0.762085,508
98235810,10018,-0.067383,-0.677002,-0.762329,514
98245791,9981,-0.068115,-0.666260,-0.763550,514
98255783,9992,-0.070312,-0.664062,-0.768799,507
98265778,9995,-0.047974,-0.659546,-0.796509,506
98275769,9991,-0.075928,-0.655884,-0.776978,510
98285787,10018,-0.084839,-0.669434,-0.753052,511
98295796,10009,-0.063843,-0.686768,-0.770996,511
98308099,12303,-0.045166,-0.655518,-0.787354,513
98315778,7679,0.000000,0.000000,0.000000,515
98325789,10011,-0.060913,-0.646606,-0.793213,516
98335780,9991,-0.058350,-0.655273,-0.799805,518
98345778,9998,-0.063843,-0.670044,-0.807983,515
98355796,10018,-0.072021,-0.642334,-0.780640,522
98365786,9990,-0.050293,-0.618164,-0.788208,513
98375783,9997,-0.128540,-0.621948,-0.828857,524
98385797,10014,-0.054199,-0.630981,-0.793579,525
98395785,9988,-0.059814,-0.620483,-0.801025,518
98405776,9991,-0.088745,-0.629517,-0.807129,528
98415812,10036,-0.096680,-0.636963,-0.809570,519
98425774,9962,-0.066528,-0.597900,-0.793091,526
98435786,10012,-0.055664,-0.624878,-0.811523,526
98445776,9990,-0.098145,-0.615845,-0.800415,527
98455773,9997,-0.058350,-0.617798,-0.804077,526
98465779,10006,-0.075684,-0.602051,-0.798706,522
98475787,10008,-0.063843,-0.598877,-0.801147,526
98485774,9987,-0.045410,-0.601807,-0.797119,526
98495773,9999,-0.045410,-0.609619,-0.799438,524
98505786,10013,-0.047729,-0.612915,-0.804565,524
98515790,10004,-0.054932,-0.605713,-0.801880,514
98525772,9982,-0.059570,-0.607178,-0.803711,516
98535775,10003,-0.059937,-0.612915,-0.793335,524
98545781,10006,-0.059326,-0.616577,-0.793457,518
98555797,10016,-0.061768,-0.613770,-0.784546,519
98565787,9990,-0.062866,-0.625244,-0.788208,510
98575788,10001,-0.066284,-0.636353,-0.790527,513
98585784,9996,-0.065796,-0.636353,-0.783081,513
98595788,10004,-0.067017,-0.651978,-0.785522,509
98605806,10018,-0.060913,-0.655151,-0.785278,517
98615778,9972,-0.063354,-0.660889,-0.787598,516
98625795,10017,-0.061401,-0.672729,-0.788208,516
98635790,9995,-0.063843,-0.675293,-0.785522,514
98645782,9992,-0.062012,-0.678101,-0.779297,514
98655798,10016,-0.063843,-0.675537,-0.777222,514
98665780,9982,-0.065918,-0.679810,-0.779053,514
98675772,9992,-0.071533,-0.684937,-0.778809,507
98685781,10009,-0.069336,-0.681030,-0.771240,513
98695783,10002,-0.066772,-0.679321,-0.769897,513
98705770,9987,-0.065674,-0.679810,-0.764038,509
98715820,10050,-0.062622,-0.677856,-0.759521,510
98725793,9973,-0.063232,-0.675293,-0.758911,514
98735783,9990,-0.064209,-0.671631,-0.759644,517
98745775,9992,-0.063599,-0.666870,-0.758423,515
98755782,10007,-0.064209,-0.672607,-0.758667,515
98765774,9992,-0.061279,-0.672729,-0.760132,514
98775789,10015,-0.060669,-0.674194,-0.762085,516
98785811,10022,-0.057983,-0.675171,-0.760864,519
98795792,9981,-0.057617,-0.674316,-0.760498,513
98805777,9985,-0.057373,-0.674561,-0.760620,516
98815774,9997,-0.057861,-0.675903,-0.759033,518
98825788,10014,-0.062378,-0.679443,-0.759644,510
98835772,9984,-0.062256,-0.678467,-0.758545,517
98845799,10027,-0.066040,-0.674927,-0.751953,515
98855792,9993,-0.069092,-0.677002,-0.754761,519
98865788,9996,-0.071045,-0.682495,-0.757446,508
98875783,9995,-0.069458,-0.683960,-0.755249,517
98885784,10001,-0.066895,-0.688965,-0.760010,510
98934105,48321,-0.067871,-0.687256,-0.754761,516
98939475,5370,0.000000,0.000000,0.000000,516
98943465,3990,-0.068604,-0.689331,-0.754272,517
98948867,5402,0.000000,0.000000,0.000000,515
98953027,4160,-0.054321,-0.683838,-0.750122,512
98958515,5488,0.000000,0.000000,0.000000,516
98962707,4192,-0.067383,-0.688721,-0.750488,516
98968344,5637,-0.070068,-0.689087,-0.749512,516
98975796,7452,-0.062012,-0.684814,-0.753418,516
98985794,9998,-0.066040,-0.686157,-0.754395,511
98995797,10003,-0.059937,-0.688110,-0.753296,511
99005788,9991,-0.057129,-0.688354,-0.751587,517
99015776,9988,-0.058960,-0.689453,-0.751831,513
99025778,10002,-0.057251,-0.691772,-0.750366,508
99035779,10001,-0.058716,-0.688354,-0.749634,522
99045770,9991,-0.057739,-0.688477,-0.750488,508
99055795,10025,-0.060181,-0.689331,-0.748535,519
99065775,9980,-0.061768,-0.692383,-0.749268,512
99075783,10008,-0.064575,-0.692505,-0.750610,522
99085810,10027,-0.062622,-0.694702,-0.751953,521
99095780,9970,-0.060913,-0.693726,-0.751831,521
99105795,10015,-0.060547,-0.692993,-0.752075,524
99115770,9975,-0.062134,-0.688843,-0.751709,522
99125780,10010,-0.063354,-0.690552,-0.753662,519
99135779,9999,-0.062744,-0.691284,-0.753174,527
99145791,10012,-0.064453,-0.691284,-0.751465,526
99155776,9985,-0.064209,-0.690430,-0.750122,524
99165796,10020,-0.065674,-0.687012,-0.748779,525
99175793,9997,-0.063232,-0.686401,-0.750977,523
99185785,9992,-0.061768,-0.688354,-0.752808,524
99195780,9995,-0.063843,-0.689087,-0.753662,522
99205776,9996,-0.063232,-0.686157,-0.752075,520
99215791,10015,-0.063843,-0.687866,-0.751709,512
99225795,10004,-0.062012,-0.688965,-0.750000,520
99235785,9990,-0.062500,-0.687622,-0.750732,519
99245797,10012,-0.062866,-0.685669,-0.749268,516
99255773,9976,-0.061890,-0.683960,-0.748047,517
