t_us,dt_us,ax,ay,az,ppg
43405629,10010,1.152588,0.234253,0.343140,528
43415641,10012,1.159424,0.239868,0.359253,530
43425648,10007,1.153809,0.239014,0.371216,524
43435641,9993,1.144165,0.215942,0.380615,526
43445629,9988,1.116455,0.183716,0.390259,528
43455631,10002,1.093872,0.118164,0.404419,526
43465622,9991,1.065186,0.041138,0.381836,531
43475639,10017,1.036377,0.023682,0.368896,530
43485639,10000,1.007446,0.032593,0.373169,540
43495641,10002,0.970947,0.045166,0.364990,534
43505626,9985,0.968018,0.038818,0.362793,536
43515632,10006,0.977417,-0.016357,0.352539,542
43525635,10003,0.991089,-0.002808,0.347534,541
43535640,10005,1.001465,-0.026611,0.343384,544
43545634,9994,1.019165,-0.063354,0.323853,546
43555633,9999,1.034546,-0.001099,0.301636,549
43565632,9999,1.078735,0.018921,0.272949,547
43575635,10003,1.084839,0.098022,0.233521,549
43585663,10028,1.091431,0.151367,0.121582,548
43595620,9957,1.217041,-0.038086,0.149292,542
43605621,10001,1.248047,-0.058716,0.138794,536
43615637,10016,1.257446,-0.082642,0.169189,532
43625639,10002,1.267456,-0.085815,0.164917,530
43635640,10001,1.276123,-0.074951,0.161621,540
43645648,10008,1.313721,-0.085205,0.182251,541
43655630,9982,1.300537,-0.108521,0.182861,556
43665634,10004,1.280273,-0.098877,0.186279,570
43675624,9990,1.241699,-0.080078,0.170532,578
43685623,9999,1.215210,-0.060669,0.164551,594
43695644,10021,1.192871,-0.049805,0.159790,602
43705624,9980,1.157593,-0.062256,0.145264,605
43715623,9999,1.172974,-0.070679,0.131348,603
43725642,10019,1.203369,-0.076294,0.102295,598
43735640,9998,1.211670,-0.082153,0.064697,591
43745627,9987,1.178101,-0.088257,0.028687,569
43755634,10007,1.069336,-0.088257,-0.032471,563
43765648,10014,1.003906,-0.090210,-0.058472,542
43775633,9985,0.960205,-0.089355,-0.072266,533
43785640,10007,0.933350,-0.085937,-0.077393,519
43795636,9996,0.922485,-0.086182,-0.071533,512
43805656,10020,0.926025,-0.092285,-0.038574,504
43815636,9980,0.983276,-0.107544,-0.017944,499
43825644,10008,1.020752,-0.107544,0.003296,496
43835645,10001,1.060547,-0.108398,0.028687,508
43845624,9979,1.091309,-0.109863,0.056274,512
43855628,10004,1.108154,-0.110596,0.081299,510
43865645,10017,1.099731,-0.107910,0.119507,520
43875642,9997,1.084473,-0.107666,0.131226,528
43885632,9990,1.074097,-0.112793,0.137207,529
43895629,9997,1.067383,-0.128662,0.138306,528
43905631,10002,1.064819,-0.144653,0.131714,528
43915644,10013,1.031128,-0.202148,0.103394,528
43925619,9975,1.015015,-0.229248,0.097168,522
43935626,10007,1.001343,-0.239014,0.101685,519
43945621,9995,0.989868,-0.223877,0.127441,515
43955635,10014,0.989746,-0.179565,0.157349,505
43965633,9998,1.004883,-0.093750,0.209351,506
43975630,9997,1.077271,-0.067261,0.227661,502
43985634,10004,1.098145,-0.055420,0.235962,494
43995628,9994,1.103638,-0.052612,0.239868,493
44005646,10018,1.098267,-0.055908,0.239502,500
44015642,9996,1.080322,-0.059692,0.239136,495
44025629,9987,0.996460,-0.055298,0.245972,498
44035635,10006,0.948608,-0.047363,0.253784,489
44045632,9997,0.908569,-0.040039,0.259155,496
44055629,9997,0.886475,-0.040894,0.268555,494
44065642,10013,0.882812,-0.043823,0.284302,489
44075621,9979,0.898560,-0.036377,0.322510,489
44085647,10026,0.922974,-0.024170,0.336060,490
44095642,9995,0.945801,-0.005859,0.352295,489
44105644,10002,0.959229,0.020874,0.368042,480
44115643,9999,0.965820,0.058472,0.389160,487
44125622,9979,0.966675,0.129150,0.410034,481
44135627,10005,0.963989,0.145386,0.402710,476
44145625,9998,0.961426,0.147095,0.391357,473
44155637,10012,0.956055,0.134033,0.379639,475
44165645,10008,0.947510,0.114502,0.368164,465
44175648,10003,0.941284,0.094604,0.356445,470
44185619,9971,0.953613,0.062866,0.343872,469
44195631,10012,0.965698,0.053589,0.347046,464
44205644,10013,0.965332,0.059204,0.359375,474
44215640,9996,0.960327,0.076904,0.367798,480
44225621,9981,0.964233,0.095459,0.366943,491
44235627,10006,0.959595,0.151489,0.351440,499
44245639,10012,0.967529,0.207275,0.371582,523
44255654,10015,0.975342,0.244507,0.370605,529
44265632,9978,0.998413,0.237427,0.354004,545
44275620,9988,1.000244,0.183472,0.320435,555
44285643,10023,1.029785,0.067993,0.248535,558
44295633,9990,1.046997,0.020630,0.226074,571
44305640,10007,1.068115,-0.015259,0.212402,576
44315643,10003,1.096313,-0.042480,0.202515,571
44325642,9999,1.134888,-0.035400,0.187134,575
44335645,10003,1.162842,0.086914,0.186401,570
44345632,9987,1.156494,0.147339,0.219727,566
44355638,10006,1.143188,0.160034,0.270996,567
44365626,9988,1.129272,0.193604,0.295044,560
44375640,10014,1.088135,0.133423,0.302856,547
44385630,9990,1.031250,0.009277,0.252686,534
44395633,10003,1.142700,0.051880,0.179443,528
44405631,9998,1.166992,0.014038,0.143799,521
44415635,10004,1.194214,0.040649,0.147461,518
44425670,10035,1.166260,0.129395,0.170288,516
44435632,9962,1.088135,0.213257,0.190796,521
44445626,9994,1.021118,0.181519,0.213257,518
44455635,10009,1.088501,0.099854,0.231934,518
44465624,9989,1.069824,-0.159546,0.271484,510
44475633,10009,0.869019,-0.343384,0.112915,511
44485632,9999,0.876953,-0.126465,0.162231,523
44495647,10015,0.958618,0.497192,0.179565,522
44505636,9989,0.949951,0.331909,0.169800,523
44515633,9997,0.982788,0.220337,0.202271,528
44525654,10021,0.991455,0.252686,0.230591,526
44535658,10004,0.986450,0.338013,0.224609,525
44545625,9967,0.989502,0.372559,0.207764,521
44555622,9997,1.017578,0.245361,0.210205,524
44565638,10016,1.000000,0.185791,0.208374,533
44575638,10000,0.974121,0.183105,0.204712,529
44585619,9981,0.989014,0.177979,0.218506,538
44595621,10002,1.000732,0.148071,0.224243,541
44605620,9999,0.973633,0.053589,0.182983,549
44615648,10028,0.960693,-0.002808,0.180298,550
44625645,9997,0.950073,-0.048828,0.184937,545
44635639,9994,0.931396,-0.058472,0.198486,531
44645637,9998,0.908203,-0.037964,0.213501,519
44655645,10008,0.916016,-0.029053,0.229736,514
44665625,9980,0.952637,-0.034546,0.210571,498
44675637,10012,1.004028,-0.033203,0.192261,485
44685620,9983,1.013916,-0.022461,0.193970,473
44695637,10017,1.009644,-0.023071,0.223389,471
44705638,10001,1.000854,-0.026978,0.243042,469
44715636,9998,1.019165,-0.062500,0.223755,468
44725640,10004,1.010376,-0.081787,0.195435,468
44735640,10000,0.994507,-0.094360,0.183716,467
44745648,10008,0.975586,-0.126099,0.188110,467
44755626,9978,0.956787,-0.160156,0.196167,468
44765642,10016,0.945923,-0.183960,0.199219,462
44775648,10006,0.948608,-0.203979,0.193115,458
44785629,9981,0.933960,-0.229614,0.171143,460
44795638,10009,0.910889,-0.209961,0.155884,466
44805648,10010,0.904175,-0.183105,0.152344,483
44815619,9971,0.947510,-0.125977,0.148193,491
44825638,10019,0.947510,-0.138306,0.157227,498
44835664,10026,0.930420,-0.153931,0.172119,516
44845641,9977,0.893555,-0.161499,0.181519,519
44855644,10003,0.888794,-0.178345,0.190674,536
44865623,9979,0.940430,-0.240601,0.175415,534
44875632,10009,1.003662,-0.266113,0.166016,547
44885623,9991,1.059570,-0.278198,0.164673,551
44895627,10004,1.101807,-0.282227,0.160522,556
44905628,10001,1.106689,-0.267700,0.184570,556
44915631,10003,1.065796,-0.284790,0.246582,550
44925620,9989,1.094116,-0.300781,0.254639,544
44935639,10019,0.973267,-0.304321,0.218750,540
44945625,9986,1.052979,-0.307495,0.274292,524
44955642,10017,1.001709,-0.327881,0.246826,526
44965628,9986,0.957886,-0.324829,0.210571,520
44975627,9999,0.975098,-0.226685,0.226074,515
44985627,10000,0.948486,-0.231934,0.221069,504
44995627,10000,0.963867,-0.265137,0.219604,510
45005636,10009,1.011597,-0.284058,0.213989,503
45015635,9999,1.063477,-0.276978,0.213257,509
45025620,9985,1.088501,-0.252441,0.233154,505
45035644,10024,1.071411,-0.252563,0.259277,511
45045626,9982,1.063232,-0.250732,0.286499,510
45055635,10009,1.075439,-0.243530,0.306519,508
45065635,10000,1.107422,-0.229370,0.322632,503
45075629,9994,1.131958,-0.204102,0.361816,499
45085641,10012,1.158936,-0.145630,0.385498,491
45095646,10005,1.172852,-0.126465,0.407471,490
45105638,9992,1.199463,-0.119995,0.419067,487
45115639,10001,1.246094,-0.131592,0.418457,487
45125646,10007,1.283813,-0.150269,0.417603,491
45135640,9994,1.224609,-0.152466,0.412598,493
45145631,9991,1.145752,-0.131470,0.431152,483
45155643,10012,1.078613,-0.097534,0.447510,493
45165623,9980,1.011108,-0.063721,0.462769,493
45175632,10009,0.977295,-0.062134,0.470947,492
45185625,9993,0.875122,-0.032715,0.484863,502
45195646,10021,0.867187,-0.004517,0.492920,500
45205621,9975,0.795044,0.046021,0.484497,507
45215642,10021,0.769775,0.082764,0.467407,511
45225638,9996,0.786377,0.061646,0.449829,509
45235647,10009,0.788452,-0.019897,0.398193,522
45245643,9996,0.803101,-0.078613,0.378052,517
45261486,15843,0.809448,-0.110962,0.344727,528
45267567,6081,0.000000,0.000000,0.000000,530
45275628,8061,0.837891,-0.161987,0.336548,532
45285638,10010,0.850220,-0.216553,0.316162,542
45295620,9982,0.914307,-0.110840,0.289429,551
45305626,10006,0.920898,-0.101929,0.282837,561
45315621,9995,0.956787,-0.156616,0.290161,568
45325640,10019,0.950439,-0.185181,0.266602,572
45335632,9992,0.978638,-0.155518,0.271118,574
45345636,10004,1.056152,-0.137207,0.287231,572
45355648,10012,1.040649,-0.187012,0.294189,575
45365632,9984,1.006348,-0.182251,0.257446,577
45375661,10029,1.053955,-0.106079,0.223389,583
45385632,9971,1.042847,-0.086304,0.207642,583
45395635,10003,1.000244,-0.263062,0.162598,584
45405637,10002,0.993774,-0.260010,0.160645,579
45415629,9992,0.995117,-0.211670,0.171509,566
45425626,9997,0.991943,-0.190308,0.164673,558
45435643,10017,1.019531,-0.197144,0.167969,557
45445622,9979,1.062988,-0.183838,0.180054,557
45455638,10016,1.095093,-0.108032,0.182983,552
45465629,9991,1.108643,-0.101440,0.181274,556
45475630,10001,1.113770,-0.113159,0.176514,552
45485642,10012,1.111084,-0.116089,0.169556,543
45495663,10021,1.099976,-0.101074,0.166260,545
45505623,9960,1.090820,-0.059082,0.169678,543
45515640,10017,1.094971,-0.034790,0.172119,538
45525648,10008,1.096680,-0.012573,0.172852,531
45535626,9978,1.091431,0.006958,0.166870,536
45545620,9994,1.068237,0.024658,0.153809,536
45555644,10024,0.976685,0.078613,0.138306,527
45565638,9994,0.928467,0.098145,0.148193,528
45575619,9981,0.899048,0.116089,0.162842,521
45585640,10021,0.871338,0.134766,0.181152,506
45595659,10019,0.850464,0.148926,0.199585,501
45605653,9994,0.841064,0.154419,0.247681,491
45615630,9977,0.847778,0.137573,0.234863,476
45625621,9991,0.853638,0.126221,0.244141,468
45635640,10019,0.860962,0.126709,0.252441,468
45645647,10007,0.871826,0.137207,0.253418,457
45655646,9999,0.892578,0.144531,0.255981,462
45665642,9996,0.939087,0.132935,0.262451,472
45675644,10002,0.965698,0.107422,0.259644,480
45685630,9986,0.999634,0.076172,0.249512,486
45695641,10011,1.038330,0.032104,0.243408,494
45705635,9994,1.067871,0.000488,0.240723,503
45715665,10030,1.057861,-0.022339,0.253906,511
45725631,9966,1.035522,-0.015259,0.267944,515
45735620,9989,1.015869,-0.004395,0.283691,518
45745642,10022,1.002930,0.012085,0.293457,523
45755630,9988,0.992676,0.041748,0.297119,522
45765643,10013,0.971924,0.088867,0.303833,526
45775644,10001,0.936279,0.079712,0.300293,523
45785636,9992,0.934814,0.084473,0.292236,513
45795627,9991,0.964844,0.062012,0.296753,508
45805645,10018,0.967041,0.026489,0.285034,510
45815649,10004,0.992798,0.005859,0.286865,497
45825628,9979,0.986816,-0.022339,0.287598,502
45835631,10003,0.980469,-0.061768,0.295654,498
45845649,10018,0.962402,-0.091309,0.295044,491
45855622,9973,0.966187,-0.092285,0.302368,499
45865634,10012,0.965210,-0.087036,0.310303,495
45875646,10012,0.905273,-0.077881,0.294678,502
45885620,9974,1.063965,-0.109741,0.293701,505
45895637,10017,0.973511,-0.113892,0.330811,498
45905622,9985,0.943115,-0.082397,0.303467,515
45915639,10017,0.927368,-0.093872,0.323486,517
45925624,9985,0.910278,-0.145996,0.349609,524
45935632,10008,0.845093,0.012573,0.328247,525
45945625,9993,0.968750,-0.094360,0.327515,518
45955629,10004,0.801880,0.088013,0.293091,507
45965642,10013,0.916748,0.135498,0.278931,505
45975640,9998,0.926636,0.012817,0.233765,490
45985643,10003,0.873413,-0.214722,0.259888,488
45995641,9998,0.900024,-0.161011,0.227661,482
46005641,10000,0.972290,-0.131226,0.312378,473
46015630,9989,0.853638,-0.192993,0.254150,466
46025629,9999,0.921021,-0.206055,0.300293,471
46035653,10024,0.935181,-0.135986,0.299805,467
46045628,9975,0.935181,-0.123169,0.291992,470
46055627,9999,0.942139,-0.146484,0.261841,474
46065644,10017,0.938599,-0.123535,0.270264,477
46075634,9990,0.949585,-0.093140,0.294312,477
46085621,9987,0.913696,-0.104736,0.300415,474
46095626,10005,0.910278,-0.091187,0.331787,486
46105621,9995,0.916626,-0.109253,0.359131,487
46115639,10018,0.910278,-0.169556,0.374146,487
46125628,9989,0.929077,-0.229858,0.387695,496
46135636,10008,0.944214,-0.248291,0.398193,492
46145671,10035,0.946777,-0.219360,0.413452,500
46155641,9970,0.930176,-0.212036,0.414307,497
46165623,9982,0.950928,-0.210571,0.405273,488
46175642,10019,0.928345,-0.203369,0.399658,471
46185647,10005,0.959229,-0.188599,0.403442,468
46195633,9986,1.013184,-0.270752,0.415771,455
46205647,10014,1.034058,-0.277710,0.428833,453
46215621,9974,1.069092,-0.261597,0.449585,451
46225625,10004,1.116333,-0.238281,0.475342,449
46235629,10004,1.148682,-0.209595,0.493774,443
46245625,9996,1.203979,-0.165771,0.497437,447
46255650,10025,1.202393,-0.152832,0.486084,447
46265643,9993,1.198975,-0.148315,0.479248,449
46275634,9991,1.211060,-0.140991,0.467896,447
46285640,10006,1.210205,-0.134155,0.458618,452
46295624,9984,1.198486,-0.134766,0.416504,463
46305638,10014,1.148193,-0.098999,0.408447,470
46315636,9998,1.101685,-0.096313,0.387085,484
46325619,9983,1.057007,-0.102661,0.365479,492
46335620,10001,1.048828,-0.123169,0.353638,503
46345634,10014,0.993408,-0.095703,0.326782,509
46355669,10035,0.941650,-0.035278,0.293091,514
46365626,9957,0.940430,-0.023926,0.283203,530
46375623,9997,0.944702,-0.039795,0.282837,532
46385637,10014,0.940308,-0.093628,0.275269,543
46395646,10009,0.955078,-0.147461,0.272339,547
46405625,9979,0.951050,-0.170410,0.237305,553
46415641,10016,0.974731,-0.183960,0.236938,552
46425624,9983,0.981445,-0.200195,0.233032,559
46435622,9998,0.974731,-0.196289,0.218384,557
46445619,9997,0.965088,-0.185303,0.207764,558
46455632,10013,0.967041,-0.198486,0.194092,558
46465630,9998,0.952271,-0.233154,0.185303,559
46475622,9992,0.954956,-0.251953,0.178101,557
46485629,10007,0.962036,-0.252930,0.174194,560
46495639,10010,0.971558,-0.246216,0.170288,561
46505623,9984,0.971558,-0.237427,0.167236,556
46515631,10008,0.984009,-0.229492,0.164185,554
46525632,10001,0.992432,-0.230591,0.162964,542
46535625,9993,0.998291,-0.235474,0.158081,543
46545629,10004,0.997559,-0.241577,0.153076,540
46555620,9991,0.992798,-0.245605,0.146973,529
46565637,10017,0.980103,-0.253784,0.134399,531
46575621,9984,0.969971,-0.258667,0.128174,532
46585624,10003,0.961182,-0.259644,0.119507,529
46595624,10000,0.957031,-0.257202,0.114868,520
46605648,10024,0.956787,-0.254028,0.107788,526
46615648,10000,0.947021,-0.260132,0.102539,528
46625644,9996,0.954224,-0.255005,0.101807,534
46635635,9991,0.956299,-0.247314,0.103149,548
46645634,9999,0.963379,-0.252563,0.101807,531
46655633,9999,0.980347,-0.257202,0.097534,537
46665642,10009,0.993774,-0.257080,0.089844,539
46675634,9992,1.017578,-0.253784,0.085571,539
46685625,9991,1.030884,-0.248291,0.079102,536
46695635,10010,1.047485,-0.237915,0.075928,536
46705626,9991,1.049561,-0.219360,0.070435,541
46715633,10007,1.033325,-0.216309,0.062744,540
46725631,9998,1.034668,-0.203979,0.052734,541
46735641,10010,1.036621,-0.191162,0.057739,535
46745645,10004,1.032593,-0.179932,0.066895,542
46755624,9979,1.031616,-0.171509,0.074341,539
46765636,10012,1.055542,-0.162476,0.072998,544
46775626,9990,1.186401,-0.153931,0.060791,546
46785629,10003,1.252441,-0.142944,0.054932,538
46795619,9990,1.290649,-0.131348,0.053345,536
46805621,10002,1.297607,-0.114258,0.061523,535
46815620,9999,1.264893,-0.093384,0.086182,534
46825642,10022,1.099731,-0.067749,0.146240,523
46835643,10001,0.993286,-0.067505,0.168457,516
46845626,9983,0.887451,-0.062744,0.179199,513
46855647,10021,0.799683,-0.054077,0.182983,505
46865645,9998,0.742310,-0.049561,0.186768,495
46875636,9991,0.715210,-0.045044,0.188354,487
46885639,10003,0.726929,-0.033203,0.192261,490
46895621,9982,0.758301,-0.022949,0.198975,488
46905638,10017,0.791992,-0.014893,0.216064,485
46915624,9986,0.807739,0.000122,0.245483,486
46925625,10001,0.832275,0.011353,0.264160,487
46935644,10019,0.909668,-0.016846,0.268066,483
46945643,9999,0.938965,-0.037476,0.273438,490
46955625,9982,0.985352,-0.032471,0.273682,491
46965648,10023,1.023926,-0.035522,0.283936,492
46975628,9980,1.064331,-0.071289,0.282837,495
46985626,9998,1.105469,-0.085449,0.281250,501
46995638,10012,1.132568,-0.082642,0.280396,505
47005631,9993,1.078247,-0.093506,0.262695,508
47015624,9993,1.064697,-0.102417,0.267334,517
47025632,10008,1.084717,-0.066895,0.287598,523
47035630,9998,1.081543,-0.094482,0.309937,527
47045622,9992,1.046631,-0.108521,0.336182,530
47055638,10016,0.998779,-0.063843,0.372314,529
47065674,10036,0.963135,-0.057251,0.383301,534
47075635,9961,0.967407,-0.028931,0.414062,531
47085632,9997,0.932983,-0.032104,0.445190,531
47095639,10007,0.867432,0.021606,0.491943,531
47105626,9987,0.859375,0.026733,0.509766,519
47115620,9994,0.834717,0.007690,0.511719,511
47125624,10004,0.813721,-0.010864,0.521362,506
47135627,10003,0.829956,-0.009766,0.517212,499
47145627,10000,0.883057,0.047607,0.451538,493
47155638,10011,0.901978,0.047729,0.420044,485
47165643,10005,0.903809,0.067627,0.396118,482
47175647,10004,0.924805,0.047607,0.355347,479
47185631,9984,0.951782,0.034668,0.322632,472
47195649,10018,0.968750,0.060791,0.246582,477
47205626,9977,1.013794,0.024170,0.204712,478
47215622,9996,1.031006,-0.007324,0.153809,481
47225636,10014,1.086304,-0.045898,0.120239,480
47235634,9998,1.131104,-0.064453,0.075317,493
47245625,9991,1.153809,-0.075073,0.039795,504
47255648,10023,1.153687,-0.101929,0.020996,502
47269473,13825,1.101440,-0.143677,0.004883,510
47275636,6163,1.073364,-0.135986,0.014160,514
47285629,9993,1.071655,-0.073364,0.032471,508
47295623,9994,1.060181,-0.035278,0.052612,508
47305626,10003,1.086792,0.035034,0.104370,511
47315621,9995,1.113037,0.095703,0.118774,509
47325623,10002,1.142822,0.148682,0.129517,489
47335622,9999,1.157227,0.152100,0.146851,486
47345643,10021,1.137939,0.132812,0.146240,465
47355622,9979,1.063965,0.068604,0.159302,448
47365648,10026,0.989380,-0.002197,0.161865,431
47375631,9983,0.920654,-0.089111,0.165894,408
47385634,10003,0.875122,-0.173096,0.168701,397
47395629,9995,0.876831,-0.260132,0.158081,384
47405638,10009,0.860718,-0.356079,0.160278,390
47415648,10010,0.943970,-0.489502,0.161743,366
47425643,9995,0.971069,-0.535034,0.144653,373
47435642,9999,0.953491,-0.561035,0.143555,371
47445628,9986,0.917480,-0.601807,0.138306,389
47455625,9997,0.895874,-0.632324,0.127686,401
47465624,9999,0.896606,-0.641357,0.139160,419
47475639,10015,0.902588,-0.628174,0.155029,433
47485620,9981,0.911987,-0.611816,0.168091,456
47495663,10043,0.925049,-0.587769,0.168823,477
47505629,9966,0.956909,-0.563110,0.166016,495
47515624,9995,1.023804,-0.552856,0.154053,518
47525619,9995,1.049072,-0.568481,0.153809,531
47535626,10007,1.057251,-0.605713,0.155029,535
47545620,9994,1.043335,-0.619141,0.167358,542
47555640,10020,1.041382,-0.608765,0.170776,543
47565641,10001,1.043823,-0.586060,0.178589,540
47575628,9987,1.032227,-0.533325,0.166016,537
47585640,10012,1.033569,-0.499390,0.161987,530
47595631,9991,1.044678,-0.490234,0.164429,533
47605628,9997,1.056641,-0.481079,0.169189,538
47615625,9997,1.083008,-0.493774,0.175049,536
47625647,10022,1.100342,-0.530273,0.179932,529
47635625,9978,1.124878,-0.575195,0.194214,521
47645648,10023,1.068481,-0.597656,0.146606,526
47655647,9999,1.096924,-0.521851,0.155396,521
47665630,9983,1.163818,-0.566772,0.217407,518
47675630,10000,1.124268,-0.419922,0.113403,513
47685623,9993,1.131348,-0.345947,0.164673,516
47695640,10017,1.077271,-0.370972,0.126099,518
47705644,10004,1.084717,-0.393921,0.142212,515
47715647,10003,1.121094,-0.374390,0.154663,519
47725631,9984,1.098999,-0.331787,0.159668,523
47735632,10001,1.116821,-0.339233,0.163086,526
47745630,9998,1.120728,-0.346680,0.164062,527
47755641,10011,1.104370,-0.353882,0.154663,524
47765625,9984,1.098755,-0.349121,0.145996,533
47775629,10004,1.089722,-0.348145,0.103027,537
47785620,9991,1.047974,-0.384521,0.099609,540
47795627,10007,1.034912,-0.390869,0.087280,545
47805643,10016,1.024170,-0.374878,0.079834,543
47815634,9991,1.016846,-0.335205,0.067749,553
47825619,9985,1.019531,-0.280762,0.069580,548
47835633,10014,1.062378,-0.253418,0.073364,550
47845620,9987,1.079102,-0.270142,0.088989,558
47855641,10021,1.071045,-0.257202,0.097412,555
47865642,10001,1.064819,-0.215576,0.111206,547
47875622,9980,1.059692,-0.176147,0.126587,547
47885620,9998,1.031738,-0.170410,0.128052,542
47895646,10026,1.028931,-0.168823,0.122437,536
47905638,9992,1.019043,-0.146362,0.114502,537
47915661,10023,1.001221,-0.117310,0.126343,528
47925648,9987,0.984131,-0.083252,0.161743,527
47935623,9975,0.977173,-0.016479,0.231812,524
47945643,10020,1.002441,0.016113,0.246826,509
47955637,9994,1.010864,0.043823,0.245850,518
47965640,10003,0.994507,0.066284,0.232178,518
47975645,10005,0.953735,0.081055,0.214966,516
47985630,9985,0.911743,0.091309,0.206055,515
47995645,10015,0.838867,0.099731,0.204102,515
48005622,9977,0.809937,0.093140,0.203735,514
48015629,10007,0.785645,0.087402,0.205688,512
48025629,10000,0.770508,0.083008,0.210693,517
48035642,10013,0.762573,0.075317,0.214600,516
48045631,9989,0.739746,0.075195,0.207275,513
48055637,10006,0.748535,0.076660,0.206665,519
48065640,10003,0.764038,0.086182,0.205322,522
48075633,9993,0.790894,0.106445,0.213623,525
48085636,10003,0.823242,0.135376,0.225098,530
48095619,9983,0.848145,0.178467,0.258423,531
48105648,10029,0.895264,0.187134,0.272705,533
48115648,10000,0.916626,0.185181,0.286133,536
48125622,9974,0.935059,0.171387,0.295410,529
48135659,10037,0.942627,0.145142,0.301025,529
48145644,9985,0.942871,0.114624,0.297241,529
48155635,9991,0.936768,0.048706,0.275513,524
48165639,10004,0.930664,0.014893,0.266479,516
48175628,9989,0.926514,-0.005005,0.257690,514
48185632,10004,0.923096,-0.021240,0.255127,515
48195648,10016,0.918701,-0.034302,0.263428,508
48205638,9990,0.900513,-0.036865,0.290039,510
48215645,10007,0.914185,-0.030396,0.321411,510
48225629,9984,0.906372,-0.068726,0.305786,510
48235646,10017,0.897339,-0.074829,0.286865,515
48245659,10013,0.909180,-0.020996,0.293457,516
48255628,9969,0.939575,-0.053467,0.269409,516
48269391,13763,0.955322,-0.064575,0.251099,511
48275643,6252,1.033447,-0.039063,0.312256,508
48285620,9977,1.056152,-0.109985,0.345825,502
48295621,10001,1.054321,-0.121460,0.329346,503
48305624,10003,1.088257,-0.067139,0.373413,511
48315619,9995,1.116211,0.026978,0.315063,517
48325620,10001,1.177124,0.038818,0.354004,513
48335655,10035,1.193726,-0.051025,0.395996,495
48345627,9972,1.130127,-0.038330,0.400757,501
48355639,10012,1.258423,-0.052368,0.506104,497
48365640,10001,1.151978,-0.041504,0.482300,486
48375643,10003,1.180908,0.007080,0.519531,496
48385636,9993,1.181641,0.022583,0.532104,496
48395633,9997,1.153931,-0.018066,0.516724,487
48405645,10012,1.146240,-0.046753,0.502563,485
48415643,9998,1.119507,0.019165,0.484131,484
48425622,9979,1.098389,0.028442,0.480225,489
48435630,10008,1.089478,0.012207,0.474609,487
48445623,9993,1.091919,-0.006226,0.472656,490
48455659,10036,1.097046,-0.017578,0.467896,493
48465643,9984,1.105835,-0.052612,0.462402,494
48475638,9995,1.146240,-0.057007,0.465210,502
48485639,10001,1.160278,-0.074219,0.467896,500
48495631,9992,1.179810,-0.068604,0.473877,507
48505630,9999,1.210083,-0.046387,0.479492,514
48515643,10013,1.243530,-0.026489,0.480835,519
48525646,10003,1.248657,-0.017456,0.471680,520
48535637,9991,1.204346,-0.033447,0.454956,518
48545648,10011,1.132202,-0.057983,0.429687,529
48555633,9985,1.037964,-0.089478,0.407104,533
48565624,9991,0.946289,-0.116577,0.395996,527
48575634,10010,0.763672,-0.099854,0.392700,538
48585641,10007,0.699097,-0.069336,0.384033,526
48595647,10006,0.668701,-0.036255,0.368286,531
48605629,9982,0.663574,-0.004395,0.350098,520
48615631,10002,0.679443,0.013306,0.334595,521
48625637,10006,0.759033,-0.004639,0.307007,525
48635621,9984,0.812378,-0.029297,0.294312,527
48645622,10001,0.878906,-0.052856,0.281372,528
48655638,10016,0.941650,-0.068115,0.269897,530
48665645,10007,0.989624,-0.077148,0.259399,532
48675638,9993,1.027222,-0.073608,0.219849,532
48685644,10006,1.095947,-0.062012,0.231201,541
48695631,9987,1.117920,-0.057739,0.222290,540
48705633,10002,1.134155,-0.049683,0.213379,534
48715627,9994,1.141968,-0.039185,0.209229,545
48725628,10001,1.147705,-0.029297,0.207031,545
48735625,9997,1.160034,-0.015991,0.210205,548
48745677,10052,1.174316,-0.011475,0.216797,543
48755619,9942,1.193115,-0.010986,0.227539,543
48765639,10020,1.200073,-0.023560,0.236328,546
48775636,9997,1.192505,-0.051514,0.230957,540
48785631,9995,1.169067,-0.131348,0.200562,535
48795635,10004,1.138550,-0.138428,0.191406,529
48805627,9992,1.108032,-0.097534,0.171997,532
48815648,10021,1.100708,-0.039795,0.174927,524
48825644,9996,1.107788,-0.034790,0.206177,518
48835633,9989,1.097900,-0.169312,0.182495,517
48845637,10004,1.004272,-0.015381,0.192383,517
48855635,9998,0.986450,0.139038,0.190796,518
48865629,9994,0.993042,0.122437,0.175049,515
48875624,9995,0.971924,0.033813,0.184692,514
48885621,9997,0.949097,-0.005615,0.172729,505
48895647,10026,0.973877,0.090088,0.175903,504
48905636,9989,0.962036,0.111572,0.164062,500
48915630,9994,0.961914,0.090942,0.159180,501
48925645,10015,0.947266,0.058716,0.153687,500
48935627,9982,0.951660,0.026611,0.155029,499
48945638,10011,0.936401,0.042114,0.166016,510
48955628,9990,0.944702,0.033813,0.177490,519
48965619,9991,0.930420,0.013062,0.182495,529
48975627,10008,0.903198,0.003906,0.192261,538
48985624,9997,0.886475,0.027588,0.200073,544
48995633,10009,0.868164,0.071899,0.216431,548
49005633,10000,0.860840,0.061401,0.231934,544
49015619,9986,0.853760,0.048706,0.241577,550
49025632,10013,0.837158,0.040283,0.238647,552
49035628,9996,0.835327,0.035767,0.247314,550
49045630,10002,0.832275,0.038330,0.249878,543
49055637,10007,0.854858,0.034302,0.240356,536
49065658,10021,0.893433,-0.007568,0.227661,527
49075644,9986,0.945557,-0.052490,0.203491,515
49085649,10005,0.999756,-0.057861,0.186035,508
49095630,9981,1.039307,-0.044922,0.188599,508
49105634,10004,1.099121,-0.058838,0.223511,504
49115646,10012,1.109863,-0.048462,0.244019,504
49125644,9998,1.111450,-0.026855,0.260132,505
49135642,9998,1.084717,-0.012573,0.268066,509
49145660,10018,1.050537,-0.037964,0.281494,510
49155642,9982,1.007813,-0.095703,0.287354,513
49165626,9984,1.007324,-0.060181,0.299194,518
49175645,10019,1.007080,-0.029541,0.314209,520
49185635,9990,1.005737,-0.009888,0.328613,521
49195648,10013,1.022827,0.011353,0.349487,530
49205648,10000,1.060547,0.037964,0.363037,530
49215645,9997,1.034912,0.037354,0.364380,524
49225628,9983,1.033569,0.036743,0.364380,528
49235623,9995,1.036133,0.069336,0.355469,525
49245650,10027,1.005615,0.124146,0.344727,510
49255621,9971,0.998779,0.129517,0.321899,503
49265637,10016,1.083984,-0.011597,0.387939,497
49275646,10009,1.003296,-0.134033,0.358032,498
49285633,9987,1.057495,-0.115112,0.351563,492
49295642,10009,0.938477,-0.072632,0.331177,492
49305634,9992,0.924194,-0.036499,0.312378,487
49315647,10013,1.012573,-0.113037,0.255371,485
49325645,9998,1.105225,-0.105957,0.345947,476
49335623,9978,0.907349,-0.171265,0.260132,476
49345643,10020,0.940308,-0.114990,0.263428,466
49355642,9999,0.967773,-0.064453,0.333130,471
49365645,10003,0.911011,-0.015503,0.277466,476
49375644,9999,0.911011,0.016113,0.276001,480
49385639,9995,0.882812,0.009033,0.237793,482
49395637,9998,0.867432,-0.019531,0.209229,493
49405624,9987,0.895996,-0.027100,0.201416,499
49415631,10007,0.922729,-0.012939,0.187500,510
49425621,9990,0.961670,-0.031372,0.179443,514
49435620,9999,0.992676,-0.056274,0.177612,519
49445630,10010,1.017944,-0.072266,0.176636,530
49455620,9990,1.045288,-0.075439,0.179810,537
49465648,10028,1.068726,-0.082520,0.185791,542
49475633,9985,1.099609,-0.120728,0.195435,545
49485640,10007,1.097290,-0.140503,0.196899,548
49495649,10009,1.088135,-0.154785,0.195435,554
49505623,9974,1.079712,-0.164551,0.195435,553
49515645,10022,1.074219,-0.173218,0.196777,551
49525629,9984,1.058594,-0.170044,0.207642,543
49535630,10001,1.045654,-0.158203,0.216187,536
49545627,9997,1.033447,-0.146362,0.224609,532
49555628,10001,1.014771,-0.135864,0.234619,517
49565644,10016,1.014648,-0.124023,0.243042,520
49575622,9978,1.040771,-0.135986,0.256592,515
49585625,10003,1.067627,-0.147583,0.257202,507
49595626,10001,1.105225,-0.144043,0.258667,510
49605634,10008,1.156372,-0.131104,0.258057,506
49615619,9985,1.210938,-0.109985,0.263184,501
49625643,10024,1.272217,-0.077148,0.304688,507
49635633,9990,1.309448,-0.023071,0.291870,505
49645622,9989,1.270142,-0.021484,0.280640,494
49655619,9997,1.195801,-0.023560,0.269653,498
49665625,10006,1.111816,-0.009277,0.263550,495
49675631,10006,1.029541,0.007690,0.251953,493
49685635,10004,0.839478,0.057373,0.195801,489
49695637,10002,0.748535,0.110229,0.193115,485
49705633,9996,0.687012,0.176514,0.197998,479
49715625,9992,0.673096,0.205688,0.173706,473
49725631,10006,0.678955,0.188110,0.127197,461
49735641,10010,0.733276,0.210815,0.088135,463
49745631,9990,0.769531,0.252930,0.087646,463
49755646,10015,0.851196,0.273071,0.052612,457
49765634,9988,0.967651,0.267090,-0.006592,475
49775619,9985,1.071777,0.269287,-0.060913,477
49785647,10028,1.095459,0.390015,-0.092285,490
49795623,9976,1.075684,0.485840,-0.083984,503
49805648,10025,1.005249,0.561279,-0.105957,520
49815637,9989,0.979858,0.561279,-0.120728,540
49825622,9985,0.939087,0.563232,-0.154907,550
49835634,10012,0.903442,0.560913,-0.195801,560
49845622,9988,0.912476,0.483521,-0.189209,564
49855633,10011,0.916016,0.413208,-0.179321,570
49865633,10000,0.942383,0.342285,-0.151733,571
49875622,9989,0.967163,0.285278,-0.127930,562
49885632,10010,0.967651,0.243652,-0.126343,568
49895640,10008,0.969971,0.259277,-0.162842,570
49905623,9983,0.960693,0.278687,-0.182617,567
49915627,10004,0.947510,0.299316,-0.237549,565
49925633,10006,0.927246,0.284302,-0.254639,568
49935626,9993,0.909912,0.324463,-0.252930,576
49945658,10032,0.939209,0.227295,-0.181152,578
49955634,9976,0.953003,0.178467,-0.152588,573
49965627,9993,0.970825,0.159668,-0.127441,581
49975637,10010,0.978882,0.143555,-0.110107,578
49985644,10007,0.975098,0.119629,-0.103149,574
49995633,9989,0.983276,0.104858,-0.154419,572
50005630,9997,0.987549,0.020874,-0.182007,566
50015628,9998,0.971191,0.065552,-0.208496,564
50025625,9997,0.992920,0.052490,-0.213501,557
50035632,10007,1.014648,0.008057,-0.199219,548
50045624,9992,1.043945,0.010010,-0.190186,540
50055647,10023,1.109619,0.017700,-0.164307,533
50065625,9978,1.101440,0.046143,-0.174805,516
50075648,10023,1.088745,0.081421,-0.205322,504
50085623,9975,1.101440,0.094849,-0.231445,490
50095639,10016,1.106445,0.096191,-0.248901,475
50105621,9982,1.088745,0.052124,-0.249390,470
50115639,10018,1.059570,0.026611,-0.231201,457
50125621,9982,1.028809,0.001465,-0.208862,456
50135643,10022,1.006836,-0.021362,-0.188110,449
50145629,9986,1.006836,-0.034546,-0.175659,459
50155650,10021,1.033203,-0.069702,-0.173706,462
50165642,9992,1.129761,-0.098633,-0.176392,474
50175658,10016,1.177856,-0.115356,-0.171265,479
50185628,9970,1.179932,-0.115479,-0.159424,485
50195619,9991,1.156372,-0.111572,-0.131348,502
50205642,10023,1.126221,-0.103760,-0.098022,511
50215634,9992,1.039917,-0.072144,-0.022339,512
50225646,10012,0.994751,-0.042969,0.023926,513
50235641,9995,0.941772,-0.017456,0.087769,511
50245640,9999,0.902832,0.016602,0.161987,517
50255671,10031,0.882690,0.062256,0.220947,510
50265634,9963,0.870117,0.121094,0.226196,516
50275624,9990,0.880615,0.126587,0.176025,509
50285640,10016,0.905151,0.121460,0.121460,507
50295625,9985,0.947754,0.113403,0.082642,504
50305632,10007,0.995850,0.103027,0.072510,509
50315648,10016,1.072144,0.066284,0.141235,511
50325635,9987,1.064575,0.040771,0.185303,507
50335630,9995,1.031006,0.019165,0.226074,511
50345648,10018,0.991211,0.004639,0.251709,505
50355644,9996,0.958618,-0.002319,0.250122,506
50365651,10007,0.936523,-0.017334,0.195068,502
50375622,9971,0.904297,-0.058838,0.168823,499
50385631,10009,0.894897,-0.085449,0.162109,499
50395629,9998,0.885620,-0.115234,0.173096,493
50405635,10006,0.893311,-0.148804,0.193481,492
50415647,10012,0.907593,-0.158813,0.202148,493
50425624,9977,0.943970,-0.134277,0.193115,502
50435645,10021,0.991577,-0.131836,0.176880,502
50445641,9996,1.033447,-0.147217,0.157471,502
50455640,9999,1.065063,-0.141357,0.138916,508
50465644,10004,1.085815,-0.136353,0.114014,512
50475653,10009,1.066406,-0.147339,0.105103,512
50485639,9986,1.051270,-0.127441,0.104370,522
50495635,9996,1.063599,-0.048828,0.113159,524
50505620,9985,1.062256,0.019043,0.127075,524
50515647,10027,1.053711,0.076294,0.137451,536
50525648,10001,1.036499,0.112427,0.145142,540
50535627,9979,1.019897,0.147461,0.135010,543
50545624,9997,1.006958,0.129395,0.123779,539
50555638,10014,0.995239,0.093994,0.111938,545
50565620,9982,0.988770,0.042358,0.102539,554
50575620,10000,0.995850,0.008057,0.095215,547
50585657,10037,1.010376,-0.010376,0.104980,554
50595624,9967,1.020630,-0.012085,0.125122,554
50605638,10014,1.026001,-0.011597,0.144775,551
50615643,10005,1.029907,-0.011353,0.172607,554
50625637,9994,1.032715,-0.018921,0.196289,546
50635633,9996,1.031128,-0.042725,0.242310,541
50645630,9997,1.027222,-0.064697,0.261230,538
50655619,9989,1.010498,-0.098389,0.280029,528
50665622,10003,1.000366,-0.128052,0.296387,523
50675644,10022,0.980103,-0.133179,0.313232,514
50685644,10000,0.969482,-0.101440,0.352661,508
50695627,9983,0.941895,-0.097412,0.372070,507
50705625,9998,0.924805,-0.107300,0.386230,504
50715656,10031,0.910767,-0.121704,0.390137,502
50725627,9971,0.888916,-0.125854,0.386108,496
50735621,9994,0.876831,-0.131958,0.375000,492
50745647,10026,0.883057,-0.171997,0.345215,502
50755633,9986,0.910278,-0.170410,0.340576,504
50765630,9997,0.938599,-0.164062,0.341187,501
50775633,10003,0.953247,-0.153564,0.355103,506
50785637,10004,0.960937,-0.134766,0.380493,505
50795634,9997,1.015015,-0.113281,0.415649,508
50805638,10004,1.046509,-0.120728,0.422974,508
50815627,9989,1.066040,-0.129517,0.426270,516
50825641,10014,1.061279,-0.131226,0.423218,518
50835642,10001,1.030518,-0.123535,0.418823,529
50845623,9981,0.972412,-0.110107,0.414429,522
50855642,10019,0.952148,-0.108765,0.419922,527
50865627,9985,0.942993,-0.102539,0.438232,531
50875619,9992,0.947632,-0.099731,0.462280,524
50885643,10024,0.960083,-0.101074,0.467041,531
50895619,9976,0.993042,-0.101196,0.459473,528
50905632,10013,1.082031,-0.084839,0.432373,529
50915620,9988,1.136963,-0.037842,0.430054,522
50925648,10028,1.171265,0.001465,0.424194,520
50935647,9999,1.185303,0.022461,0.420654,526
50945638,9991,1.204346,0.046021,0.407959,521
50955626,9988,1.224731,0.031982,0.384155,530
50965646,10020,1.233521,0.013184,0.352295,530
50975640,9994,1.227661,0.041748,0.323120,527
50985629,9989,1.247437,0.008667,0.279907,531
50995642,10013,1.237915,-0.005859,0.252197,533
51005657,10015,1.250122,-0.025757,0.267700,532
51015640,9983,1.224976,-0.077515,0.266968,543
51025621,9981,1.218506,-0.098633,0.275269,543
51035622,10001,1.207642,-0.173584,0.296631,558
51045640,10018,1.156982,-0.215088,0.268066,565
51055624,9984,1.177734,-0.175171,0.313110,569
51065620,9996,1.120728,-0.177246,0.307861,573
51075638,10018,1.097412,-0.107910,0.313477,572
51085632,9994,1.014282,-0.057007,0.298584,564
51095634,10002,0.999268,-0.022461,0.298828,554
51105647,10013,0.975464,0.002686,0.268677,541
51115647,10000,1.002075,-0.068481,0.284180,523
51125631,9984,0.990479,-0.222290,0.289917,512
51135633,10002,0.840576,-0.340454,0.187256,504
51145638,10005,0.882080,-0.058228,0.117188,491
51155635,9997,0.939087,0.122192,0.230347,492
51165641,10006,0.962646,-0.158691,0.152954,508
51175644,10003,0.993286,-0.219971,0.154053,514
51185627,9983,1.056274,-0.167358,0.202026,521
51195629,10002,1.100586,-0.111572,0.208984,527
51205632,10003,1.089111,-0.111450,0.172119,544
51215641,10009,1.132446,-0.145386,0.156738,553
51225662,10021,1.126099,-0.124146,0.134644,558
51235642,9980,1.103149,-0.119995,0.128174,574
51245624,9982,1.070068,-0.130005,0.127808,580
51255638,10014,1.028198,-0.135864,0.127563,580
51265622,9984,0.998047,-0.101318,0.128418,582
51275632,10010,0.945435,-0.026733,0.155396,581
51288528,12896,0.915527,-0.029541,0.162109,570
51295619,7091,0.885498,-0.031006,0.167480,568
51305620,10001,0.851685,-0.021729,0.167847,552
51315635,10015,0.815674,-0.016846,0.162476,542
51325626,9991,0.752441,-0.044067,0.155273,536
51335630,10004,0.726196,-0.057739,0.156250,522
51345649,10019,0.704468,-0.065308,0.159668,513
51355641,9992,0.687866,-0.066772,0.162720,503
51365636,9995,0.677002,-0.067017,0.165039,502
51375621,9985,0.694580,-0.075806,0.171997,489
51385619,9998,0.705078,-0.080444,0.178223,491
51395620,10001,0.708008,-0.085205,0.182983,485
51405620,10000,0.712280,-0.090698,0.188232,491
51415639,10019,0.724365,-0.098633,0.188965,490
51425636,9997,0.775513,-0.113159,0.190308,495
51435630,9994,0.801758,-0.115723,0.194702,497
51445628,9998,0.825928,-0.114624,0.197998,498
51455638,10010,0.846924,-0.105957,0.205566,498
51465636,9998,0.872681,-0.089966,0.213013,499
51475631,9995,0.903931,-0.076782,0.219727,504
51485624,9993,0.959473,-0.052856,0.239380,505
51495622,9998,0.974854,-0.044312,0.249878,506
51505635,10013,0.986084,-0.037964,0.257446,510
51515633,9998,1.000610,-0.035034,0.265381,512
51525621,9988,1.020020,-0.036011,0.273193,509
51535633,10012,1.102051,-0.057251,0.287964,520
51545645,10012,1.160278,-0.078247,0.294189,524
51555631,9986,1.218384,-0.100586,0.293945,531
51565648,10017,1.258301,-0.119751,0.284058,534
51575639,9991,1.310425,-0.149292,0.298218,541
51585638,9999,1.254517,-0.185547,0.264282,547
51595634,9996,1.271973,-0.182129,0.306763,551
51605646,10012,1.177124,-0.196167,0.272583,556
51615636,9990,1.160034,-0.167603,0.238647,561
51625636,10000,1.083374,-0.153687,0.278687,566
51635623,9987,1.049072,-0.110352,0.263306,562
51645631,10008,1.016479,-0.152710,0.286743,555
51655638,10007,0.994873,-0.182983,0.292603,548
51665629,9991,0.982910,-0.123413,0.296997,538
51675628,9999,1.010620,-0.033569,0.297607,534
51685625,9997,1.048462,0.029297,0.321655,524
51695637,10012,1.060425,-0.040405,0.322510,513
51705640,10003,1.190918,-0.038330,0.357666,507
51715636,9996,1.173828,-0.035400,0.351807,508
51725644,10008,1.106323,-0.030762,0.308716,508
51735646,10002,1.109253,-0.033081,0.321045,495
51745620,9974,1.086670,-0.096436,0.290894,491
51755631,10011,1.090576,-0.084351,0.293579,486
51765646,10015,1.085083,-0.086060,0.301392,490
51775623,9977,1.025391,-0.127197,0.299316,489
51785638,10015,1.003662,-0.133911,0.309814,483
51795627,9989,1.022217,-0.146606,0.351685,492
51805625,9998,0.993774,-0.178223,0.354980,494
51815638,10013,0.970215,-0.205444,0.367188,492
51825631,9993,0.945312,-0.218750,0.373657,497
51835653,10022,0.916992,-0.215210,0.372437,506
51845623,9970,0.890015,-0.214478,0.355713,495
51855621,9998,0.805176,-0.183350,0.329590,502
51865632,10011,0.853638,-0.131226,0.343750,505
51875626,9994,0.829834,-0.190430,0.340332,506
51885648,10022,0.853760,-0.263550,0.365234,513
51895640,9992,0.862427,-0.272095,0.395874,500
51905641,10001,0.893921,-0.193237,0.416748,505
51915668,10027,0.906738,-0.156372,0.422485,507
51925642,9974,0.927246,-0.140747,0.430908,505
51935639,9997,0.930420,-0.133301,0.438843,502
51945636,9997,0.927979,-0.126831,0.446899,497
51955627,9991,0.932617,-0.111084,0.451904,506
51965628,10001,0.960937,-0.089600,0.467896,506
51975625,9997,0.966064,-0.065063,0.475464,504
51985629,10004,0.930542,-0.048340,0.468262,506
51995644,10015,0.927734,-0.054199,0.456909,512
52005631,9987,0.932251,-0.066284,0.412964,512
52015624,9993,0.919189,-0.070557,0.417480,520
52025625,10001,0.932739,-0.072266,0.409912,514
52035646,10021,0.947754,-0.086792,0.401367,524
52045652,10006,0.959839,-0.104736,0.393921,524
52055623,9971,0.995850,-0.101196,0.390137,533
52065638,10015,1.071411,-0.090332,0.395996,538
52075619,9981,1.114136,-0.087891,0.389771,540
52085624,10005,1.140747,-0.096313,0.378540,551
52095636,10012,1.181274,-0.094727,0.372192,560
52105643,10007,1.229980,-0.084229,0.367310,562
52115628,9985,1.324219,-0.051270,0.360229,572
52125632,10004,1.360596,-0.016724,0.357544,577
52135631,9999,1.388916,0.017578,0.352295,580
52145630,9999,1.414063,0.009766,0.350830,578
52155635,10005,1.427734,-0.004028,0.352905,578
52165638,10003,1.402344,-0.081177,0.330200,574
52175627,9989,1.367798,-0.090698,0.313843,558
52185634,10007,1.212402,-0.082397,0.286865,556
52195628,9994,1.132813,-0.146973,0.274658,543
52205642,10014,1.090454,-0.222900,0.268799,540
52215635,9993,1.019653,-0.259888,0.251587,530
52225675,10040,0.912720,-0.253784,0.209351,528
52235638,9963,0.894897,-0.253784,0.181274,526
52245632,9994,0.891113,-0.239136,0.156372,526
52255636,10004,0.915527,-0.240601,0.148560,518
52265640,10004,0.932251,-0.236938,0.154541,523
52275646,10006,0.977539,-0.187988,0.177368,526
52286611,10965,1.009521,-0.162231,0.171997,528
52295645,9034,1.029663,-0.155518,0.167969,530
52305627,9982,1.048584,-0.169556,0.156982,528
52315620,9993,1.047119,-0.191772,0.139771,525
52325645,10025,1.065674,-0.219482,0.103882,524
52335646,10001,1.063110,-0.222168,0.089111,531
52345637,9991,1.052002,-0.215454,0.083252,532
52355624,9987,1.031616,-0.206299,0.078857,529
52365623,9999,1.014648,-0.210937,0.076294,534
52375619,9996,0.999512,-0.224731,0.071533,531
52385632,10013,0.962158,-0.258179,0.066162,540
52395633,10001,0.955322,-0.270142,0.059326,543
52405628,9995,0.945679,-0.283936,0.054077,544
52415639,10011,0.935425,-0.299072,0.046753,544
52425643,10004,0.923950,-0.307617,0.040161,546
52435647,10004,0.907837,-0.299927,0.031128,548
52445643,9996,0.907959,-0.281372,0.027100,548
52455621,9978,0.909546,-0.267700,0.027100,548
52465624,10003,0.912964,-0.248291,0.026367,543
52475649,10025,0.906128,-0.226685,0.024414,537
52485632,9983,0.896851,-0.178711,0.021362,529
52495643,10011,0.896851,-0.157227,0.024170,524
52505648,10005,0.898071,-0.144043,0.027588,522
52515622,9974,0.897217,-0.146240,0.030273,522
52525620,9998,0.899536,-0.152344,0.036133,517
52535631,10011,0.913940,-0.192993,0.036987,510
52545638,10007,0.963013,-0.190186,0.034668,509
52555626,9988,0.995972,-0.193481,0.038452,521
52565641,10015,1.020020,-0.208130,0.044556,525
52575630,9989,1.053589,-0.210693,0.050781,532
52585633,10003,1.086670,-0.208496,0.066895,540
52595622,9989,1.131226,-0.191528,0.094482,546
52605646,10024,1.167236,-0.188965,0.099731,553
52615630,9984,1.231201,-0.177124,0.107544,559
52625626,9996,1.285400,-0.144409,0.128906,560
52635628,10002,1.305542,-0.142456,0.140503,567
52645637,10009,1.221436,-0.104492,0.166504,565
52655636,9999,1.104736,-0.101563,0.186523,563
52665630,9994,0.975830,-0.092773,0.207764,563
52675648,10018,0.851685,-0.071533,0.238647,552
52685629,9981,0.757935,-0.049072,0.268311,546
52695645,10016,0.714111,-0.008057,0.293457,540
52705620,9975,0.744019,-0.003296,0.283447,526
52715620,10000,0.796143,-0.007568,0.264771,521
52725647,10027,0.869019,-0.013428,0.246582,518
52735619,9972,0.945557,-0.013794,0.234009,520
52745648,10029,1.007813,0.007202,0.230835,518
52755624,9976,1.097290,0.026978,0.240356,517
52765628,10004,1.118286,0.038330,0.251953,509
52775634,10006,1.134644,0.044556,0.264160,516
52785647,10013,1.146118,0.052368,0.280151,510
52795634,9987,1.176514,0.071777,0.306396,517
52805647,10013,1.086426,0.121094,0.339233,515
52815624,9977,1.086670,0.064575,0.352783,518
52825622,9998,1.011963,0.007324,0.323242,531
52835633,10011,1.003784,0.001099,0.328247,540
52845640,10007,0.970825,-0.002197,0.323608,544
52855626,9986,0.939819,0.007080,0.358765,556
52865639,10013,0.935303,0.033203,0.397583,569
52875645,10006,0.946777,0.098145,0.461548,580
52885641,9996,0.941895,0.183838,0.558838,582
52895627,9986,0.965332,0.334473,0.668091,578
52905629,10002,0.807983,0.335083,0.689941,568
52915635,10006,0.664062,0.411865,0.818604,577
52925628,9993,0.697632,0.247681,0.907349,583
52935637,10009,0.742676,0.283813,1.027222,609
52945623,9986,0.776245,0.133057,0.997803,643
52955639,10016,0.802734,0.080322,0.847534,664
52965623,9984,0.917114,0.197388,0.709229,684
52975645,10022,0.906616,0.217773,0.625488,686
52985640,9995,0.910400,-0.024170,0.535767,666
52995620,9980,0.928955,-0.061157,0.444092,631
53005643,10023,0.985718,0.010986,0.409058,566
53015623,9980,1.003052,0.017212,0.323853,517
53025623,10000,0.967651,0.092285,0.275757,460
53035636,10013,0.973877,0.111450,0.259521,417
53045620,9984,1.007446,0.111450,0.245361,379
53055639,10019,1.035522,0.106567,0.233765,349
53065621,9982,1.054932,0.046265,0.199463,338
53075627,10006,1.043701,0.013306,0.188354,330
53085621,9994,1.036011,-0.002563,0.185425,339
53095640,10019,1.031372,-0.001099,0.190430,356
53105640,10000,1.027954,-0.002075,0.205933,377
53115633,9993,1.029663,-0.018555,0.239258,405
53125648,10015,1.034546,0.000122,0.247559,430
53135620,9972,1.010010,-0.008789,0.247559,456
53145619,9999,1.024902,-0.040283,0.251831,490
53155634,10015,1.066406,-0.073120,0.247192,511
53165637,10003,1.085449,-0.101074,0.231079,532
53175645,10008,1.080200,-0.145142,0.224609,539
53185644,9999,1.043701,-0.153076,0.224731,553
53195619,9975,0.999023,-0.159302,0.214600,556
53205644,10025,0.960083,-0.160645,0.194214,553
53215627,9983,0.930786,-0.152954,0.175415,540
53225640,10013,0.886719,-0.135498,0.149780,544
53235637,9997,0.874878,-0.128540,0.142700,533
53245647,10010,0.869019,-0.117432,0.140625,532
53255639,9992,0.867187,-0.114502,0.143066,528
53265630,9991,0.887207,-0.121704,0.145630,523
53275629,9999,0.966919,-0.155396,0.143066,514
53285634,10005,1.013428,-0.164551,0.142334,507
53300468,14834,1.079834,-0.180908,0.138428,498
53306852,6384,1.131226,-0.196411,0.126587,493
53315643,8791,1.154541,-0.210327,0.114868,491
53325633,9990,1.161743,-0.226318,0.104370,486
53335632,9999,1.154785,-0.229614,0.086426,484
53345667,10035,1.138672,-0.236450,0.095459,482
53355646,9979,1.126709,-0.249756,0.113037,485
53365625,9979,1.104980,-0.273071,0.138428,488
53375639,10014,1.102539,-0.285889,0.161743,494
53385620,9981,1.103516,-0.238281,0.191650,502
53395624,10004,1.104980,-0.231445,0.190918,508
53405645,10021,1.105225,-0.251221,0.187256,507
53415630,9985,1.111694,-0.276489,0.176392,516
53425619,9989,1.100464,-0.286987,0.173340,517
53435627,10008,1.014404,-0.259033,0.198242,509
53445647,10020,0.996948,-0.234131,0.219482,517
53455623,9976,0.964111,-0.226440,0.237549,514
53465634,10011,0.947510,-0.204346,0.234375,515
53475636,10002,0.964355,-0.184937,0.233521,520
53485644,10008,0.985352,-0.182495,0.210937,521
53495619,9975,0.977173,-0.202759,0.206665,522
53505631,10012,0.968140,-0.210815,0.206909,532
53515638,10007,0.957275,-0.225342,0.215332,536
53525643,10005,0.947998,-0.245361,0.233521,538
53535645,10002,0.941284,-0.269043,0.254639,542
53545645,10000,0.937134,-0.275879,0.284058,554
53555623,9978,0.945190,-0.243286,0.290649,559
53565627,10004,0.968140,-0.191895,0.292847,570
53575628,10001,1.000244,-0.141846,0.290039,585
53585624,9996,1.029175,-0.109009,0.282715,588
53595623,9999,1.125122,-0.092041,0.265381,595
53605627,10004,1.139771,-0.156616,0.245483,594
53615647,10020,1.169189,-0.125732,0.210083,586
53625639,9992,1.192139,-0.100586,0.181763,583
53635633,9994,1.207275,-0.119629,0.144287,570
53645619,9986,1.234985,-0.130127,0.089844,566
53655633,10014,1.255859,-0.110107,0.094238,555
53665648,10015,1.271484,-0.132446,0.110229,547
53675634,9986,1.270996,-0.153198,0.110718,526
53685659,10025,1.276855,-0.170776,0.121582,518
53695639,9980,1.283691,-0.180420,0.140869,501
53705640,10001,1.256836,-0.179810,0.160889,483
53715632,9992,1.230469,-0.136963,0.159302,471
53725619,9987,1.197510,-0.146362,0.169067,467
53735643,10024,1.268555,-0.240723,0.213257,469
53745623,9980,1.137085,-0.350952,0.150146,478
53755623,10000,1.196899,0.000244,0.146362,490
53765620,9997,1.146606,-0.030884,0.104370,502
53775645,10025,1.094727,-0.085449,0.049805,518
53785628,9983,1.104492,-0.022583,0.080444,523
53795638,10010,1.124146,0.014160,0.090210,543
53805641,10003,1.109619,0.011841,0.104492,554
53815629,9988,1.108398,-0.026001,0.115112,563
53825645,10016,1.073975,-0.054932,0.110352,573
53835620,9975,1.051758,-0.044800,0.109741,585
53845622,10002,1.052979,-0.010864,0.123657,596
53855621,9999,1.044434,-0.021362,0.094116,605
53865627,10006,1.020874,-0.077881,0.123535,613
53875633,10006,1.007690,-0.065674,0.122925,620
53885636,10003,1.000488,-0.059570,0.130127,624
53895627,9991,0.988647,-0.077637,0.136841,619
53905647,10020,0.974121,-0.097534,0.141235,626
53915644,9997,0.933838,-0.078979,0.155762,625
53925643,9999,0.908569,-0.065308,0.167480,622
53935636,9993,0.888306,-0.052979,0.178467,620
53945636,10000,0.865845,-0.046509,0.185425,610
53955636,10000,0.842285,-0.040039,0.182007,593
53965637,10001,0.792847,-0.043579,0.163940,582
53975621,9984,0.770508,-0.051392,0.152100,572
53985628,10007,0.755737,-0.052002,0.141968,563
53995637,10009,0.750488,-0.040527,0.134399,550
54005625,9988,0.750244,-0.020264,0.137451,545
54015620,9995,0.759155,0.038696,0.194946,534
54025632,10012,0.827881,0.072144,0.229614,542
54035644,10012,0.866211,0.098022,0.257813,540
54045622,9978,0.894775,0.112305,0.276611,541
54055621,9999,0.918701,0.116089,0.285156,537
54065638,10017,0.940674,0.108521,0.289795,536
54075675,10037,0.973145,0.077637,0.297485,533
54085628,9953,0.978516,0.061890,0.305298,529
54095634,10006,0.978638,0.053467,0.318115,524
54105658,10024,0.973145,0.053955,0.338379,524
54115646,9988,0.966675,0.063843,0.358154,522
54125639,9993,0.954224,0.067261,0.409180,519
54135634,9995,0.934937,0.055786,0.414307,518
54145622,9988,0.925415,0.032349,0.407227,517
54155641,10019,0.922363,0.042480,0.413574,519
54165624,9983,0.920898,0.029541,0.415771,521
54175622,9998,0.911377,-0.035278,0.385620,526
54185645,10023,0.916504,-0.023560,0.382080,537
54195630,9985,0.937866,-0.012207,0.382935,545
54205640,10010,0.956787,0.005981,0.389893,547
54215644,10004,0.963501,0.042236,0.394531,543
54225632,9988,0.948608,0.036621,0.457520,540
54235631,9999,1.015381,-0.133179,0.470581,528
54245636,10005,1.005737,-0.121826,0.488281,520
54255635,9999,1.005615,-0.040649,0.486694,523
54265623,9988,1.003906,-0.026978,0.490479,521
54275626,10003,0.997192,-0.050293,0.503784,519
54285647,10021,0.989136,-0.101807,0.528320,516
54297736,12089,0.979126,-0.089478,0.539307,506
54305630,7894,0.956787,-0.073853,0.541992,507
54315624,9994,0.946289,-0.067871,0.536865,498
54325646,10022,0.931641,-0.072510,0.517700,487
54335643,9997,0.937988,-0.091797,0.479858,492
54345623,9980,0.925537,-0.078857,0.453125,488
54355632,10009,0.914307,-0.063232,0.430054,487
54365627,9995,0.930908,-0.063599,0.338501,489
54375628,10001,0.918335,-0.007446,0.327515,478
54385672,10044,0.960083,-0.216431,0.397705,487
54395637,9965,0.982544,-0.316162,0.385986,486
54405638,10001,0.987793,-0.319336,0.366089,505
54415647,10009,1.006226,-0.231934,0.368774,519
54425646,9999,1.010498,-0.182983,0.364136,528
54435645,9999,1.032593,-0.226685,0.371582,544
54445635,9990,1.083008,-0.252441,0.363159,555
54455649,10014,1.110352,-0.161499,0.364136,566
54465646,9997,1.125000,-0.105225,0.357544,567
54475646,10000,1.138672,-0.098755,0.360596,574
54485622,9976,1.145020,-0.111328,0.367188,576
54495663,10041,1.123047,-0.099854,0.374023,572
54505638,9975,1.094727,-0.102661,0.370972,574
54515626,9988,1.056519,-0.125488,0.359009,569
54525633,10007,1.022339,-0.151733,0.350342,560
54535631,9998,0.991089,-0.167236,0.344849,549
54545630,9999,0.928345,-0.175049,0.354858,547
54555630,10000,0.920044,-0.183228,0.358521,543
54565637,10007,0.904175,-0.184570,0.354248,533
54575642,10005,0.894165,-0.177246,0.345703,534
54585626,9984,0.889526,-0.167114,0.336182,530
54595630,10004,0.889160,-0.151733,0.327148,521
54605623,9993,0.908447,-0.126343,0.323242,528
54615632,10009,0.930054,-0.126099,0.326172,525
54625626,9994,0.954712,-0.132812,0.330566,526
54635634,10008,0.983765,-0.136475,0.333496,524
54645620,9986,1.008545,-0.144043,0.327393,530
54655636,10016,1.046265,-0.189697,0.310181,527
54665638,10002,1.056152,-0.212769,0.300293,534
54675629,9991,1.063354,-0.226440,0.293579,537
54685636,10007,1.062134,-0.213013,0.281494,538
54695644,10008,1.051636,-0.194702,0.272705,535
54705627,9983,1.011475,-0.169067,0.260376,541
54715622,9995,1.007568,-0.154785,0.262207,542
54725636,10014,0.997192,-0.139160,0.259155,541
54735639,10003,0.987427,-0.131470,0.256836,546
54745639,10000,0.976074,-0.130615,0.253296,537
54755637,9998,0.960815,-0.130127,0.249878,541
54765629,9992,0.940918,-0.111084,0.225342,539
54775630,10001,0.950073,-0.112915,0.229492,536
54785621,9991,0.936157,-0.135864,0.219604,544
54795647,10026,0.912964,-0.145142,0.197021,531
54805629,9982,0.924927,-0.140869,0.194702,531
54815620,9991,0.933594,-0.110229,0.203613,532
54825632,10012,0.955200,-0.114380,0.211182,523
54835635,10003,0.930664,-0.195312,0.205811,533
54845646,10011,1.006836,-0.276245,0.225220,537
54855635,9989,0.909668,-0.374756,0.180542,543
54865651,10016,0.984863,0.007568,0.179810,555
54875640,9989,0.915283,0.021729,0.148804,559
54885628,9988,0.891357,-0.087769,0.148682,561
54895641,10013,0.944580,-0.126831,0.179443,564
54905637,9996,0.968506,-0.118164,0.195068,559
54915624,9987,0.969482,-0.090576,0.183472,558
54925620,9996,1.004150,-0.079102,0.161499,554
54935660,10040,1.018677,-0.094116,0.155029,548
54945625,9965,1.020020,-0.088623,0.156128,551
54955635,10010,1.011108,-0.065430,0.164185,550
54965654,10019,1.000854,-0.040405,0.181396,552
54975633,9979,0.996826,-0.044678,0.186890,553
54985648,10015,0.984131,-0.055786,0.178345,553
54995628,9980,0.979614,-0.061401,0.175171,552
55005640,10012,0.965820,-0.058838,0.173706,546
55015643,10003,0.958496,-0.046143,0.175659,552
55025632,9989,0.979736,-0.024414,0.204834,547
55035670,10038,0.996338,-0.012329,0.223999,551
55045621,9951,1.002075,-0.001831,0.237793,550
55055639,10018,1.009644,-0.001221,0.247070,540
55065642,10003,1.018311,-0.021484,0.243530,546
55075636,9994,1.046631,-0.035767,0.235474,539
55085625,9989,1.055420,-0.046631,0.226807,535
55095642,10017,1.060181,-0.055420,0.217407,529
55105628,9986,1.063477,-0.065186,0.214844,525
55115624,9996,1.048584,-0.060425,0.208252,518
55125629,10005,1.020752,-0.026733,0.204590,511
55135669,10040,0.957031,0.013428,0.201660,509
55145621,9952,0.887329,0.019409,0.200317,498
55155621,10000,0.856079,-0.020264,0.192505,492
55165631,10010,0.852051,-0.019775,0.198608,482
55175624,9993,0.901489,-0.007813,0.199219,482
55185629,10005,0.993164,0.024780,0.172241,481
55195643,10014,1.024902,0.030884,0.161377,473
55205638,9995,1.055054,0.044556,0.146851,477
55215640,10002,1.104126,0.069580,0.152466,488
55225632,9992,1.116455,0.089355,0.156250,497
55235666,10034,1.124634,0.108521,0.172729,506
55245644,9978,1.110962,0.113770,0.185547,516
55255633,9989,1.091187,0.126343,0.185059,524
55265635,10002,1.059814,0.151855,0.191528,526
55275625,9990,1.021240,0.120728,0.191162,530
55285635,10010,1.020020,-0.011719,0.222046,527
55295620,9985,0.949951,0.027588,0.216919,527
55305643,10023,0.950684,0.031250,0.197754,519
55315644,10001,0.922119,0.034424,0.210327,516
55325631,9987,0.907471,0.014893,0.218506,507
55335625,9994,0.803955,-0.049805,0.163940,493
55345634,10009,0.950195,-0.003784,0.177124,495
55355620,9986,0.879517,0.014160,0.051758,487
55365630,10010,0.962646,0.018311,0.093506,480
55375647,10017,0.887817,-0.056885,0.157227,471
55385636,9989,0.936646,-0.107056,0.125122,467
55395626,9990,0.962891,-0.140381,0.144897,469
55405628,10002,0.992676,-0.071289,0.159302,479
55415648,10020,1.005981,-0.024780,0.165527,484
55425641,9993,1.035522,-0.058716,0.178955,503
55435628,9987,1.046509,-0.128418,0.179810,509
55445639,10011,1.073242,-0.087769,0.196289,529
55455645,10006,1.070068,-0.059692,0.196411,537
55465620,9975,1.076782,-0.079468,0.192261,545
55475625,10005,1.079346,-0.104858,0.192871,555
55485621,9996,1.071777,-0.103760,0.195312,556
55495644,10023,1.079468,-0.083862,0.203491,555
55505643,9999,1.103882,-0.070190,0.232178,552
55515633,9990,1.102051,-0.081543,0.243042,547
55525637,10004,1.102661,-0.088135,0.250732,544
55535670,10033,1.106323,-0.101074,0.260864,529
55545627,9957,1.121094,-0.130249,0.268555,531
55555641,10014,1.149292,-0.168213,0.263550,525
55565629,9988,1.164673,-0.176392,0.270752,516
55575622,9993,1.186890,-0.173218,0.291260,517
55585633,10011,1.209351,-0.166016,0.317261,516
55595645,10012,1.218384,-0.156860,0.334106,510
55605628,9983,1.147827,-0.154175,0.337769,504
55615639,10011,1.077271,-0.147217,0.327515,500
55625639,10000,0.992310,-0.134888,0.312988,490
55635626,9987,0.904419,-0.115356,0.298584,496
55645625,9999,0.825928,-0.085693,0.292603,492
55655645,10020,0.761963,0.026001,0.312256,495
55665637,9992,0.683472,0.059448,0.332764,502
55675625,9988,0.676758,0.087402,0.342529,505
55685643,10018,0.695923,0.123413,0.334473,502
55695639,9996,0.752441,0.143799,0.316772,493
55705638,9999,0.817383,0.121460,0.294800,484
55715635,9997,0.945435,0.070679,0.246460,475
55725631,9996,1.000244,0.064697,0.228271,468
55735639,10008,1.046265,0.076660,0.205566,461
55745643,10004,1.088379,0.109619,0.180786,466
55755638,9995,1.127686,0.163208,0.165283,476
55765638,10000,1.205566,0.287598,0.151611,488
55775643,10005,1.230835,0.358765,0.161377,505
55785638,9995,1.287842,0.413208,0.187622,517
55795639,10001,1.353760,0.409546,0.179321,547
55805631,9992,1.354858,0.341553,0.129272,570
55815619,9988,1.313110,0.249268,0.051392,587
55825640,10021,1.229492,0.179932,0.023071,607
55835630,9990,1.188721,0.164307,0.010864,616
55845642,10012,1.121216,0.161621,0.000000,615
55855628,9986,1.071655,0.141602,0.019043,616
55865640,10012,1.030640,0.147583,0.034180,613
55875642,10002,0.994263,0.178223,0.069092,598
55885640,9998,1.013428,0.183350,0.042603,577
55895623,9983,1.048218,0.203613,0.022095,553
55905642,10019,1.001343,0.196167,-0.009644,533
55915623,9981,0.967896,0.230591,-0.041016,508
55925635,10012,0.914795,0.285034,-0.073486,493
55935640,10005,0.892944,0.296997,-0.084229,478
55945644,10004,0.903442,0.326904,-0.065674,470
55955640,9996,0.888062,0.306641,-0.029297,467
55965669,10029,1.042603,0.084717,0.057861,469
55975644,9975,0.935425,-0.061279,-0.042847,491
55985637,9993,1.071289,0.270630,-0.005005,502
55995623,9986,1.073608,0.407471,-0.076538,516
56005633,10010,0.992554,0.274780,-0.174561,525
56015634,10001,1.102173,0.056152,-0.113892,533
56025629,9995,1.092773,-0.051880,-0.155396,542
56035633,10004,1.104126,0.139771,-0.119751,548
56045621,9988,1.129028,0.246094,-0.097412,552
56055635,10014,1.158325,0.251099,-0.074219,555
56065619,9984,1.217773,0.198853,-0.030762,551
56075638,10019,1.232788,0.170288,0.010620,557
56085648,10010,1.116211,0.257446,0.092285,548
56095633,9985,1.015991,0.254517,0.117798,548
56105625,9992,0.945190,0.199585,0.140747,541
56115645,10020,0.880371,0.134033,0.135132,536
56125629,9984,0.826050,0.083862,0.122192,528
56135635,10006,0.770020,0.030273,0.096558,518
56145629,9994,0.761353,-0.008545,0.082397,511
56155640,10011,0.773071,-0.047607,0.076538,499
56165621,9981,0.804932,-0.067749,0.077271,492
56175620,9999,0.857788,-0.084473,0.090698,485
56185648,10028,0.914185,-0.104126,0.111572,479
56195639,9991,1.025879,-0.130371,0.116211,471
56205622,9983,1.072632,-0.151245,0.134888,480
56215621,9999,1.056274,-0.157593,0.128418,476
56225632,10011,1.047607,-0.143555,0.126099,475
56235644,10012,1.066650,-0.149048,0.128662,479
56245620,9976,1.077393,-0.149902,0.120605,483
56255647,10027,1.082764,-0.147339,0.116699,487
56265639,9992,1.087280,-0.134277,0.114380,496
56275623,9984,1.095093,-0.116943,0.126343,491
56285632,10009,1.089722,-0.091064,0.137085,503
56295624,9992,1.106079,-0.055054,0.147583,509
56308610,12986,1.083862,-0.030640,0.147339,507
56315640,7030,1.091675,-0.019653,0.138184,507
56325620,9980,1.014648,-0.010376,0.135986,507
56335644,10024,1.028076,-0.002075,0.143311,512
56345627,9983,1.001221,-0.051758,0.118530,512
56355622,9995,1.001343,-0.048462,0.108154,500
56365631,10009,0.969360,-0.026001,0.098755,503
56375641,10010,0.941528,-0.025879,0.074585,500
56385628,9987,0.939453,-0.060425,0.041260,491
56395670,10042,1.044189,-0.082031,0.115234,483
56405630,9960,0.985718,-0.148071,0.111328,482
56415631,10001,0.990356,-0.129395,0.139648,482
56425646,10015,0.954224,-0.100830,0.108276,480
56435649,10003,0.960205,-0.086060,0.109375,491
56445631,9982,0.972900,-0.098389,0.115845,494
56455644,10013,0.969971,-0.171265,0.117676,504
56465636,9992,0.989624,-0.152344,0.134644,508
56475621,9985,1.000366,-0.126587,0.142578,508
56485640,10019,1.006348,-0.126099,0.150635,513
56495626,9986,1.020020,-0.133789,0.166626,521
56505626,10000,1.027588,-0.115967,0.191162,520
56515640,10014,1.022949,-0.108398,0.200928,525
56525620,9980,1.019653,-0.111938,0.208984,528
56535643,10023,1.016724,-0.118408,0.218506,526
56545641,9998,1.014038,-0.122681,0.227417,521
56555634,9993,1.014771,-0.124023,0.235840,524
56565630,9996,1.032471,-0.120483,0.252563,522
56575638,10008,1.041504,-0.097778,0.260986,518
56585642,10004,1.071167,-0.075928,0.271851,513
56595647,10005,1.088989,-0.068237,0.279053,512
56605619,9972,1.080200,-0.067261,0.287598,511
56615630,10011,1.083374,-0.064697,0.306885,510
56625633,10003,1.088989,-0.063721,0.319092,510
56635638,10005,1.096802,-0.069824,0.339478,507
56645645,10007,1.088135,-0.072388,0.355225,507
56655646,10001,1.072388,-0.070312,0.368652,500
56665623,9977,1.050781,-0.039429,0.401367,498
56675647,10024,1.030273,-0.029785,0.412964,501
56685625,9978,1.009399,-0.027710,0.418823,498
56695629,10004,0.997070,-0.029541,0.422485,488
56705634,10005,0.978638,-0.032104,0.420776,492
56715623,9989,0.955200,-0.030640,0.413452,487
56725639,10016,0.922607,-0.011719,0.407959,483
56735642,10003,0.902832,-0.012451,0.399658,483
56745655,10013,0.883789,-0.019409,0.385254,483
56755646,9991,0.870850,0.006714,0.362671,482
56765638,9992,0.868408,0.030518,0.349609,478
56775621,9983,0.894653,0.011475,0.308105,491
56785637,10016,0.910889,-0.027954,0.290649,486
56795645,10008,0.918457,0.064209,0.256470,500
56805634,9989,0.961670,0.100830,0.252197,509
56815640,10006,0.961670,0.092285,0.240234,515
56825625,9985,1.033325,0.103760,0.217285,521
56835642,10017,1.039307,0.273926,0.192505,528
56845659,10017,1.005005,0.460327,0.174927,536
56855619,9960,1.021362,0.345825,0.177368,544
56865637,10018,1.064087,0.292236,0.215210,557
56875629,9992,1.074829,-0.001831,0.256714,569
56885631,10002,1.065186,-0.002930,0.270020,592
56895626,9995,1.004395,0.161011,0.213623,613
56905634,10008,0.975952,0.259399,0.206055,637
56915642,10008,0.932251,-0.291504,0.296631,672
56925645,10003,0.907593,-1.310791,0.276855,699
56935630,9985,1.011841,-0.066162,0.229980,712
56945644,10014,1.013550,0.013184,0.202393,706
56955624,9980,0.982422,-0.363647,0.225098,693
56965643,10019,0.917725,-0.219971,0.183594,669
56975629,9986,0.933472,-0.169312,0.195435,637
56985646,10017,0.938599,-0.114746,0.191406,600
56995621,9975,0.938110,-0.050171,0.181396,561
57005635,10014,0.939819,0.006226,0.187134,514
57015624,9989,0.945312,0.030151,0.193115,476
57025630,10006,0.952026,0.032104,0.194458,448
57035625,9995,0.971191,0.069702,0.194946,434
57045640,10015,0.982666,0.092041,0.195923,412
57055633,9993,0.995728,0.087036,0.195679,410
57065629,9996,1.005859,0.056885,0.192383,412
57075635,10006,1.012207,0.014160,0.183716,414
57085632,9997,1.016357,-0.092651,0.168579,429
57095632,10000,1.027222,-0.090332,0.159546,447
57105622,9990,1.032715,-0.098877,0.155518,465
57115642,10020,1.033569,-0.092285,0.154663,488
57125632,9990,1.022095,-0.081665,0.158203,509
57135625,9993,1.015381,-0.072021,0.156494,522
57145624,9999,1.001343,-0.061646,0.144653,537
57155623,9999,0.996948,-0.067993,0.141968,552
57165629,10006,0.990723,-0.072388,0.138672,556
57175620,9991,0.989868,-0.069580,0.137817,560
57185639,10019,0.989014,-0.050415,0.144287,550
57195625,9986,0.982666,0.005249,0.206055,554
57205646,10021,0.992676,0.028687,0.232544,549
57215622,9976,0.973022,0.029663,0.240601,547
57225638,10016,0.979858,0.010742,0.241821,533
57235633,9995,0.987427,-0.010498,0.236328,531
57245639,10006,0.974121,-0.019653,0.230713,522
57255647,10008,0.989014,-0.002686,0.232788,507
57265641,9994,1.012817,0.001343,0.244629,499
57275620,9979,1.021973,0.003174,0.245361,496
57285638,10018,1.043457,0.007324,0.243896,497
57295619,9981,1.084717,0.017212,0.280762,490
57305646,10027,1.171021,0.020142,0.257690,500
57317367,11721,1.204956,0.007568,0.263794,502
57325622,8255,1.225586,-0.008423,0.262573,507
57335619,9997,1.222778,-0.024658,0.256836,508
57345630,10011,1.199707,-0.032593,0.251465,504
57355628,9998,1.103271,-0.025146,0.228882,511
57365645,10017,1.028687,-0.014648,0.210449,515
57375634,9989,0.959106,-0.001587,0.201172,515
57385632,9998,0.884277,0.012207,0.203491,519
57395628,9996,0.809814,0.019897,0.205933,516
57405635,10007,0.705322,0.055542,0.186523,520
57415642,10007,0.686646,0.069214,0.175293,516
57425619,9977,0.700195,0.082275,0.166626,514
57435635,10016,0.745728,0.090332,0.159180,512
57445619,9984,0.806885,0.101563,0.156006,511
57455638,10019,0.869751,0.142090,0.169678,506
57465621,9983,0.985840,0.157593,0.167236,506
57475621,10000,1.023071,0.160889,0.160278,520
57485647,10026,1.052490,0.156250,0.150391,526
57495647,10000,1.069214,0.152222,0.142334,528
57505646,9999,1.067383,0.146484,0.137695,540
57515626,9980,1.044067,0.121948,0.133667,542
57525641,10015,1.023438,0.125122,0.144897,546
57535642,10001,1.007935,0.137329,0.188965,541
57545633,9991,0.933716,0.169800,0.205811,543
57555626,9993,0.930420,0.215820,0.197388,540
57565629,10003,0.934570,0.260010,0.253296,537
57575628,9999,0.911377,0.264893,0.257690,534
57585629,10001,0.889893,0.251709,0.264771,529
57595623,9994,0.883545,0.235718,0.271973,525
57605623,10000,0.855469,0.209473,0.267822,517
57615637,10014,0.821533,0.144409,0.246460,509
57625649,10012,0.798218,0.105469,0.242798,511
57635632,9983,0.797485,0.111328,0.251465,510
57645646,10014,0.816650,0.125122,0.269165,524
57655626,9980,0.841797,0.110107,0.300171,540
57665623,9997,0.873535,0.133789,0.363892,560
57675621,9998,0.844971,0.150879,0.390259,584
57685627,10006,0.877319,0.126465,0.414795,604
57695644,10017,0.929443,0.089966,0.441162,621
57705644,10000,0.914673,0.112427,0.473999,640
57715648,10004,0.892090,0.156006,0.460449,641
57725675,10027,0.932373,0.149048,0.442871,642
57735626,9951,0.939575,0.160156,0.433472,629
57745627,10001,0.944702,0.168945,0.432007,617
57755623,9996,0.968140,0.148560,0.438477,585
57765629,10006,0.965698,0.134766,0.416870,565
57775635,10006,1.025391,0.113159,0.409180,537
57785635,10000,1.038330,0.085815,0.420410,506
57795633,9998,1.060547,0.059570,0.430298,475
57805629,9996,1.071777,0.027710,0.435181,443
57815626,9997,1.064697,0.007813,0.428467,426
57825648,10022,1.063354,-0.022827,0.420044,401
57835641,9993,1.054565,-0.047485,0.422729,380
57845626,9985,1.032104,-0.066040,0.430298,374
57855623,9997,1.019775,-0.077026,0.441406,369
57865628,10005,1.019043,-0.071899,0.453613,372
57875632,10004,1.030151,-0.038940,0.476562,372
57885635,10003,1.074097,0.033447,0.505493,377
57895645,10010,1.101807,0.053589,0.499878,392
57905620,9975,1.093872,0.065430,0.474731,400
57915646,10026,1.096436,0.077515,0.434204,414
57925639,9993,1.092773,0.072388,0.385864,425
57935662,10023,1.032471,0.025024,0.267334,445
57945624,9962,0.982788,0.017334,0.218628,430
57955639,10015,0.984375,0.009155,0.185181,442
57965642,10003,0.996460,-0.002075,0.178711,453
57975652,10010,0.986938,-0.003296,0.179932,463
57985619,9967,0.953857,-0.020142,0.221191,476
57995619,10000,0.951660,-0.064087,0.234131,490
58005648,10029,0.931030,-0.103638,0.246826,510
58015649,10001,0.929199,-0.133545,0.246948,532
58025632,9983,0.914673,-0.143677,0.239380,552
58035627,9995,0.939697,-0.152466,0.245605,562
58045640,10013,0.990845,-0.174438,0.237915,580
58055635,9995,1.010010,-0.178711,0.218018,590
58065619,9984,1.016113,-0.184570,0.192261,595
58075630,10011,1.030396,-0.177612,0.170166,596
58085627,9997,1.049438,-0.139404,0.156128,593
58095629,10002,1.029419,-0.071655,0.126709,585
58105645,10016,1.008057,-0.096436,0.122437,570
58115633,9988,0.988037,-0.123535,0.121826,565
58125619,9986,0.967163,-0.114624,0.118408,554
58135633,10014,0.950073,-0.096924,0.118774,544
58145624,9991,0.948242,-0.107300,0.128052,533
58155652,10028,0.953369,-0.124878,0.134155,529
58165625,9973,0.960083,-0.141113,0.135254,528
58175633,10008,0.974487,-0.154297,0.136597,522
58185630,9997,0.989136,-0.166016,0.133179,524
58195644,10014,1.001099,-0.214478,0.122437,529
58205621,9977,1.025635,-0.223022,0.122925,529
58215624,10003,1.037964,-0.237915,0.123169,533
58225627,10003,1.047485,-0.242920,0.124878,536
58235634,10007,1.052002,-0.242432,0.124390,535
58245638,10004,1.055420,-0.225464,0.123535,535
58255643,10005,1.039429,-0.206055,0.122559,535
58265625,9982,1.042358,-0.202271,0.122314,534
58275634,10009,1.048828,-0.193115,0.122314,533
58285631,9997,1.051514,-0.181641,0.118164,537
58295631,10000,1.052246,-0.174805,0.112183,544
58305626,9995,1.034180,-0.157227,0.102539,541
58318802,13176,1.012451,-0.157715,0.096924,540
58325631,6829,0.997192,-0.156250,0.090576,535
58335649,10018,0.991089,-0.151489,0.085083,535
58345648,9999,1.001709,-0.145142,0.081543,537
58355630,9982,1.033203,-0.121094,0.082153,538
58365662,10032,1.159790,-0.102539,0.088257,540
58375619,9957,1.244019,-0.078735,0.093140,544
58385646,10027,1.339355,-0.056152,0.092407,541
58395620,9974,1.423462,-0.038696,0.088623,550
58405630,10010,1.443604,-0.020386,0.089722,553
58415628,9998,1.345581,-0.007813,0.089355,560
58425637,10009,1.271240,-0.005859,0.079102,563
58435627,9990,1.190918,-0.000732,0.070435,557
58445637,10010,1.115234,0.011353,0.067505,548
58455647,10010,1.042480,0.030396,0.075928,542
58465625,9978,0.935181,0.085449,0.124634,525
58475649,10024,0.904297,0.108887,0.158936,525
58485645,9996,0.888062,0.130859,0.189941,520
58495628,9983,0.881714,0.147705,0.213745,512
58505622,9994,0.882080,0.157593,0.222534,504
58515643,10021,0.892822,0.140259,0.188477,495
58525625,9982,0.902466,0.123535,0.160889,480
58535647,10022,0.914795,0.108032,0.136353,477
58545631,9984,0.925781,0.097778,0.122681,472
58555630,9999,0.934326,0.093506,0.123779,474
58565639,10009,0.950928,0.087646,0.129395,472
58575650,10011,0.992187,0.083130,0.191772,475
58585621,9971,1.007202,0.076416,0.197632,483
58595632,10011,1.061768,0.039429,0.197266,482
58605625,9993,1.095215,-0.003662,0.187866,493
58615645,10020,1.111694,-0.019775,0.180176,504
58625640,9995,1.009888,-0.008301,0.194580,512
58635625,9985,0.978394,-0.006226,0.212524,527
58645636,10011,0.957275,0.014404,0.211548,528
58655625,9989,0.962524,0.035034,0.209351,526
58665632,10007,0.951416,0.058472,0.211914,530
58675667,10035,0.878418,0.126831,0.224243,528
58685620,9953,0.872314,0.156006,0.242798,524
58695639,10019,0.852417,0.153564,0.258545,519
58705640,10001,0.826782,0.140747,0.254150,518
58715633,9993,0.835449,0.147339,0.280029,519
58725648,10015,0.819946,0.104126,0.293579,521
58735622,9974,0.799561,0.066406,0.299316,520
58745639,10017,0.787354,0.030640,0.304810,522
58755645,10006,0.779907,0.000732,0.308105,514
58765628,9983,0.788452,-0.012573,0.315186,520
58775638,10010,0.802246,-0.006836,0.339966,519
58785648,10010,0.803467,-0.000122,0.375122,526
58795630,9982,0.844604,0.020630,0.398804,530
58805641,10011,0.913208,0.030396,0.435669,532
58815636,9995,0.990845,0.034424,0.467285,530
58825639,10003,1.051270,0.023926,0.493408,529
58835623,9984,1.227905,-0.057373,0.451782,517
58845628,10005,1.311890,-0.119751,0.395142,510
58855636,10008,1.336670,-0.173462,0.371216,505
58865632,9996,1.325073,-0.173828,0.363403,488
58875633,10001,1.269653,-0.124634,0.367798,488
58885640,10007,1.161865,-0.083862,0.370117,479
58895643,10003,1.097412,-0.057373,0.349487,474
58905620,9977,1.041870,-0.076416,0.329102,483
58915647,10027,1.010864,-0.095825,0.294189,487
58925647,10000,0.989014,-0.101318,0.264404,498
58935648,10001,0.953125,-0.133057,0.199463,509
58945629,9981,0.888550,-0.175781,0.190186,515
58955643,10014,0.881592,-0.184082,0.164551,517
58965628,9985,0.887573,-0.187866,0.141968,529
58975633,10005,0.890381,-0.199951,0.119629,533
58985662,10029,0.930176,-0.194092,0.104858,547
58995634,9972,1.000366,-0.162720,0.090820,561
59005631,9997,0.976929,-0.154785,0.093750,563
59015642,10011,0.936157,-0.126343,0.112793,576
59025641,9999,0.914917,-0.110352,0.138306,582
59035635,9994,0.908447,-0.099976,0.151123,584
59045644,10009,0.916260,-0.132812,0.150635,575
59055640,9996,0.938721,-0.160889,0.140625,580
59065630,9990,0.981323,-0.172119,0.114380,570
59075630,10000,1.066406,-0.183716,0.086670,570
59085625,9995,1.115723,-0.186401,0.063721,564
59095628,10003,1.123779,-0.179443,0.071167,559
59105642,10014,1.060181,-0.147827,0.092896,548
59115634,9992,1.025513,-0.156494,0.113037,544
59125636,10002,0.999146,-0.131958,0.109619,533
59135625,9989,1.014404,-0.133423,0.102051,537
59145621,9996,1.017822,-0.112915,0.091431,531
59155630,10009,1.000610,-0.140137,0.106689,522
59165646,10016,0.983154,-0.156860,0.125488,527
59175638,9992,0.981812,-0.125977,0.140015,525
59185637,9999,0.978271,-0.099121,0.151001,518
59195638,10001,0.976318,-0.095703,0.159546,524
59205648,10010,0.922485,-0.062622,0.172607,518
59215645,9997,0.900513,-0.077271,0.171265,520
59225626,9981,0.897217,-0.100098,0.156006,524
59235624,9998,0.917725,-0.105225,0.142334,518
59245642,10018,0.972412,-0.118530,0.132690,517
59255644,10002,1.070557,-0.118530,0.136963,518
59265641,9997,1.082886,-0.100220,0.153687,519
59275645,10004,1.074707,-0.083374,0.171875,521
59285639,9994,1.049927,-0.059448,0.184937,515
59295631,9992,1.031006,-0.048340,0.186401,515
59305643,10012,1.013184,-0.041260,0.142578,507
59317176,11533,0.986816,-0.043335,0.133667,509
59325643,8467,0.965698,-0.023682,0.115234,511
59335627,9984,0.953369,-0.006104,0.104126,510
59345632,10005,0.944092,0.014282,0.104126,510
59355647,10015,0.926147,0.049438,0.106323,512
59365627,9980,0.913452,0.072266,0.129150,509
59375628,10001,0.919678,0.039429,0.135498,516
59385630,10002,0.926147,0.077148,0.124634,508
59395630,10000,0.954102,0.129517,0.107666,517
59405638,10008,0.928833,0.133057,0.092407,519
59415645,10007,0.913452,0.071045,0.062134,517
59425644,9999,0.904785,0.074951,0.056274,514
59435636,9992,0.890747,0.088501,0.059814,512
59445619,9983,0.887451,0.090942,0.072876,507
59455648,10029,0.876343,0.084229,0.088013,496
59465624,9976,0.878418,0.033447,0.096802,499
59475646,10022,0.897461,0.033691,0.086304,499
59485646,10000,0.914795,0.015259,0.067261,505
59495626,9980,0.941650,0.013794,0.063599,513
59505655,10029,0.956787,0.029541,0.072144,517
59515631,9976,0.964111,0.048828,0.088989,526
59525640,10009,0.979858,0.088013,0.131958,534
59535631,9991,0.981812,0.109619,0.147583,540
59545634,10003,0.981567,0.123047,0.153198,548
59555636,10002,0.974243,0.120239,0.151245,549
59565641,10005,0.960937,0.104858,0.142334,555
59575625,9984,0.942017,0.075562,0.103394,557
59585641,10016,0.951904,0.066772,0.086426,551
59595642,10001,0.973267,0.061279,0.076782,551
59605666,10024,0.986938,0.066406,0.077759,554
59615626,9960,1.004028,0.083984,0.087402,554
59625625,9999,1.066650,0.128784,0.121948,551
59635642,10017,1.089600,0.144897,0.137695,549
59645640,9998,1.088501,0.157837,0.149292,551
59655649,10009,1.068848,0.169556,0.158813,543
59665640,9991,1.046753,0.179932,0.163574,544
59675623,9983,1.028809,0.188599,0.157959,541
59685628,10005,1.001465,0.215942,0.145020,536
59695633,10005,0.991211,0.229126,0.145752,531
59705640,10007,0.979614,0.244385,0.149536,522
59715624,9984,0.968262,0.251343,0.154419,516
59725626,10002,0.952881,0.249512,0.158691,513
59735642,10016,0.908447,0.227173,0.171997,518
59745641,9999,0.883179,0.227783,0.180298,512
59755619,9978,0.862549,0.235474,0.184692,508
59765644,10025,0.845215,0.247681,0.186279,509
59775632,9988,0.843872,0.266235,0.185669,505
59785622,9990,0.850830,0.277466,0.182739,501
59795629,10007,0.849487,0.272095,0.182983,497
59805638,10009,0.839478,0.267212,0.181519,493
59815630,9992,0.835327,0.268555,0.176514,497
59825641,10011,0.838379,0.268311,0.171875,496
59835633,9992,0.850342,0.265503,0.158813,493
59845646,10013,0.902832,0.258667,0.151367,497
59855648,10002,0.941162,0.265137,0.151489,510
59865641,9993,0.973999,0.262939,0.151733,516
59875635,9994,1.002686,0.250244,0.157349,530
59885641,10006,1.033081,0.237183,0.166382,534
59895625,9984,1.062256,0.213989,0.193359,544
59905621,9996,1.073120,0.191772,0.206909,553
59915635,10014,1.080566,0.167480,0.217896,557
59925632,9997,1.083618,0.146240,0.221802,551
59935639,10007,1.072388,0.136230,0.219482,556
59945622,9983,1.029907,0.104736,0.214355,557
59955661,10039,1.017090,0.088989,0.215332,554
59965640,9979,1.008057,0.077759,0.217041,554
59975628,9988,1.003174,0.067871,0.219727,552
59985639,10011,1.002197,0.059570,0.221802,551
59995642,10003,1.005493,0.054932,0.240356,543
60005641,9999,1.005615,0.056519,0.255981,542
60015636,9995,1.004761,0.061890,0.274170,532
60025642,10006,1.002930,0.072754,0.290405,536
60035623,9981,1.001343,0.083984,0.301270,531
60045640,10017,0.997437,0.089966,0.340576,528
60055655,10015,0.988525,0.072510,0.325195,515
60065625,9970,0.993896,0.053345,0.327637,517
60075627,10002,0.999390,0.031738,0.329834,513
60085632,10005,1.005005,0.011841,0.336670,508
60095633,10001,1.014160,0.001099,0.345459,504
60105623,9990,1.037354,0.008911,0.372803,500
60115657,10034,1.048340,0.020508,0.386963,502
60125624,9967,1.055908,0.025635,0.402466,502
60135625,10001,1.063721,0.022461,0.411621,495
60145629,10004,1.064453,0.015625,0.415649,505
60155622,9993,1.030396,-0.001221,0.408813,507
60165638,10016,0.999512,-0.019897,0.393188,511
60175629,9991,0.967163,-0.042603,0.372314,514
60185620,9991,0.940186,-0.063965,0.352539,519
60195630,10010,0.921753,-0.077393,0.333984,518
60205619,9989,0.917847,-0.080444,0.316528,526
60215628,10009,0.944458,-0.060669,0.312500,529
60225633,10005,0.970215,-0.039063,0.310181,533
60235634,10001,0.995850,-0.019653,0.308105,535
60245634,10000,1.015381,-0.009277,0.304443,546
60255627,9993,1.037231,-0.010254,0.298706,546
60265621,9994,1.076172,-0.042725,0.278076,546
60275633,10012,1.087524,-0.057129,0.265869,551
60285624,9991,1.094360,-0.073120,0.253174,541
60295646,10022,1.097290,-0.089600,0.239014,550
60305638,9992,1.096558,-0.098999,0.227661,550
60315619,9981,1.075806,-0.109131,0.205688,553
60327918,12299,1.070435,-0.110107,0.196289,541
60335620,7702,1.067627,-0.109131,0.190186,546
60345633,10013,1.065308,-0.104492,0.182617,545
60355626,9993,1.063232,-0.096191,0.176636,546
60365623,9997,1.053711,-0.079712,0.166382,539
60375631,10008,1.042969,-0.076660,0.163940,545
60385619,9988,1.029541,-0.076294,0.160889,541
60395624,10005,1.013794,-0.076172,0.158691,535
60405633,10009,1.000366,-0.077759,0.157471,537
60415637,10004,0.985718,-0.076660,0.153564,532
60425634,9997,0.941772,-0.070801,0.147705,532
60435626,9992,0.920776,-0.072144,0.142822,522
60445647,10021,0.902588,-0.075562,0.134644,529
60455630,9983,0.887207,-0.080444,0.127686,518
60465625,9995,0.875122,-0.084106,0.118042,524
60475639,10014,0.860718,-0.092285,0.110229,525
60485642,10003,0.859375,-0.091797,0.108887,521
60495627,9985,0.857300,-0.088257,0.106812,519
60505647,10020,0.858643,-0.082397,0.107178,514
60515642,9995,0.867187,-0.074219,0.106689,521
60525641,9999,0.898315,-0.060913,0.090332,521
60535642,10001,0.907593,-0.053955,0.060425,521
60545639,9997,0.913818,-0.058350,0.033691,518
60555639,10000,0.938477,-0.053833,0.039185,518
60565624,9985,0.966431,-0.013306,0.068848,516
60575640,10016,1.010254,0.068481,0.165405,516
60585621,9981,1.019653,0.115723,0.205200,513
60595646,10025,1.019531,0.109131,0.223511,521
60605643,9997,1.012573,0.079224,0.211548,518
60615645,10002,1.021484,0.018066,0.173462,518
60625633,9988,1.030640,-0.040649,0.133667,522
60635620,9987,0.994385,-0.100342,0.123901,519
60645639,10019,0.982056,-0.088501,0.148682,515
60655637,9998,0.987549,-0.066772,0.170166,518
60665630,9993,0.996582,-0.036011,0.192749,515
60675642,10012,0.994385,-0.013550,0.212524,506
60685621,9979,1.000610,-0.027832,0.206299,507
60695636,10015,1.006714,-0.056274,0.180054,495
60705641,10005,1.005981,-0.089478,0.163452,487
60715624,9983,1.007446,-0.117065,0.166992,477
60725642,10018,1.017456,-0.125122,0.182739,468
60735676,10034,0.991943,-0.065063,0.220093,455
60745621,9945,0.963745,-0.005981,0.242065,454
60755627,10006,0.939453,0.047974,0.256836,459
60765635,10008,0.934937,0.076538,0.259766,460
60775640,10005,0.951660,0.091309,0.269775,466
60785642,10002,1.007080,0.084351,0.275513,473
60795630,9988,1.141602,0.131714,0.339722,484
60805626,9996,1.161255,0.164795,0.382568,497
60815626,10000,1.141357,0.202637,0.404297,512
60825641,10015,1.145630,0.232544,0.431396,522
60835639,9998,1.140625,0.253174,0.444702,532
60845626,9987,1.060913,0.219727,0.433838,538
60855640,10014,0.983887,0.184204,0.428467,544
60865620,9980,0.920044,0.140259,0.420288,542
60875644,10024,0.870605,0.124512,0.426147,531
60885631,9987,0.828491,0.104736,0.417358,529
60895631,10000,0.819458,0.012451,0.359253,516
60905628,9997,0.847656,-0.068359,0.322266,498
60915620,9992,0.858276,-0.068237,0.288330,492
60925636,10016,0.858398,-0.004639,0.259521,479
60935645,10009,0.803711,0.110352,0.230103,479
60945634,9989,0.859497,0.146484,0.152466,476
60955648,10014,0.873291,-0.121582,0.138550,480
60965630,9982,0.861694,0.034790,0.080078,470
60975637,10007,0.855713,0.050415,0.085815,480
60985660,10023,0.908569,0.008057,0.062378,481
60995625,9965,0.877930,-0.057007,0.078613,487
61005622,9997,0.859985,-0.044067,0.118774,492
61015642,10020,0.832275,0.066528,0.137451,504
61025640,9998,0.816895,0.161865,0.141846,513
61035668,10028,0.816162,0.165771,0.126099,529
61045630,9962,0.934204,0.051147,0.174438,537
61055646,10016,0.931030,0.089233,0.152832,543
61065646,10000,0.976685,0.121582,0.131958,549
61075626,9980,1.043823,0.114624,0.120361,557
61085661,10035,1.075562,0.098267,0.083984,556
61095644,9983,1.103394,0.116211,0.046753,554
61105624,9980,1.143677,0.092651,-0.002075,546
61115625,10001,1.123535,0.065674,-0.013550,543
61125631,10006,1.140503,0.006714,0.000122,538
61135643,10012,1.108276,-0.071045,-0.015747,531
61145654,10011,1.130127,-0.098022,-0.020264,533
61155627,9973,1.176025,-0.095093,-0.009277,528
61165647,10020,1.258423,-0.184570,-0.038696,532
61175629,9982,1.276367,-0.215332,-0.043823,526
61185649,10020,1.276123,-0.198730,-0.047852,535
61195630,9981,1.270386,-0.173096,-0.062744,539
61205638,10008,1.278076,-0.160156,-0.076660,543
61215638,10000,1.366699,-0.138550,-0.091187,545
61225642,10004,1.454712,-0.122192,-0.097046,555
61235641,9999,1.506470,-0.107544,-0.082397,558
61245630,9989,1.499756,-0.094482,-0.043457,562
61255631,10001,1.441284,-0.074219,0.015991,563
61265626,9995,1.220703,-0.019897,0.193604,553
61275641,10015,1.073975,0.020752,0.294434,546
61285624,9983,0.944092,0.053711,0.379517,529
61295627,10003,0.836670,0.081421,0.474976,520
61305621,9994,0.745850,0.122192,0.530029,498
61315647,10026,0.673218,0.150757,0.494629,476
61329036,13389,0.606079,0.093994,0.419312,448
61335636,6600,0.602295,0.032837,0.344116,434
61345645,10009,0.629639,-0.023560,0.297852,412
61355631,9986,0.639771,-0.065552,0.288818,395
61365648,10017,0.661987,-0.066895,0.302246,374
61375627,9979,0.763916,0.005371,0.320801,369
61385641,10014,0.824585,-0.041748,0.305176,361
61395644,10003,0.869141,-0.059814,0.273926,366
61405646,10002,0.917358,-0.093750,0.248169,391
61415647,10001,0.918091,0.005371,0.205444,418
61425645,9998,0.885254,0.546997,0.066406,448
61435628,9983,0.989624,0.651245,0.089111,488
61445624,9996,0.943970,0.924316,0.074097,531
61455639,10015,0.999756,0.525024,0.190674,582
61465650,10011,0.966553,0.638794,0.153931,632
61475619,9969,0.883789,0.295532,0.171387,690
61485638,10019,0.933105,0.046753,0.193481,732
61495638,10000,0.932495,-0.001709,0.150757,780
61505639,10001,0.963013,-0.265381,0.188843,805
61515648,10009,1.019409,-0.325562,0.169434,830
61525626,9978,0.996216,-0.206299,0.148437,839
61535626,10000,0.944702,-0.074341,0.116943,832
61545640,10014,0.982544,-0.145630,0.109619,804
61555641,10001,1.021973,-0.185425,0.097168,780
61565621,9980,1.006226,-0.174927,0.043457,735
61575665,10044,1.107544,0.089600,0.015015,686
61585642,9977,1.126465,-0.034790,0.000854,634
61595636,9994,1.114014,-0.131714,-0.011230,578
61605639,10003,1.095703,0.806885,-0.253052,530
61615646,10007,1.116211,0.352051,-0.207886,481
61625626,9980,0.994995,-0.381470,-0.111450,446
61635621,9995,1.049194,-0.640991,0.168945,433
61645643,10022,1.081421,-0.057739,0.188965,420
61655626,9983,1.066650,0.214844,0.116089,399
61665646,10020,1.037720,0.144775,0.063965,386
61675620,9974,1.052979,0.029419,0.060059,377
61685651,10031,1.099854,-0.015137,0.095703,364
61695647,9996,1.141724,0.049072,0.157837,366
61705647,10000,1.172119,0.124023,0.150024,372
61715627,9980,1.200806,0.234375,0.114258,384
61725638,10011,1.242920,0.377319,0.068726,393
61735636,9998,1.269653,0.485596,0.054810,417
61745648,10012,1.110352,0.577759,0.066162,437
61755635,9987,1.101807,0.682495,0.074219,461
61765642,10007,1.087769,0.723389,0.065674,484
61775629,9987,1.077393,0.610229,0.064453,506
61785639,10010,1.064453,0.440552,0.038818,513
61795639,10000,1.035278,0.234131,0.021729,510
61805641,10002,1.003296,0.200806,0.027710,503
61815631,9990,0.977783,0.169556,0.038940,504
61825647,10016,0.939697,0.127563,0.040527,491
61835631,9984,0.901367,0.096924,0.039917,491
61845643,10012,0.876953,0.101685,0.041870,486
61855624,9981,0.857056,0.152100,0.035522,483
61865648,10024,0.857788,0.161133,0.041016,479
61875641,9993,0.863525,0.172852,0.049561,480
61885647,10006,0.868530,0.195068,0.059448,472
61895634,9987,0.877686,0.226074,0.073975,483
61905641,10007,0.927979,0.257080,0.093506,484
61915645,10004,0.963989,0.255493,0.108398,489
61925638,9993,0.984253,0.252197,0.121094,498
61935623,9985,1.012085,0.249878,0.137695,498
61945648,10025,1.034546,0.256836,0.150879,511
61955622,9974,1.062500,0.284180,0.189697,521
61965634,10012,1.070557,0.278442,0.218750,532
61975621,9987,1.061646,0.282104,0.238281,541
61985627,10006,1.054810,0.287964,0.261353,542
61995644,10017,1.039795,0.286377,0.275269,552
62005629,9985,1.031250,0.247070,0.293457,551
62015627,9998,1.013306,0.227783,0.288452,545
62025625,9998,0.992554,0.222168,0.276245,541
62035622,9997,0.982910,0.218872,0.260010,540
62045624,10002,0.944336,0.150635,0.246704,529
62055665,10041,0.948853,0.130127,0.250977,515
62065637,9972,0.922119,-0.009155,0.255737,501
62075639,10002,0.901489,-0.029297,0.262085,487
62085636,9997,0.876099,-0.043213,0.261719,468
62095645,10009,0.873169,-0.033569,0.257324,466
62105627,9982,0.884766,-0.036743,0.247681,466
62115635,10008,0.934937,-0.037964,0.235840,471
62125643,10008,0.967163,-0.020508,0.240112,476
62135632,9989,1.002197,-0.008301,0.247070,487
62145648,10016,1.043701,-0.005737,0.250244,504
62155633,9985,1.078735,-0.037842,0.244141,512
62165622,9989,1.088989,-0.083740,0.220947,524
62175637,10015,1.043579,-0.088257,0.211914,531
62185624,9987,1.009399,-0.090698,0.206177,545
62195635,10011,0.984619,-0.076294,0.201660,541
62205630,9995,0.962524,-0.046753,0.198486,545
62215620,9990,0.941528,-0.005371,0.200195,555
62225665,10045,0.942871,0.060059,0.223755,559
62235644,9979,0.946533,0.059326,0.236572,556
62245635,9991,0.938965,0.063477,0.249756,554
62255637,10002,0.927368,0.076782,0.245728,546
62265628,9991,0.929810,0.041992,0.249878,535
62275662,10034,0.866455,0.004150,0.240723,528
62285647,9985,0.860840,-0.030762,0.254272,516
62295636,9989,0.865723,-0.054321,0.263428,502
62305627,9991,0.877441,-0.079956,0.267578,487
62315636,10009,0.898315,-0.091309,0.281738,482
62329246,13610,0.906738,-0.100220,0.246460,473
62335634,6388,0.902588,-0.064819,0.222656,466
62345641,10007,0.920532,-0.039917,0.223877,471
62355628,9987,0.906372,0.012695,0.210205,471
62365646,10018,0.893921,0.021606,0.203857,467
62375623,9977,0.909302,0.045410,0.209717,471
62385644,10021,1.007690,0.048828,0.229736,470
62395646,10002,1.077026,-0.023437,0.245117,463
62405638,9992,1.139526,-0.058472,0.242676,462
62415642,10004,1.183960,-0.068848,0.246582,466
62425647,10005,1.190063,-0.071899,0.241943,464
62435645,9998,1.080200,-0.052979,0.179565,465
62445627,9982,1.158447,-0.028442,0.263672,455
62455640,10013,0.956909,-0.140991,0.253906,458
62465627,9987,0.953369,-0.128418,0.295776,462
62475643,10016,0.943115,-0.142822,0.382324,466
62485662,10019,0.838013,-0.149902,0.368896,479
62495642,9980,0.859009,-0.091675,0.394531,486
62505637,9995,0.824341,-0.104492,0.387451,497
62515620,9983,0.817261,-0.137329,0.383667,510
62525621,10001,0.845947,-0.125488,0.389771,516
62535626,10005,0.842163,-0.100952,0.354004,526
62545623,9997,0.864380,-0.116455,0.342529,531
62555629,10006,0.870850,-0.126221,0.322388,536
62565641,10012,0.892212,-0.125610,0.314941,530
62575647,10006,0.911255,-0.123901,0.315918,536
62585640,9993,0.926636,-0.137939,0.332153,530
62595639,9999,0.966797,-0.171143,0.415771,537
62605643,10004,0.997314,-0.151855,0.463501,534
62615635,9992,1.047241,-0.129639,0.499634,529
62625635,10000,1.097778,-0.134644,0.506348,531
62635642,10007,1.131348,-0.151611,0.502075,532
62645659,10017,1.141968,-0.132446,0.457275,525
62655643,9984,1.129517,-0.142578,0.435913,522
62665630,9987,1.121948,-0.144897,0.418213,517
62675627,9997,1.107056,-0.147705,0.408325,516
62685643,10016,1.094238,-0.150269,0.396973,519
62695638,9995,1.056763,-0.179443,0.365479,518
62705631,9993,1.037109,-0.190918,0.355835,512
62715644,10013,1.064941,-0.220093,0.367676,508
62725647,10003,1.127563,-0.386719,0.431641,515
62735639,9992,0.950928,-0.456055,0.314941,532
62745631,9992,1.002686,-0.251099,0.334839,537
62755655,10024,0.941040,-0.009888,0.281372,535
62765620,9965,0.959351,-0.086670,0.259644,540
62775646,10026,0.952637,-0.127441,0.250610,541
62785621,9975,0.947632,-0.094727,0.236084,530
62795638,10017,0.930420,-0.061401,0.223022,531
62805630,9992,0.913940,-0.034546,0.204712,527
62815632,10002,0.899414,-0.031738,0.192749,526
62825627,9995,0.895752,-0.028198,0.179687,519
62835623,9996,0.889893,-0.020630,0.172607,522
62845631,10008,0.890503,-0.017090,0.168945,525
62855643,10012,0.882080,-0.034302,0.166870,534
62865620,9977,0.884155,-0.044434,0.164307,537
62875626,10006,0.888916,-0.045898,0.164429,543
62885631,10005,0.890503,-0.038818,0.172729,547
62895647,10016,0.897339,-0.036987,0.173706,546
62905633,9986,0.896118,-0.039673,0.171997,551
62915629,9996,0.865967,-0.062012,0.172241,549
62925629,10000,0.847412,-0.068481,0.171753,553
62935640,10011,0.838257,-0.069580,0.171631,542
62945623,9983,0.833496,-0.066162,0.173218,545
62955623,10000,0.832520,-0.062500,0.179077,531
62965665,10042,0.843018,-0.055908,0.190796,532
62975639,9974,0.869019,-0.050903,0.203125,530
62985644,10005,0.887939,-0.042358,0.211060,527
62995633,9989,0.925293,-0.039795,0.214600,530
63005621,9988,0.972168,-0.050415,0.215088,527
63015645,10024,1.057129,-0.066040,0.231323,530
63025620,9975,1.113037,-0.073364,0.246216,530
63035633,10013,1.145142,-0.062744,0.269653,533
63045641,10008,1.180054,-0.058472,0.285400,529
63055626,9985,1.187988,-0.061401,0.286621,538
63065620,9994,1.194580,-0.118042,0.289307,550
63075625,10005,1.144775,-0.121338,0.289307,556
63085641,10016,1.098511,-0.114502,0.294189,554
63095628,9987,1.025879,-0.084595,0.289673,545
63105623,9995,0.983276,-0.148926,0.309814,543
63115635,10012,0.908691,-0.181274,0.310547,528
63125644,10009,0.787720,-0.116211,0.294800,520
63135639,9995,0.788208,-0.031494,0.265747,504
63145625,9986,0.808350,-0.013184,0.240723,490
63155643,10018,0.977661,0.001221,0.182983,484
63165646,10003,0.864502,-0.022949,0.214478,474
63175620,9974,1.130737,-0.002563,0.241333,460
63185657,10037,1.206177,-0.116821,0.207764,458
63195643,9986,1.177612,-0.100830,0.214233,448
63205643,10000,1.265259,-0.132812,0.253906,444
63215622,9979,1.200073,-0.139893,0.233032,454
63225635,10013,1.198364,-0.066528,0.243042,454
63235637,10002,1.154541,-0.095581,0.209229,452
63245626,9989,1.090942,-0.119385,0.192627,453
63255644,10018,1.032471,-0.086792,0.191895,450
63265646,10002,1.005981,-0.055908,0.202026,450
63275634,9988,0.970703,-0.010864,0.221313,444
63285643,10009,0.910889,0.094116,0.240723,451
63295640,9997,0.865723,0.092651,0.239136,457
63305631,9991,0.854492,0.057983,0.237183,457
63315638,10007,0.875610,0.030151,0.230103,468
63325624,9986,0.882568,0.039063,0.237305,470
63335709,10085,0.880737,-0.045288,0.258423,470
63345633,9924,0.897339,-0.062866,0.260376,480
63355625,9992,0.908936,-0.088501,0.273560,484
63365625,10000,0.876099,-0.066040,0.255615,488
63375641,10016,0.911377,-0.002075,0.291382,488
63385639,9998,0.927124,-0.049316,0.329956,496
63395626,9987,0.969238,-0.060791,0.352173,502
63405632,10006,1.001343,-0.007324,0.384277,507
63415647,10015,0.999634,0.013916,0.401611,512
63425642,9995,0.999512,-0.007813,0.412354,512
63435633,9991,1.001587,-0.019287,0.449097,517
63445648,10015,0.991821,-0.004028,0.464233,519
63455633,9985,0.967163,-0.017578,0.476074,516
63465633,10000,0.977539,-0.030029,0.493042,509
63475621,9988,0.977295,-0.011230,0.510864,508
63485629,10008,0.951538,0.009766,0.522095,499
63495626,9997,0.923950,-0.022461,0.546875,497
63505659,10033,0.930664,-0.015381,0.554810,497
63515640,9981,0.958496,0.007446,0.565430,493
63525619,9979,0.999512,0.024902,0.575317,489
63535634,10015,1.052490,0.030884,0.578247,490
63545642,10008,1.204712,0.032104,0.553833,501
63555646,10004,1.270874,0.017456,0.523315,505
63565633,9987,1.330078,0.012329,0.493408,513
63575627,9994,1.362793,0.014771,0.463257,521
63585648,10021,1.377319,0.009521,0.428467,533
63595621,9973,1.366211,-0.001709,0.351685,545
63605643,10022,1.270508,-0.020752,0.326538,554
63615619,9976,1.211060,-0.033936,0.305054,565
63625648,10029,1.141357,-0.047485,0.283569,573
63635643,9995,1.076782,-0.059448,0.264160,573
63645641,9998,1.031006,-0.090210,0.249634,577
63655620,9979,0.936401,-0.129150,0.214600,583
63665642,10022,0.918457,-0.099121,0.211304,587
63675622,9980,0.915771,-0.074829,0.211548,586
63685625,10003,0.930298,-0.095093,0.215332,582
63695622,9997,0.964111,-0.122314,0.215820,574
63705619,9997,1.042480,-0.092285,0.201904,571
63715661,10042,1.076172,-0.063599,0.194214,564
63725632,9971,1.120972,-0.042480,0.180908,552
63735641,10009,1.118774,-0.044678,0.163086,549
63745622,9981,1.142700,-0.047119,0.151733,540
63755644,10022,1.183472,-0.038208,0.135254,539
63765634,9990,1.176025,-0.057373,0.127319,532
63775619,9985,1.164795,-0.075928,0.120972,528
63785647,10028,1.144287,-0.096069,0.111938,513
63795634,9987,1.122192,-0.115967,0.100952,509
63805646,10012,1.098022,-0.136230,0.088623,510
63815648,10002,1.086182,-0.168091,0.081055,506
63825621,9973,1.075195,-0.174927,0.080933,502
63835625,10004,1.050903,-0.187744,0.079224,498
63845646,10021,1.035889,-0.197754,0.077148,492
63855634,9988,1.024902,-0.199463,0.075684,497
63865621,9987,1.000854,-0.198975,0.068237,502
63875637,10016,0.994995,-0.195923,0.060669,503
63885652,10015,0.995605,-0.193604,0.052368,508
63895645,9993,0.992798,-0.187012,0.046021,509
63905642,9997,0.984375,-0.180420,0.041016,507
63915634,9992,0.976562,-0.174683,0.031860,514
63925624,9990,0.977783,-0.171509,0.028931,518
63935666,10042,0.981445,-0.168457,0.025513,521
63945636,9970,0.989746,-0.165771,0.022217,523
63955620,9984,0.998047,-0.164185,0.015625,524
63965637,10017,1.000610,-0.160522,0.009521,529
63975626,9989,1.005859,-0.154175,0.003174,531
63985620,9994,1.011597,-0.150757,0.000488,530
63995654,10034,1.015137,-0.145874,-0.002319,529
64005646,9992,1.016846,-0.134766,-0.003784,536
64015648,10002,1.016113,-0.117310,-0.002930,538
64025627,9979,1.022217,-0.071899,0.007568,531
64035636,10009,1.035278,-0.043823,0.019287,539
64045625,9989,1.055176,-0.020264,0.032471,539
64055624,9999,1.083252,-0.001831,0.045776,521
64065644,10020,1.124878,0.004028,0.056885,535
64075647,10003,1.203491,-0.012817,0.070801,529
64085648,10001,1.186646,-0.029785,0.070679,530
64095623,9975,1.122192,-0.044800,0.069824,528
64105630,10007,1.041260,-0.049683,0.064697,520
64115631,10001,0.973145,-0.049194,0.057373,514
64125641,10010,0.909180,-0.030884,0.049194,507
64135631,9990,0.807495,-0.017944,0.057129,496
64145643,10012,0.789673,-0.006348,0.072021,496
64155631,9988,0.799561,0.009155,0.085815,496
64165633,10002,0.835815,0.028687,0.099854,494
64175639,10006,0.889648,0.042114,0.112793,497
64185623,9984,1.002441,0.062744,0.150513,504
64195624,10001,1.054810,0.085083,0.180420,508
64205639,10015,1.098389,0.110962,0.205688,512
64215627,9988,1.124512,0.129028,0.226929,519
64225642,10015,1.129272,0.136597,0.240845,522
64235630,9988,1.114624,0.103882,0.229980,519
64245629,9999,1.109375,0.070801,0.214844,516
64255636,10007,1.109253,0.047363,0.203857,510
64265645,10009,1.105347,0.057861,0.209961,511
64275633,9988,1.106079,0.056396,0.213623,512
64285637,10004,1.076904,0.068237,0.245972,513
64295643,10006,1.078003,0.120239,0.269043,518
64305662,10019,1.052979,0.172729,0.253174,523
64315630,9968,0.979980,0.306030,0.322754,529
64325642,10012,1.047974,0.357544,0.361084,534
64336307,10665,0.989014,0.278809,0.388306,541
64345641,9334,0.963257,0.283569,0.406006,541
64355673,10032,0.982666,0.471680,0.429077,543
64365619,9946,0.988770,0.645630,0.460449,554
64375630,10011,0.992920,0.532104,0.455078,560
64385646,10016,0.939941,0.333862,0.398926,565
64395636,9990,0.901367,0.083252,0.266113,568
64405628,9992,0.916138,0.050415,0.205566,565
64415647,10019,0.923096,0.051880,0.171753,558
64425631,9984,0.944092,0.046875,0.133423,540
64435633,10002,0.966064,0.000610,0.100464,535
64445637,10004,1.044800,0.006104,0.006958,528
64455629,9992,1.080933,-0.041382,-0.010376,521
64465620,9991,1.091553,0.000732,-0.034790,513
64475634,10014,1.094482,0.061035,-0.027466,498
64485642,10008,1.104858,0.102051,0.004272,475
64495623,9981,1.112915,0.241333,0.067139,436
64505632,10009,1.125366,0.309448,0.087646,403
64515624,9992,1.123291,0.355225,0.101807,379
64525637,10013,1.102539,0.371948,0.099121,368
64535628,9991,1.085327,0.369263,0.066895,374
64545623,9995,1.094482,0.252563,0.040161,377
64555645,10022,1.075806,0.087158,-0.031128,398
64565652,10007,1.054321,0.084106,-0.053955,410
64575630,9978,1.070557,0.030640,-0.048096,440
64585625,9995,1.078613,-0.001099,-0.035156,460
64595639,10014,1.077026,0.003052,-0.017334,485
64605646,10007,1.087158,0.081299,0.029297,513
64615633,9987,1.080322,0.125610,0.044800,531
64625639,10006,1.058960,0.139160,0.052979,564
64635640,10001,1.043091,0.129272,0.059570,585
64645632,9992,1.026855,0.091064,0.062256,594
64655622,9990,0.974976,0.012695,0.067749,609
64665629,10007,0.991455,0.013550,0.077881,620
64675636,10007,0.974243,0.022949,0.093262,623
64685646,10010,0.968384,0.043701,0.111694,624
64695627,9981,0.969238,0.074585,0.131836,620
64705647,10020,0.973511,0.098633,0.156372,617
64715637,9990,0.996338,0.137573,0.176270,605
64725628,9991,1.002686,0.122192,0.169556,594
64735641,10013,1.008911,0.070435,0.162842,577
64745641,10000,1.008667,0.037109,0.150635,569
64755631,9990,1.013062,0.012939,0.143799,557
64765641,10010,1.028076,-0.004150,0.145020,549
64775632,9991,1.045898,-0.009033,0.146118,538
64785636,10004,1.048096,0.041382,0.125244,535
64795632,9996,1.119141,0.132690,0.123291,507
64805638,10006,1.143433,0.264648,0.077026,497
64815637,9999,1.138794,0.448730,0.102295,487
64825648,10011,1.179810,0.425781,0.188965,487
64835645,9997,1.144775,0.366089,0.238159,506
64845634,9989,1.156006,0.293701,0.312866,525
64855633,9999,1.168457,0.202148,0.382324,540
64865635,10002,1.153809,0.059814,0.371582,549
64875627,9992,1.094238,-0.237671,0.343628,556
64885646,10019,1.031738,-0.328247,0.323975,561
64895621,9975,1.029541,-0.375000,0.306519,557
64905623,10002,1.021729,-0.409546,0.295044,554
64915629,10006,1.000732,-0.413696,0.283569,545
64925638,10009,0.913696,-0.370728,0.240601,536
64935646,10008,0.906128,-0.293823,0.242065,530
64945627,9981,0.897217,-0.245239,0.238037,513
64955649,10022,0.885010,-0.215454,0.210693,502
64965619,9970,0.874146,-0.184814,0.171509,494
64975637,10018,0.863647,-0.177979,0.090820,476
64985637,10000,0.844849,-0.153076,0.063354,468
64995619,9982,0.845703,-0.102051,0.045532,464
65005640,10021,0.836914,-0.054810,0.039185,470
65015641,10001,0.836914,-0.025757,0.035156,470
65025640,9999,0.852295,-0.013306,0.039307,479
65035620,9980,0.929565,-0.014648,0.046509,487
65045630,10010,0.973267,-0.004395,0.058838,502
65055626,9996,0.998535,-0.000488,0.071777,514
65065623,9997,1.029297,0.015625,0.089233,536
65075641,10018,1.060425,0.042969,0.107300,551
65085631,9990,1.087769,0.105835,0.124023,561
65095632,10001,1.085571,0.143433,0.121094,568
65105626,9994,1.075439,0.185303,0.106567,567
65115640,10014,1.065674,0.221924,0.097656,571
65125635,9995,1.061279,0.262695,0.083984,566
65135631,9996,1.020996,0.305542,0.103027,560
65145622,9991,1.005859,0.316772,0.119873,543
65155630,10008,0.994263,0.302246,0.134399,534
65165640,10010,0.977295,0.274902,0.142822,520
65175624,9984,0.962769,0.239624,0.146606,506
65185622,9998,0.992554,0.154053,0.143921,504
65195638,10016,0.964355,0.116577,0.125366,494
65205632,9994,0.995239,0.102783,0.101929,488
65215633,10001,1.016113,0.102173,0.080566,485
65225631,9998,1.023682,0.083862,0.064697,489
65235623,9992,1.056030,0.067017,0.063354,491
65245633,10010,1.101563,-0.050903,0.091187,496
65255641,10008,1.139771,-0.118042,0.127686,493
65265629,9988,1.157471,-0.178833,0.171509,493
65275641,10012,1.145996,-0.222656,0.189453,478
65285628,9987,1.100586,-0.237915,0.170532,466
65295635,10007,1.047852,-0.255737,0.073364,446
65305647,10012,1.028564,-0.277466,0.018677,432
65315667,10020,1.021118,-0.299805,-0.009155,426
65325639,9972,1.027832,-0.322754,-0.005737,413
65335655,10016,1.032715,-0.370483,0.005859,417
65345629,9974,1.029907,-0.488770,0.081909,418
65355626,9997,1.003784,-0.490723,0.102417,427
65365626,10000,0.995361,-0.487915,0.118042,441
65375636,10010,0.977051,-0.484741,0.126465,456
65385642,10006,0.971436,-0.521606,0.137939,469
65395622,9980,0.937622,-0.546875,0.123657,499
65405633,10011,0.925171,-0.531494,0.114746,518
65415644,10011,0.958740,-0.561035,0.160400,539
65425670,10026,0.929199,-0.719604,0.207764,568
65435647,9977,0.876709,-0.754639,0.159058,591
65445623,9976,0.934937,-0.501221,0.146240,603
65455619,9996,0.943481,-0.372314,0.170410,620
65465642,10023,0.937134,-0.414185,0.164551,630
65475621,9979,0.971436,-0.438354,0.204712,632
65485640,10019,0.973145,-0.381592,0.228027,632
65495635,9995,0.906372,-0.387207,0.161255,627
65505648,10013,0.942871,-0.504639,0.159668,624
65515645,9997,0.959351,-0.411377,0.162598,617
65525647,10002,0.938477,-0.382690,0.155518,608
65535668,10021,0.926880,-0.381348,0.156616,598
65545646,9978,0.932373,-0.382690,0.155640,590
65555619,9973,0.906982,-0.332275,0.130859,583
65565637,10018,0.897827,-0.305664,0.137573,577
65575620,9983,0.889404,-0.311768,0.142944,571
65585631,10011,0.888306,-0.315063,0.143799,563
65595651,10020,0.887207,-0.307617,0.148315,560
65605623,9972,0.886230,-0.290527,0.142700,564
65615626,10003,0.870239,-0.300415,0.118408,558
65625625,9999,0.873901,-0.265381,0.103394,559
65635632,10007,0.872070,-0.213867,0.096680,557
65645658,10026,0.874023,-0.180176,0.104126,555
65655621,9963,0.867676,-0.168213,0.112671,545
65665643,10022,0.870972,-0.138428,0.143677,547
65675621,9978,0.881104,-0.127441,0.169678,548
65685623,10002,0.885376,-0.117310,0.190552,545
65695635,10012,0.903931,-0.128662,0.197510,545
65705655,10020,0.906860,-0.154053,0.173340,544
65715626,9971,0.917725,-0.220337,0.112915,545
65725638,10012,0.954346,-0.253418,0.087891,542
65735637,9999,0.991333,-0.271973,0.070435,531
65745627,9990,1.025024,-0.269775,0.065918,530
65755642,10015,1.055786,-0.253906,0.070557,532
65765623,9981,1.067749,-0.235107,0.067627,531
65775633,10010,1.053223,-0.186646,0.052612,531
65785630,9997,1.032593,-0.169312,0.046753,528
65795644,10014,1.000610,-0.140137,0.041504,528
65805624,9980,0.966187,-0.117188,0.036377,532
65815620,9996,0.931519,-0.102905,0.039551,534
65825648,10028,0.903809,-0.055542,0.068481,528
65835639,9991,0.909424,-0.010498,0.090332,527
65845641,10002,0.926147,0.027710,0.112427,530
65855648,10007,0.953979,0.046143,0.122925,528
65865631,9983,0.992187,0.051147,0.124023,527
65875626,9995,1.090088,0.052490,0.087158,521
65885641,10015,1.175171,0.061035,0.048950,518
65895641,10000,1.245728,0.092285,0.000366,517
65905633,9992,1.256958,0.126831,-0.021606,510
65915636,10003,1.211914,0.142822,-0.000244,508
65925634,9998,1.173462,0.142578,0.049316,497
65935630,9996,1.169189,0.036255,0.046997,498
65945628,9998,1.199463,0.003052,0.054443,499
65955634,10006,1.194336,0.016113,0.042480,496
65965637,10003,1.182739,0.017700,0.030273,498
65975643,10006,1.212036,-0.030273,0.111450,503
65985641,9998,1.194824,-0.090942,0.227783,510
65995629,9988,1.199951,0.013062,0.324097,519
66005619,9990,1.207031,0.096313,0.378296,520
66015640,10021,1.201538,0.138672,0.411987,528
66025643,10003,1.177490,0.121338,0.410767,532
66035635,9992,1.083862,0.092407,0.367798,532
66045638,10003,1.050415,0.078491,0.351563,525
66055620,9982,1.024536,0.064453,0.334961,509
66065631,10011,1.014282,0.024780,0.340698,502
66075648,10017,0.978638,-0.025391,0.345093,483
66085630,9982,0.974121,0.060059,0.309814,469
66095647,10017,0.975708,-0.031372,0.367676,450
66105640,9993,0.936279,-0.117310,0.326294,429
66115640,10000,0.983398,-0.164673,0.351807,435
66125620,9980,0.970947,-0.124878,0.342285,443
66135628,10008,0.984009,-0.065186,0.362183,461
66145626,9998,0.968018,-0.130127,0.351074,478
66155647,10021,0.952148,-0.222656,0.338501,489
66165675,10028,0.941772,-0.241577,0.326782,506
66175647,9972,0.935303,-0.198486,0.332153,523
66185623,9976,0.918701,-0.161865,0.336304,529
66195621,9998,0.920410,-0.149780,0.348267,541
66205628,10007,0.917969,-0.127197,0.350830,547
66215639,10011,0.916748,-0.101685,0.352661,543
66225644,10005,0.920898,-0.090698,0.356079,550
66235642,9998,0.932861,-0.100830,0.355591,549
66245623,9981,0.954468,-0.135132,0.349121,550
66255621,9998,0.958618,-0.143555,0.348022,548
66265625,10004,0.960571,-0.147583,0.353760,540
66275630,10005,0.964966,-0.151001,0.360596,545
66285644,10014,0.973633,-0.150146,0.369141,539
66295648,10004,0.982544,-0.143677,0.379761,540
66305629,9981,0.981812,-0.127197,0.392822,538
66315621,9992,0.973267,-0.117188,0.392456,531
66325642,10021,0.964966,-0.104980,0.390381,531
66335630,9988,0.958130,-0.087891,0.388794,532
66346267,10637,0.964233,-0.067871,0.396240,525
66355628,9361,0.000000,0.000000,0.000000,531
66365642,10014,1.044922,-0.008789,0.412842,533
66375645,10003,1.084229,-0.013550,0.411987,531
66385644,9999,1.122925,-0.028931,0.407227,530
66395633,9989,1.151245,-0.049438,0.395386,536
66405623,9990,1.178589,-0.095337,0.378540,538
66415632,10009,1.187866,-0.098267,0.373047,537
66425645,10013,1.199585,-0.089478,0.374146,529
66435643,9998,1.207275,-0.073730,0.370239,523
66445635,9992,1.202148,-0.053101,0.359619,527
66455641,10006,1.183716,-0.025146,0.321289,519
66465635,9994,1.118164,0.021362,0.300415,522
66475646,10011,1.076904,0.030151,0.279785,521
66485624,9978,1.040283,0.030151,0.260986,522
66495645,10021,1.014526,0.052368,0.236938,531
66505635,9990,0.975342,0.267700,0.206665,528
66515623,9988,0.996338,0.147827,0.153809,540
66525627,10004,0.985718,0.385620,0.134399,550
66535636,10009,1.015747,0.564819,0.115112,555
66545623,9987,1.098877,0.074951,0.193481,562
66555633,10010,0.832275,1.997070,-0.213745,559
66565627,9994,1.106323,1.571533,0.575195,579
66575623,9996,1.337891,-0.344116,0.814331,600
66585641,10018,1.182861,-0.529419,0.572754,620
66595634,9993,1.021118,-0.994385,0.558472,643
66605632,9998,1.130859,-1.040161,0.507812,675
66615647,10015,1.262817,-0.940430,0.322388,724
66625630,9983,1.342529,-0.527710,0.317871,754
66635636,10006,1.340942,-0.149658,0.276001,776
66645621,9985,1.219604,-0.523193,0.275269,777
66655634,10013,1.075684,-0.325806,0.175171,765
66665627,9993,1.050659,-0.285889,0.162109,715
66675621,9994,1.008423,-0.147705,0.176636,668
66685633,10012,0.966675,-0.018921,0.168335,610
66695647,10014,0.940430,0.077637,0.192261,541
66705637,9990,0.921143,0.148804,0.210571,478
66715626,9989,0.909424,0.206055,0.219360,417
66725621,9995,0.905884,0.209961,0.171265,362
66735626,10005,0.906738,0.158569,0.140747,326
66745627,10001,0.911621,0.099365,0.120239,301
66755638,10011,0.921997,0.054077,0.128418,294
66765626,9988,0.942871,0.038330,0.155884,298
66775646,10020,0.956909,0.028931,0.188721,304
66785627,9981,0.946777,0.015503,0.180054,321
66795630,10003,0.932983,0.005859,0.164429,336
66805668,10038,0.927124,-0.007080,0.146851,360
66815643,9975,0.937378,-0.019165,0.136963,380
66825640,9997,0.958862,-0.026855,0.130615,403
66835620,9980,0.982666,-0.022217,0.120239,428
66845629,10009,0.982178,-0.020508,0.107788,448
66855634,10005,0.986450,-0.017578,0.090820,467
66865623,9989,0.993286,-0.008301,0.078735,487
66875628,10005,0.999146,0.010010,0.072144,502
66885639,10011,0.994629,0.063354,0.063599,515
66895622,9983,0.974365,0.088501,0.059204,526
66905643,10021,0.953613,0.105347,0.061279,537
66915621,9978,0.933716,0.112671,0.073242,545
66925641,10020,0.919800,0.109741,0.090576,551
66935636,9995,0.926147,0.089478,0.106689,557
66945639,10003,0.946655,0.072754,0.102295,560
66955643,10004,0.987427,0.055664,0.093994,569
66965621,9978,1.037354,0.041016,0.082886,570
66975633,10012,1.077637,0.037231,0.079468,567
66985634,10001,1.117676,0.047485,0.089722,576
66995631,9997,1.144287,0.056763,0.113159,576
67005626,9995,1.141357,0.062378,0.141235,582
67015635,10009,1.121216,0.049438,0.159790,580
67025651,10016,1.092285,0.029785,0.166626,578
67035630,9979,1.054077,0.023682,0.160645,577
67045640,10010,0.967407,0.029175,0.138306,568
67055634,9994,0.939941,0.033325,0.138428,569
67065630,9996,0.933350,0.045654,0.147583,563
67075639,10009,0.952026,0.056519,0.164551,560
67085623,9984,0.983765,0.065796,0.183716,554
67095643,10020,1.046387,0.077515,0.216919,554
67105627,9984,1.074707,0.076538,0.221558,546
67115638,10011,1.102783,0.064453,0.217285,549
67125631,9993,1.132202,0.042847,0.210815,554
67135622,9991,1.159058,0.018311,0.203979,557
67145624,10002,1.176025,-0.024658,0.189697,560
67155639,10015,1.171143,-0.042725,0.184814,554
67165648,10009,1.160156,-0.051880,0.189697,560
67175627,9979,1.158325,-0.045288,0.228149,561
67185648,10021,1.121094,-0.063232,0.235107,561
67195619,9971,1.093750,-0.024658,0.256348,561
67205637,10018,1.018066,0.043701,0.269287,554
67215632,9995,1.071045,0.044189,0.330933,545
67225647,10015,1.005859,-0.006104,0.326416,547
67235634,9987,0.966553,-0.031860,0.298340,544
67245619,9985,0.981079,0.002075,0.324585,539
67255627,10008,0.940308,0.019409,0.314819,526
67265634,10007,0.941650,-0.037842,0.312622,530
67275647,10013,0.945801,-0.052612,0.309814,517
67285647,10000,0.941650,-0.042969,0.297729,522
67295623,9976,0.936646,-0.045166,0.280396,520
67305656,10033,0.944580,-0.088745,0.264282,517
67315623,9967,0.952271,-0.089233,0.264893,518
67325633,10010,0.968018,-0.078613,0.274048,520
67335631,9998,0.984741,-0.073975,0.285767,522
67345619,9988,1.000244,-0.078247,0.296265,525
67355647,10028,1.013794,-0.081177,0.300659,529
67365625,9978,1.040649,-0.078491,0.303345,532
67375641,10016,1.042969,-0.078247,0.301270,534
67385624,9983,1.043579,-0.075073,0.302734,539
67395634,10010,1.049805,-0.068970,0.308594,545
67405629,9995,1.040039,-0.070801,0.317139,543
67415648,10019,1.021851,-0.077637,0.333740,544
67425642,9994,1.012085,-0.069580,0.333496,547
67435620,9978,1.006470,-0.069214,0.328979,545
67445645,10025,1.006958,-0.074585,0.325806,551
67455634,9989,1.004883,-0.074585,0.321045,544
67465624,9990,1.016113,-0.050781,0.312622,541
67475631,10007,1.041504,-0.032715,0.309814,541
67485625,9994,1.076050,-0.017822,0.319702,539
67495632,10007,1.105469,-0.004761,0.331299,536
67505636,10004,1.127197,0.005249,0.337280,533
67515639,10003,1.146729,0.013428,0.336914,530
67525620,9981,1.182129,0.007446,0.340698,533
67535629,10009,1.182373,0.005615,0.347534,528
67545649,10020,1.162720,0.006348,0.348389,527
67555630,9981,1.120972,0.007324,0.340454,526
67565643,10013,1.066406,0.002441,0.324951,528
67575631,9988,0.940308,0.010010,0.290283,521
67585621,9990,0.873779,0.034546,0.283203,528
67595623,10002,0.814087,0.066650,0.277100,529
67605635,10012,0.773926,0.099976,0.275269,528
67615645,10010,0.754272,0.132446,0.271729,520
67625634,9989,0.800659,0.189087,0.267578,517
67635619,9985,0.851929,0.212402,0.266235,526
67645633,10014,0.904541,0.222534,0.266235,522
67655633,10000,0.954956,0.221802,0.262573,521
67665641,10008,0.999023,0.214478,0.249268,521
67675631,9990,1.030151,0.208252,0.220337,522
67685647,10016,1.073730,0.215942,0.212646,522
67695633,9986,1.086670,0.224121,0.208496,522
67705644,10011,1.099365,0.237915,0.213745,524
67715632,9988,1.131226,0.253540,0.227661,527
67725636,10004,1.174683,0.264038,0.237671,535
67735637,10001,1.246216,0.260498,0.246094,543
67745649,10012,1.273315,0.267212,0.247559,552
67755633,9984,1.272827,0.269531,0.241821,556
67765629,9996,1.248657,0.252441,0.240234,568
67775626,9997,1.208740,0.232300,0.227539,577
67785626,10000,1.124023,0.219727,0.157837,574
67795643,10017,1.100464,0.192505,0.161255,575
67805623,9980,1.036255,0.169922,0.150757,573
67815643,10020,1.040039,0.156982,0.175659,555
67825621,9978,1.039063,0.131958,0.195068,547
67835630,10009,1.027710,0.070435,0.213257,530
67845645,10015,1.053467,0.041626,0.209351,516
67855655,10010,1.073608,-0.098999,0.245483,509
67865633,9978,0.932007,-0.078247,0.165527,502
67875622,9989,1.023193,0.158936,0.165405,500
67885645,10023,1.013428,0.331299,0.173096,497
67895627,9982,0.958618,0.150391,0.147949,502
67905620,9993,0.985840,0.135010,0.179687,501
67915620,10000,0.986694,0.160400,0.185425,498
67925636,10016,0.975586,0.148071,0.182495,501
67935643,10007,0.969360,0.114136,0.162354,505
67945620,9977,0.972778,0.065063,0.129272,507
67955646,10026,0.966431,0.035156,0.127441,504
67965644,9998,0.958862,0.009399,0.138794,513
67975631,9987,0.996338,-0.020142,0.157349,520
67985635,10004,1.040649,-0.056274,0.163940,521
67995630,9995,1.021851,0.056152,0.149780,534
68005654,10024,1.035034,0.093628,0.146362,536
68015645,9991,1.040771,0.077759,0.149536,541
68025640,9995,1.031250,0.049072,0.156006,548
68035641,10001,0.998413,0.038574,0.163208,542
68045630,9989,0.953857,0.022461,0.158203,545
68055634,10004,0.887451,-0.012817,0.133911,536
68065639,10005,0.863037,-0.031372,0.125732,540
68075634,9995,0.859009,-0.049927,0.118286,537
68085623,9989,0.878784,-0.063599,0.115967,535
68095622,9999,0.907959,-0.072632,0.121216,530
68105648,10026,0.929443,-0.086914,0.125732,530
68115642,9994,0.929932,-0.074707,0.125366,526
68125645,10003,0.889893,-0.095581,0.125122,528
68135637,9992,0.936890,-0.136597,0.110718,528
68145641,10004,0.926147,-0.134399,0.108398,528
68155620,9979,0.894653,-0.134644,0.115845,527
68165622,10002,0.920898,-0.118774,0.122925,526
68175636,10014,0.927368,-0.121338,0.127441,523
68185645,10009,0.928467,-0.133057,0.129150,530
68195634,9989,0.939697,-0.141602,0.129028,527
68205647,10013,0.952515,-0.145752,0.136719,534
68215626,9979,0.993286,-0.156494,0.138184,536
68225633,10007,1.016846,-0.175171,0.139038,533
68235625,9992,1.040161,-0.189819,0.140015,533
68245632,10007,1.066528,-0.194092,0.140503,529
68255624,9992,1.095215,-0.191895,0.139893,526
68265620,9996,1.140747,-0.200684,0.148682,519
68275633,10013,1.157104,-0.197266,0.160034,513
68285635,10002,1.169556,-0.179321,0.171875,515
68295632,9997,1.183350,-0.157104,0.181641,514
68305643,10011,1.194946,-0.141113,0.189575,510
68315619,9976,1.192505,-0.114502,0.194580,514
68325626,10007,1.178101,-0.116089,0.190430,512
68335629,10003,1.161743,-0.130737,0.181152,507
68345625,9996,1.156128,-0.151611,0.164917,513
68356546,10921,1.146362,-0.170898,0.147705,514
68365646,9100,1.121216,-0.198242,0.125854,515
68375648,10002,1.051147,-0.196655,0.122803,519
68385631,9983,1.030518,-0.186646,0.124390,519
68395645,10014,1.021851,-0.169067,0.127930,521
68405639,9994,1.040771,-0.152832,0.123413,525
68415643,10004,1.018799,-0.155640,0.130615,523
68425626,9983,1.048950,-0.122070,0.144043,530
68435628,10002,1.064453,-0.139038,0.146118,525
68445631,10003,1.064819,-0.168823,0.141113,527
68455630,9999,1.069946,-0.191406,0.137329,534
68465623,9993,1.067017,-0.210571,0.134155,530
68475623,10000,1.050171,-0.223267,0.129028,535
68485628,10005,1.042969,-0.226440,0.129517,530
68495647,10019,1.034424,-0.230225,0.133423,535
68505628,9981,1.027100,-0.224487,0.135620,553
68515632,10004,1.030029,-0.214478,0.143555,535
68525637,10005,1.031494,-0.181519,0.145874,536
68535629,9992,1.050049,-0.179565,0.150269,540
68545643,10014,1.066284,-0.184692,0.159546,542
68555634,9991,1.089233,-0.185181,0.168091,540
68565632,9998,1.102539,-0.187866,0.174194,545
68575630,9998,1.119141,-0.193848,0.179932,539
68585619,9989,1.120728,-0.200073,0.187622,544
68595620,10001,1.108521,-0.200073,0.193481,542
68605633,10013,1.092163,-0.185913,0.203613,540
68615630,9997,1.070190,-0.170288,0.219116,537
68625642,10012,1.052246,-0.158936,0.236084,531
68635636,9994,1.003418,-0.170288,0.272705,523
68645619,9983,0.989990,-0.156494,0.282227,516
68655644,10025,0.981934,-0.138916,0.291870,504
68665646,10002,0.979126,-0.116211,0.305664,499
68675625,9979,0.971802,-0.093872,0.317017,497
68685624,9999,0.968262,-0.067871,0.333496,495
68695642,10018,0.974487,-0.068604,0.344360,494
68705635,9993,0.982300,-0.079590,0.350098,494
68715629,9994,0.986572,-0.093994,0.346802,494
68725619,9990,0.981567,-0.114258,0.342285,495
68735624,10005,0.983887,-0.126221,0.335815,499
68745623,9999,1.024414,-0.117310,0.343140,503
68755631,10008,1.037598,-0.115845,0.358276,511
68765620,9989,1.044067,-0.101929,0.367798,520
68775648,10028,1.038574,-0.091553,0.385742,525
68785638,9990,1.027954,-0.084839,0.398315,534
68795620,9982,0.998413,-0.074829,0.404297,537
68805631,10011,0.979980,-0.063477,0.408325,540
68815638,10007,0.959839,-0.056152,0.416626,542
68825646,10008,0.940552,-0.044678,0.421875,540
68835631,9985,0.936157,-0.027100,0.421509,539
68845637,10006,0.927856,0.008179,0.417236,534
68855622,9985,0.926270,0.016113,0.421265,529
68865619,9997,0.925293,0.031372,0.441162,534
68875643,10024,0.894531,0.040527,0.467285,526
68885645,10002,0.932983,0.095703,0.489990,530
68895628,9983,0.960083,0.111572,0.508911,522
68905644,10016,0.889771,0.027466,0.524902,533
68915634,9990,0.954956,0.092773,0.554810,533
68925644,10010,1.029785,0.166382,0.578979,537
68935629,9985,1.041138,0.144043,0.561035,540
68945648,10019,1.051147,0.076660,0.523560,546
68955638,9990,1.123169,0.030273,0.466675,544
68965621,9983,1.157104,0.065430,0.444580,554
68975619,9998,1.155518,0.077271,0.422852,568
68985622,10003,1.130005,0.064941,0.385376,571
68995645,10023,1.126465,0.056519,0.353394,590
69005636,9991,1.086060,0.260742,0.302979,599
69015648,10012,1.015015,0.091675,0.345215,598
69025639,9991,1.008301,-0.005737,0.312256,608
69035633,9994,0.904541,0.275513,0.259155,613
69045626,9993,0.982300,0.211182,0.314819,617
69055643,10017,0.979980,0.142090,0.246948,615
69065633,9990,1.000244,-0.035522,0.270996,617
69075645,10012,1.086182,-0.536377,0.378662,621
69085627,9982,1.102417,-0.778320,0.267944,629
69095636,10009,1.098755,-0.196533,0.189087,632
69105621,9985,1.155273,-0.007813,0.205688,624
69115646,10025,1.126587,-0.091431,0.167480,616
69125642,9996,1.123779,-0.113037,0.183472,603
69135628,9986,1.135254,-0.070679,0.184082,591
69145634,10006,1.123901,-0.014648,0.174072,567
69155621,9987,1.105835,-0.014160,0.151245,556
69165658,10037,1.093750,-0.129395,0.100098,541
69175631,9973,1.090088,-0.161011,0.077759,529
69185625,9994,1.074219,-0.162842,0.069092,517
69195621,9996,1.067505,-0.146118,0.073730,511
69205651,10030,1.067993,-0.120728,0.086060,510
69215643,9992,1.065674,-0.119507,0.105591,506
69225639,9996,1.075439,-0.135620,0.093994,507
69235627,9988,1.083130,-0.155518,0.073608,501
69245629,10002,1.082764,-0.174805,0.048584,507
69255648,10019,1.084106,-0.187622,0.035889,516
69265631,9983,1.075195,-0.183228,0.032593,515
69275655,10024,1.032837,-0.135132,0.054321,522
69285640,9985,1.011597,-0.109375,0.074341,535
69295641,10001,0.993896,-0.089600,0.088135,542
69305638,9997,0.982788,-0.075195,0.092041,543
69315635,9997,0.974487,-0.071655,0.087402,543
69325629,9994,0.968018,-0.074951,0.057495,549
69335622,9993,0.978760,-0.079956,0.039307,539
69345625,10003,0.979980,-0.077881,0.027710,540
69357109,11484,0.963013,-0.060059,0.032349,524
69365628,8519,0.942749,-0.027954,0.050415,518
