t_us,dt_us,ax,ay,az,ppg
10027716,10021,0.265625,-0.985107,-0.007202,506
10037703,9987,0.266357,-0.986450,-0.008179,508
10047700,9997,0.266357,-0.986572,-0.009766,505
10057720,10020,0.264404,-0.986328,-0.010498,499
10067715,9995,0.264282,-0.987061,-0.011353,495
10077697,9982,0.263672,-0.986572,-0.010254,496
10087705,10008,0.262573,-0.987915,-0.011230,489
10097699,9994,0.262085,-0.988159,-0.010864,488
10107716,10017,0.260010,-0.988403,-0.009644,486
10117697,9981,0.261719,-0.987793,-0.010254,482
10127740,10043,0.261353,-0.987793,-0.009521,480
10137699,9959,0.262573,-0.988403,-0.009888,475
10147719,10020,0.262695,-0.987793,-0.009155,470
10157717,9998,0.261719,-0.984375,-0.008545,474
10167698,9981,0.262695,-0.984863,-0.007690,472
10177723,10025,0.264282,-0.984619,-0.006836,467
10187726,10003,0.266724,-0.985229,-0.008179,470
10197714,9988,0.266724,-0.985229,-0.006958,467
10207713,9999,0.268677,-0.987671,-0.007324,477
10217704,9991,0.270264,-0.994385,-0.007690,475
10227724,10020,0.270142,-0.995117,-0.008179,490
10237703,9979,0.269043,-0.994385,-0.007813,505
10247710,10007,0.267822,-0.992432,-0.007324,517
10257718,10008,0.265137,-0.990112,-0.007690,535
10267712,9994,0.263306,-0.984985,-0.008423,553
10277698,9986,0.260620,-0.981934,-0.008911,574
10287708,10010,0.260010,-0.981934,-0.007568,589
10297695,9987,0.259521,-0.981445,-0.006958,612
10307719,10024,0.259399,-0.980347,-0.007080,620
10317722,10003,0.259399,-0.980103,-0.006104,631
10327718,9996,0.259521,-0.981812,-0.005493,640
10337714,9996,0.260010,-0.981934,-0.005615,633
10347701,9987,0.260986,-0.982666,-0.004395,635
10357714,10013,0.260864,-0.982788,-0.004150,628
10367712,9998,0.262695,-0.984863,-0.004395,617
10377698,9986,0.263550,-0.986694,-0.002563,602
10387722,10024,0.266235,-0.987183,-0.002930,586
10397721,9999,0.266357,-0.986938,-0.003418,562
10407722,10001,0.267090,-0.985962,-0.003906,548
10417721,9999,0.267334,-0.987427,-0.005859,528
10427719,9998,0.266602,-0.985718,-0.005005,515
10437720,10001,0.265991,-0.985229,-0.009033,495
10447718,9998,0.264526,-0.984985,-0.010132,488
10457715,9997,0.261597,-0.984985,-0.010376,467
10467715,10000,0.259155,-0.985962,-0.008667,458
10477712,9997,0.258423,-0.987427,-0.008179,455
10487701,9989,0.258667,-0.989136,-0.006592,449
10497698,9997,0.258179,-0.989746,-0.005981,447
10507714,10016,0.258545,-0.990845,-0.005737,448
10517700,9986,0.259888,-0.990234,-0.005737,453
10527710,10010,0.260986,-0.990234,-0.006714,455
10539183,11473,0.262451,-0.986572,-0.007690,463
10551951,12768,0.262573,-0.985718,-0.006592,472
10557899,5948,0.263306,-0.984375,-0.006714,475
10567695,9796,0.264404,-0.982056,-0.006958,482
10577695,10000,0.264038,-0.982544,-0.007568,483
10587696,10001,0.265259,-0.983032,-0.007080,489
10597710,10014,0.265747,-0.982300,-0.007446,501
10607703,9993,0.265137,-0.983398,-0.007446,499
10617716,10013,0.265503,-0.984253,-0.007813,505
10627704,9988,0.264404,-0.984253,-0.006226,507
10637702,9998,0.263184,-0.984985,-0.006592,501
10647706,10004,0.262695,-0.984619,-0.005493,504
10657716,10010,0.261475,-0.984863,-0.004883,503
10667733,10017,0.261963,-0.986328,-0.005371,499
10677716,9983,0.260498,-0.986206,-0.005127,497
10687719,10003,0.260132,-0.986328,-0.007446,492
10697713,9994,0.259888,-0.986694,-0.007568,489
10707717,10004,0.258911,-0.986816,-0.009766,479
10717700,9983,0.261108,-0.988403,-0.010132,480
10727703,10003,0.261841,-0.988037,-0.010620,472
10737734,10031,0.261597,-0.988770,-0.011108,470
10747720,9986,0.260376,-0.988281,-0.011963,466
10757722,10002,0.260132,-0.989014,-0.011353,466
10767718,9996,0.261475,-0.990723,-0.008423,462
10777709,9991,0.261353,-0.990356,-0.006226,461
10787698,9989,0.261475,-0.989136,-0.004639,463
10797711,10013,0.262939,-0.988159,-0.005493,463
10807699,9988,0.262695,-0.985229,-0.006226,465
10817710,10011,0.262939,-0.984131,-0.008789,470
10827713,10003,0.261353,-0.982422,-0.009033,476
10837711,9998,0.260986,-0.982910,-0.008301,488
10847711,10000,0.260376,-0.982910,-0.007690,500
10857706,9995,0.260254,-0.983398,-0.008301,519
10867700,9994,0.260498,-0.985474,-0.008911,540
10877722,10022,0.259521,-0.986572,-0.011108,553
10887720,9998,0.260132,-0.987671,-0.012207,576
10897700,9980,0.259766,-0.987671,-0.011963,596
10907697,9997,0.261719,-0.986694,-0.010864,623
10917708,10011,0.261230,-0.985352,-0.009399,628
10927701,9993,0.261841,-0.986084,-0.009277,635
10937706,10005,0.262695,-0.984619,-0.009277,636
10947715,10009,0.262329,-0.983887,-0.008545,637
10957704,9989,0.261841,-0.983643,-0.007324,630
10967706,10002,0.263306,-0.984741,-0.008057,618
10977722,10016,0.263062,-0.984863,-0.009399,604
10987700,9978,0.263672,-0.987915,-0.011597,585
10997717,10017,0.263794,-0.989014,-0.013184,570
11007698,9981,0.263550,-0.988525,-0.012695,552
11017705,10007,0.262573,-0.989380,-0.011963,534
11027707,10002,0.262817,-0.989014,-0.010132,515
11037723,10016,0.261841,-0.987915,-0.010864,502
11047741,10018,0.259888,-0.984619,-0.007690,488
11057717,9976,0.259277,-0.984619,-0.006226,474
11067710,9993,0.259033,-0.985352,-0.007324,467
11077720,10010,0.258179,-0.985474,-0.006592,453
11087697,9977,0.258057,-0.987305,-0.005737,453
11097711,10014,0.258057,-0.988525,-0.005981,450
11107724,10013,0.256470,-0.989014,-0.006470,449
11117716,9992,0.255737,-0.989380,-0.006836,453
11127711,9995,0.255249,-0.989380,-0.006958,456
11137716,10005,0.254517,-0.989014,-0.007935,455
11147705,9989,0.254272,-0.988403,-0.008789,466
11157705,10000,0.255859,-0.988037,-0.008911,474
11167704,9999,0.255493,-0.987793,-0.008057,480
11177715,10011,0.255981,-0.987549,-0.009766,486
11187721,10006,0.257813,-0.987061,-0.009155,486
11197709,9988,0.258057,-0.987793,-0.009766,498
11207705,9996,0.260254,-0.988281,-0.010010,500
11217717,10012,0.261597,-0.987183,-0.009277,501
11227696,9979,0.260986,-0.988647,-0.010254,501
11237708,10012,0.261475,-0.988037,-0.009521,506
11247706,9998,0.260864,-0.988159,-0.009277,499
11257716,10010,0.259644,-0.988159,-0.007324,501
11267723,10007,0.261719,-0.986572,-0.005493,502
11277719,9996,0.260132,-0.986572,-0.006470,498
11287697,9978,0.259399,-0.987061,-0.006592,495
11297701,10004,0.260498,-0.986938,-0.007324,492
11307700,9999,0.259155,-0.986816,-0.009155,489
11317702,10002,0.259155,-0.986572,-0.009033,485
11327714,10012,0.260376,-0.985229,-0.009277,479
11337747,10033,0.259888,-0.985840,-0.008667,477
11347729,9982,0.260254,-0.985840,-0.008911,465
11357724,9995,0.260132,-0.986328,-0.009521,467
11367704,9980,0.258179,-0.985474,-0.008911,469
11377724,10020,0.259155,-0.986328,-0.004761,467
11387699,9975,0.259521,-0.986694,-0.002563,467
11397723,10024,0.259521,-0.987183,-0.000244,464
11407705,9982,0.259888,-0.986450,-0.001099,466
11417699,9994,0.260376,-0.987915,-0.001831,466
11427703,10004,0.258545,-0.988647,-0.004761,473
11437703,10000,0.256836,-0.988403,-0.004883,477
11447722,10019,0.256836,-0.989624,-0.004150,487
11457715,9993,0.256226,-0.988403,-0.005493,503
11467699,9984,0.256104,-0.989258,-0.005005,529
11477698,9999,0.254639,-0.988647,-0.005493,543
11487709,10011,0.254761,-0.987915,-0.005737,567
11497709,10000,0.256836,-0.987915,-0.005981,591
11507715,10006,0.257202,-0.987427,-0.004395,607
11517696,9981,0.257690,-0.987427,-0.003296,627
11527696,10000,0.259521,-0.987915,-0.002319,636
11537720,10024,0.260620,-0.986694,-0.000977,648
11547704,9984,0.262085,-0.984863,-0.000366,648
11557698,9994,0.261963,-0.984009,-0.000610,642
11567714,10016,0.263184,-0.984741,-0.000244,640
11577695,9981,0.262329,-0.984497,0.000000,626
11587711,10016,0.263184,-0.984741,-0.000122,609
11597707,9996,0.262939,-0.985352,-0.001221,597
11607707,10000,0.261963,-0.985352,-0.002075,574
11617701,9994,0.261597,-0.985596,-0.002563,557
11627721,10020,0.261597,-0.988037,-0.002197,535
11637723,10002,0.261841,-0.985718,-0.003174,519
11647746,10023,0.259644,-0.984985,-0.004395,502
11657724,9978,0.259766,-0.985962,-0.003662,479
11667707,9983,0.257935,-0.985229,-0.003296,475
11677707,10000,0.258545,-0.986938,-0.003784,462
11687722,10015,0.257446,-0.987549,-0.002075,450
11697706,9984,0.256958,-0.987671,-0.002319,446
11707695,9989,0.256470,-0.987915,-0.000732,447
11717725,10030,0.256470,-0.987915,-0.000610,450
11727703,9978,0.256226,-0.988281,-0.000488,450
11737700,9997,0.256592,-0.987549,0.000000,451
11747699,9999,0.257568,-0.986938,-0.000488,461
11757703,10004,0.258301,-0.986938,0.000122,460
11767712,10009,0.258423,-0.986206,0.000732,477
11777711,9999,0.259277,-0.986084,0.000977,478
11787722,10011,0.261108,-0.985352,0.000854,490
11797700,9978,0.260742,-0.985718,0.000244,489
11807713,10013,0.262451,-0.986694,0.000610,501
11817715,10002,0.263672,-0.987915,0.000732,504
11827708,9993,0.262939,-0.988892,0.000366,506
11837715,10007,0.263306,-0.988159,0.000122,508
11847697,9982,0.263306,-0.987549,-0.000244,504
11857704,10007,0.262573,-0.985840,-0.001587,506
11867710,10006,0.261353,-0.986572,-0.000977,504
11877701,9991,0.262207,-0.985840,-0.001343,502
11887718,10017,0.260986,-0.984253,-0.000732,498
11897725,10007,0.262207,-0.984497,-0.000977,495
11907712,9987,0.261353,-0.984741,-0.000122,491
11917712,10000,0.259888,-0.985229,-0.000366,486
11927706,9994,0.260620,-0.986816,-0.002075,480
11937713,10007,0.260376,-0.985962,-0.003296,480
11947697,9984,0.260132,-0.985474,-0.002930,477
11957732,10035,0.259521,-0.984375,-0.002441,472
11967706,9974,0.259644,-0.983398,-0.001953,466
11977700,9994,0.258545,-0.984009,-0.001587,469
11987706,10006,0.257813,-0.985718,-0.001831,468
11997700,9994,0.258057,-0.987671,-0.000366,469
12007713,10013,0.259766,-0.988281,-0.000122,465
12017717,10004,0.260254,-0.988770,0.000610,466
12027721,10004,0.261230,-0.988525,0.001343,468
12037707,9986,0.260254,-0.988892,0.000366,472
12047718,10011,0.258179,-0.989868,0.000122,475
12057699,9981,0.258423,-0.989624,0.000122,488
12067712,10013,0.257813,-0.989624,0.000732,498
12077697,9985,0.257202,-0.989868,0.001099,516
12087707,10010,0.256348,-0.989380,0.000732,532
12097709,10002,0.256104,-0.989258,0.000244,555
12107702,9993,0.256470,-0.988892,-0.001221,571
12117706,10004,0.256714,-0.989014,-0.000244,599
12127713,10007,0.257202,-0.986694,0.001099,614
12137716,10003,0.258423,-0.985718,0.001343,633
12147723,10007,0.261230,-0.987183,0.002197,644
12157705,9982,0.262085,-0.987549,0.003418,652
12167705,10000,0.263062,-0.986694,0.003540,649
12177718,10013,0.263428,-0.984497,0.002075,648
12187706,9988,0.263306,-0.984497,0.002686,642
12197721,10015,0.265259,-0.985474,0.001953,623
12207720,9999,0.265991,-0.984619,0.002075,612
12217714,9994,0.265503,-0.984741,0.000977,589
12227695,9981,0.264893,-0.985107,0.000610,574
12237724,10029,0.265381,-0.984375,-0.000122,553
12247701,9977,0.264038,-0.985107,0.000366,537
12257713,10012,0.263428,-0.984985,0.000244,519
12267715,10002,0.263184,-0.984497,0.000977,499
12277706,9991,0.263306,-0.984375,0.002197,486
12287699,9993,0.262451,-0.984497,0.002441,471
12297723,10024,0.260742,-0.984741,0.003052,464
12307717,9994,0.260010,-0.984985,0.002197,459
12317707,9990,0.260132,-0.984741,0.002441,452
12327715,10008,0.259521,-0.985352,0.003540,450
12337714,9999,0.259766,-0.985718,0.003052,452
12347701,9987,0.260864,-0.986450,0.003174,455
12357712,10011,0.261597,-0.986938,0.002930,460
12367705,9993,0.263428,-0.987549,0.002686,467
12377718,10013,0.265137,-0.986572,0.002686,474
12387707,9989,0.264893,-0.987549,0.003052,480
12397718,10011,0.266846,-0.988159,0.004028,486
12407712,9994,0.267334,-0.987671,0.003906,490
12417711,9999,0.267822,-0.985229,0.004517,499
12427720,10009,0.269165,-0.983398,0.003906,501
12437702,9982,0.268921,-0.981934,0.004517,507
12447699,9997,0.268677,-0.983521,0.004883,504
12457710,10011,0.270264,-0.984497,0.005737,512
12467715,10005,0.270874,-0.984131,0.005859,520
12477710,9995,0.270630,-0.982056,0.006470,513
12487699,9989,0.271484,-0.981079,0.006592,508
12497746,10047,0.271240,-0.980835,0.005981,507
12507724,9978,0.270508,-0.981812,0.004517,502
12517725,10001,0.269897,-0.981567,0.006592,497
12527722,9997,0.269897,-0.981812,0.006104,495
12537704,9982,0.268677,-0.981934,0.006226,489
12547719,10015,0.266479,-0.984009,0.005615,481
12557697,9978,0.265259,-0.984985,0.006226,480
12567715,10018,0.265259,-0.985352,0.005859,480
12577715,10000,0.265991,-0.985718,0.006714,475
12587712,9997,0.264771,-0.984985,0.008667,469
12597703,9991,0.265137,-0.983276,0.008179,470
12607721,10018,0.264526,-0.982910,0.007813,467
12617716,9995,0.263672,-0.981934,0.008301,467
12627712,9996,0.264893,-0.982422,0.008667,466
12637708,9996,0.265381,-0.983643,0.010498,465
12647708,10000,0.269409,-0.985107,0.011230,465
12657702,9994,0.270630,-0.985107,0.011597,458
12667715,10013,0.270142,-0.985596,0.008667,469
12677714,9999,0.269897,-0.987427,0.007202,476
12687720,10006,0.269165,-0.989136,0.008545,479
12697700,9980,0.267578,-0.990112,0.008423,493
12707700,10000,0.266235,-0.988647,0.008545,512
12717707,10007,0.265259,-0.986938,0.007446,533
12727716,10009,0.264526,-0.985474,0.006104,555
12737705,9989,0.265747,-0.984131,0.005737,579
12747723,10018,0.264771,-0.983643,0.005127,600
12757722,9999,0.267822,-0.982788,0.005615,620
12767750,10028,0.267212,-0.983276,0.006104,635
12777713,9963,0.269531,-0.984253,0.006958,641
12787711,9998,0.271362,-0.984009,0.007935,650
12797717,10006,0.270630,-0.983887,0.007568,654
12807709,9992,0.272949,-0.982300,0.007568,650
12817697,9988,0.272583,-0.981323,0.007202,641
12827702,10005,0.275757,-0.981079,0.006226,629
12837723,10021,0.274780,-0.981079,0.005249,607
12847724,10001,0.275146,-0.981323,0.005127,594
12857720,9996,0.275391,-0.980103,0.003174,574
12867700,9980,0.275635,-0.980347,0.003418,554
12877698,9998,0.275513,-0.980469,0.003784,535
12887695,9997,0.275024,-0.980835,0.003540,515
12897695,10000,0.274048,-0.981201,0.004272,500
12907708,10013,0.271851,-0.981934,0.006226,479
12917711,10003,0.270874,-0.983521,0.008545,472
12927720,10009,0.268799,-0.984253,0.010864,461
12937695,9975,0.270264,-0.983521,0.010254,452
12947703,10008,0.269165,-0.984741,0.010742,450
12957719,10016,0.267822,-0.985107,0.010254,448
12967706,9987,0.267334,-0.984741,0.007080,443
12977711,10005,0.268311,-0.983643,0.006348,453
12987698,9987,0.267334,-0.982178,0.007324,454
12997701,10003,0.266968,-0.983521,0.006836,463
13007705,10004,0.267090,-0.983887,0.007446,463
13017696,9991,0.266602,-0.984009,0.007568,477
13027698,10002,0.268066,-0.986084,0.009644,484
13037723,10025,0.268311,-0.986816,0.009277,494
13047753,10030,0.269043,-0.987427,0.010132,495
13057726,9973,0.269653,-0.987427,0.010742,504
13067709,9983,0.270386,-0.985596,0.011841,503
13077722,10013,0.271240,-0.982788,0.010986,512
13087712,9990,0.271729,-0.981323,0.010620,513
13097697,9985,0.271851,-0.981201,0.010254,513
13107707,10010,0.272583,-0.981079,0.007568,512
13117713,10006,0.273560,-0.979858,0.007568,510
13127708,9995,0.273926,-0.980347,0.006104,506
13137721,10013,0.274170,-0.982300,0.005371,500
13147722,10001,0.274048,-0.984131,0.005737,496
13157717,9995,0.273560,-0.982300,0.004761,487
13167706,9989,0.273071,-0.981934,0.005371,488
13177714,10008,0.272583,-0.983154,0.004517,482
13187713,9999,0.272461,-0.983032,0.005005,478
13197724,10011,0.271851,-0.980957,0.005249,480
13207719,9995,0.273071,-0.982056,0.006714,477
13217714,9995,0.273926,-0.981323,0.007080,474
13227707,9993,0.271851,-0.980469,0.006348,471
13237695,9988,0.270264,-0.980103,0.006714,468
13247706,10011,0.271729,-0.981323,0.007446,468
13257704,9998,0.272095,-0.981934,0.008423,467
13267695,9991,0.273804,-0.984009,0.009521,465
13277734,10039,0.273926,-0.983398,0.008911,467
13287717,9983,0.272095,-0.982788,0.007690,469
13297715,9998,0.271118,-0.985718,0.005859,475
13307713,9998,0.267944,-0.986328,0.005249,481
13317697,9984,0.267212,-0.987793,0.006226,488
13327741,10044,0.266968,-0.987671,0.005859,507
13337713,9972,0.265137,-0.987427,0.006104,526
13347699,9986,0.264648,-0.987061,0.005127,544
13357724,10025,0.265991,-0.985840,0.004883,569
13367712,9988,0.267212,-0.985229,0.005005,589
13377708,9996,0.267700,-0.984741,0.005493,613
13387705,9997,0.268799,-0.983765,0.005859,624
13397722,10017,0.270264,-0.983154,0.007690,635
13407709,9987,0.270996,-0.982300,0.007446,646
13417708,9999,0.271973,-0.982056,0.008057,643
13427719,10011,0.272461,-0.979980,0.008545,644
13437723,10004,0.272583,-0.979126,0.010010,633
13447703,9980,0.271729,-0.978271,0.009399,622
13457712,10009,0.272583,-0.979980,0.010132,607
13467703,9991,0.272217,-0.982056,0.006714,586
13477699,9996,0.272095,-0.982666,0.005737,567
13487719,10020,0.271240,-0.984253,0.005005,552
13497705,9986,0.270630,-0.983398,0.004517,532
13507712,10007,0.270142,-0.984009,0.005127,504
13517722,10010,0.268311,-0.984497,0.004272,496
13527695,9973,0.266235,-0.984497,0.002930,474
13537698,10003,0.265869,-0.984497,0.004150,464
13547717,10019,0.264893,-0.984619,0.004639,452
13557696,9979,0.265625,-0.985474,0.004883,452
13567721,10025,0.265381,-0.986694,0.004395,443
13577720,9999,0.265991,-0.988037,0.004639,446
13587696,9976,0.265137,-0.987183,0.003418,445
13597711,10015,0.266113,-0.988281,0.003296,448
13607695,9984,0.266602,-0.987549,0.005005,450
13617723,10028,0.266724,-0.986206,0.006714,457
13627712,9989,0.266724,-0.985107,0.004639,464
13637707,9995,0.268188,-0.984863,0.004028,465
13647715,10008,0.267944,-0.983765,0.005249,474
13657701,9986,0.268677,-0.983643,0.005615,483
13667709,10008,0.268555,-0.983887,0.006348,488
13677719,10010,0.268311,-0.982788,0.006104,499
13687708,9989,0.268311,-0.984619,0.007080,494
13697705,9997,0.267700,-0.984619,0.006836,496
13707722,10017,0.267334,-0.983765,0.006958,498
13717722,10000,0.266602,-0.983032,0.006104,494
13727703,9981,0.266724,-0.983276,0.006714,498
13737723,10020,0.266846,-0.984009,0.005493,504
13747701,9978,0.267700,-0.983643,0.003296,490
13757698,9997,0.267090,-0.983521,0.002197,488
13767696,9998,0.266724,-0.983276,0.002686,485
13777701,10005,0.266479,-0.983398,0.001709,482
13787720,10019,0.267090,-0.984375,0.001343,471
13797703,9983,0.266724,-0.985596,0.001587,470
13807706,10003,0.266479,-0.986450,0.002197,470
13817701,9995,0.266968,-0.987305,0.002441,462
13827697,9996,0.266724,-0.987793,0.004272,464
13837701,10004,0.266602,-0.986694,0.005493,463
13847717,10016,0.267700,-0.985962,0.005371,462
13857695,9978,0.267456,-0.984131,0.004639,461
13867716,10021,0.267822,-0.983276,0.005981,460
13877705,9989,0.269287,-0.982910,0.006958,455
13887720,10015,0.270142,-0.983154,0.006714,460
13897724,10004,0.269653,-0.982788,0.006226,457
13907710,9986,0.267212,-0.983887,0.003174,463
13917712,10002,0.265991,-0.985962,0.003418,473
13927717,10005,0.266357,-0.988281,0.003296,478
13937748,10031,0.263916,-0.989624,0.005737,499
13947735,9987,0.264038,-0.988892,0.005005,509
13957699,9964,0.262207,-0.989746,0.004761,533
13967712,10013,0.262329,-0.985962,0.004395,555
13977722,10010,0.261230,-0.983887,0.004028,576
13987716,9994,0.263428,-0.982910,0.002808,597
13997715,9999,0.264282,-0.981689,0.002441,616
14007717,10002,0.266357,-0.981201,0.002563,627
14017703,9986,0.267334,-0.981445,0.001953,635
14027721,10018,0.268555,-0.981934,0.001831,641
14037695,9974,0.269409,-0.982056,0.002075,640
14047708,10013,0.268799,-0.981934,0.003418,636
14057698,9990,0.268921,-0.983032,0.003906,625
14067714,10016,0.270142,-0.983521,0.005249,611
14077706,9992,0.268799,-0.984619,0.005493,598
14087707,10001,0.267456,-0.985840,0.004883,577
14097699,9992,0.267944,-0.985474,0.004639,558
14107714,10015,0.268311,-0.986450,0.003418,537
14117702,9988,0.268311,-0.986816,0.003174,524
14127701,9999,0.266724,-0.985840,0.001953,504
14137719,10018,0.266846,-0.985352,0.001831,484
14147717,9998,0.267944,-0.986084,0.002197,477
14157720,10003,0.266602,-0.986206,0.002686,466
14167697,9977,0.267212,-0.985107,0.002808,458
14177696,9999,0.266968,-0.984131,0.003662,452
14187732,10036,0.267578,-0.982788,0.003784,448
14197700,9968,0.267578,-0.982056,0.005371,446
14207709,10009,0.268311,-0.981812,0.005981,448
14217698,9989,0.265747,-0.979004,0.006958,446
14227703,10005,0.265747,-0.978638,0.007324,457
14237731,10028,0.263184,-0.977783,0.007690,461
14247719,9988,0.260864,-0.980713,0.008667,466
14257725,10006,0.259155,-0.981567,0.007324,474
14267723,9998,0.257690,-0.982544,0.007446,474
14277708,9985,0.256226,-0.984741,0.006714,475
14287718,10010,0.253418,-0.987793,0.006714,482
14297703,9985,0.250977,-0.991821,0.004517,483
14307714,10011,0.250366,-0.993530,0.003540,486
14317706,9992,0.249878,-0.994019,0.002808,484
14327711,10005,0.250732,-0.996338,0.002319,483
14337705,9994,0.251831,-0.994995,0.000854,484
14347719,10014,0.253540,-0.992676,-0.000244,484
14357714,9995,0.256348,-0.989868,-0.001709,475
14367714,10000,0.257690,-0.988647,-0.000854,477
14377709,9995,0.260010,-0.989014,-0.001099,476
14387700,9991,0.262207,-0.986938,-0.001465,474
14397708,10008,0.263794,-0.984863,-0.002075,471
14407716,10008,0.267822,-0.983887,-0.001709,464
14417709,9993,0.269653,-0.985229,-0.001709,468
14427709,10000,0.269897,-0.986938,-0.002686,461
14437719,10010,0.270874,-0.987793,-0.001343,468
14447719,10000,0.273193,-0.988892,-0.001099,467
14457718,9999,0.271973,-0.987793,0.000000,466
14467715,9997,0.271606,-0.988281,0.000000,462
14477737,10022,0.271118,-0.988525,-0.000854,465
14487713,9976,0.269897,-0.984863,-0.001709,465
14497708,9995,0.268188,-0.983154,-0.000732,463
14507722,10014,0.268433,-0.982300,-0.000244,471
14517708,9986,0.266968,-0.982666,-0.001343,474
14527730,10022,0.264893,-0.983643,-0.003418,471
14537695,9965,0.262817,-0.984497,-0.004272,484
14547702,10007,0.261230,-0.986816,-0.003296,491
14557708,10006,0.259277,-0.987915,-0.002197,502
14567716,10008,0.257324,-0.989502,-0.000732,518
14577713,9997,0.255493,-0.988525,-0.000366,534
14587698,9985,0.256104,-0.988647,-0.000122,554
14597702,10004,0.255005,-0.987793,0.000610,577
14607696,9994,0.256104,-0.985107,0.001709,596
14617701,10005,0.256470,-0.985107,0.002197,615
14627706,10005,0.259521,-0.985107,0.004517,631
14637704,9998,0.260376,-0.984619,0.004639,642
14647696,9992,0.261475,-0.986206,0.005615,644
14657700,10004,0.262329,-0.986938,0.005859,648
14667724,10024,0.263428,-0.986084,0.005981,644
14677723,9999,0.263794,-0.983032,0.006592,636
14687696,9973,0.265015,-0.984009,0.006348,602
14697703,10007,0.266113,-0.985107,0.006470,607
14707709,10006,0.265991,-0.983887,0.006470,588
14717712,10003,0.265137,-0.982300,0.005249,570
14727699,9987,0.264771,-0.980591,0.006348,548
14737722,10023,0.263794,-0.981079,0.007080,522
14747702,9980,0.264771,-0.981567,0.007568,512
14757740,10038,0.263184,-0.982056,0.006226,492
14767695,9955,0.263306,-0.983154,0.006104,478
14777705,10010,0.261475,-0.983887,0.005859,459
14787713,10008,0.260376,-0.987183,0.002197,451
14797748,10035,0.260132,-0.989136,0.001099,450
14807715,9967,0.260742,-0.989868,0.000977,440
14817703,9988,0.260254,-0.991211,0.000122,441
14827696,9993,0.260254,-0.991211,0.000610,442
14837715,10019,0.260132,-0.989990,0.001709,446
14847724,10009,0.261108,-0.988037,0.002563,450
14857722,9998,0.261719,-0.987671,0.004761,459
14867704,9982,0.261719,-0.984741,0.005493,467
14877715,10011,0.262695,-0.984497,0.006470,479
14887718,10003,0.263550,-0.984375,0.008911,477
14897705,9987,0.264160,-0.983154,0.009521,488
14907715,10010,0.264771,-0.981934,0.010010,488
14917717,10002,0.264404,-0.984619,0.009399,496
14927714,9997,0.265137,-0.985596,0.009399,500
14937696,9982,0.264771,-0.986450,0.008545,501
14947700,10004,0.265381,-0.985596,0.007813,500
14957719,10019,0.266724,-0.985229,0.006714,503
14967722,10003,0.265625,-0.984985,0.005859,500
14977723,10001,0.264893,-0.984009,0.005981,493
14987723,10000,0.265259,-0.982666,0.005981,494
14997723,10000,0.265503,-0.982666,0.005737,487
15007707,9984,0.264771,-0.982666,0.005127,487
15017707,10000,0.264038,-0.984375,0.007080,484
15027725,10018,0.264160,-0.985107,0.007935,478
15037718,9993,0.263794,-0.985352,0.007813,476
15047719,10001,0.263550,-0.984741,0.007690,472
15057713,9994,0.263428,-0.984497,0.007446,465
15067700,9987,0.262329,-0.986328,0.009155,459
15077732,10032,0.263184,-0.986084,0.010498,455
15087699,9967,0.262939,-0.985107,0.010254,462
15097709,10010,0.262939,-0.984985,0.011597,460
15107713,10004,0.264282,-0.984985,0.012207,459
15117715,10002,0.264282,-0.985229,0.011230,460
15127703,9988,0.265381,-0.986206,0.011841,454
15137695,9992,0.265015,-0.985718,0.012329,460
15147722,10027,0.265991,-0.984863,0.012207,461
15157704,9982,0.264771,-0.984863,0.010254,466
15167699,9995,0.264160,-0.984863,0.008545,474
15177695,9996,0.262085,-0.987305,0.011230,482
15187710,10015,0.261475,-0.986572,0.011108,501
15197702,9992,0.260132,-0.985107,0.010742,519
15207707,10005,0.260864,-0.985962,0.010620,540
15217712,10005,0.258911,-0.986206,0.010254,562
15227722,10010,0.258789,-0.983154,0.007568,579
15237697,9975,0.258911,-0.984009,0.008545,606
15247720,10023,0.259521,-0.984009,0.008789,623
15257710,9990,0.261230,-0.983643,0.008789,639
15267723,10013,0.261963,-0.984497,0.010498,651
15277715,9992,0.262573,-0.984375,0.009644,653
15287718,10003,0.261353,-0.982910,0.008057,651
15297698,9980,0.263306,-0.984131,0.009521,640
15307710,10012,0.263916,-0.984863,0.010132,633
15317713,10003,0.265991,-0.987549,0.010620,618
15327701,9988,0.266357,-0.988403,0.009888,601
15337707,10006,0.266724,-0.987305,0.007935,582
15347701,9994,0.267212,-0.987183,0.007080,561
15357705,10004,0.267578,-0.984131,0.006714,537
15367723,10018,0.267090,-0.984375,0.008179,520
15377710,9987,0.266235,-0.983154,0.008545,504
15387716,10006,0.265625,-0.981445,0.008179,483
15397705,9989,0.266113,-0.984497,0.009766,468
15407709,10004,0.265381,-0.987427,0.010010,463
15417714,10005,0.265015,-0.988525,0.009521,452
15427713,9999,0.264038,-0.989014,0.009521,450
15437695,9982,0.262939,-0.989136,0.009155,445
15447720,10025,0.260742,-0.989258,0.008423,445
15457699,9979,0.260010,-0.988525,0.007813,448
15467724,10025,0.260376,-0.988037,0.010010,450
15477722,9998,0.258423,-0.987183,0.009399,457
15487722,10000,0.260498,-0.985962,0.010620,465
15497711,9989,0.260620,-0.985840,0.011475,470
15507709,9998,0.261353,-0.987915,0.011719,475
15517723,10014,0.262451,-0.986450,0.013794,484
15527700,9977,0.261475,-0.985107,0.013184,485
15537703,10003,0.262451,-0.985596,0.013672,492
15547710,10007,0.263184,-0.984253,0.012817,499
15557717,10007,0.264038,-0.984497,0.012695,503
15567704,9987,0.266479,-0.985596,0.012085,498
15577702,9998,0.265625,-0.986938,0.012573,505
15587737,10035,0.266479,-0.987427,0.011475,501
15597726,9989,0.266846,-0.988037,0.010254,499
15607718,9992,0.266357,-0.987183,0.010620,500
15617709,9991,0.266235,-0.984131,0.010864,498
15627708,9999,0.266724,-0.982300,0.011841,489
15637717,10009,0.267456,-0.983398,0.012451,487
15647701,9984,0.267456,-0.982666,0.012817,488
15657707,10006,0.267578,-0.982666,0.013672,484
15667698,9991,0.266846,-0.984375,0.013428,479
15677713,10015,0.265503,-0.985229,0.014038,471
15687708,9995,0.265747,-0.985596,0.012573,476
15697703,9995,0.265747,-0.986206,0.015503,484
15707705,10002,0.266235,-0.986084,0.014893,465
15717723,10018,0.265747,-0.985840,0.015381,468
15727701,9978,0.263672,-0.981812,0.014526,466
15737714,10013,0.265137,-0.980591,0.013916,464
15747718,10004,0.264771,-0.980957,0.015259,469
15757717,9999,0.266113,-0.982910,0.017334,468
15767722,10005,0.267822,-0.984009,0.019043,468
15777722,10000,0.269043,-0.987061,0.018921,473
15787710,9988,0.271484,-0.986572,0.018555,473
15797720,10010,0.270386,-0.986206,0.018555,480
15807704,9984,0.270386,-0.986450,0.017578,489
15817704,10000,0.269165,-0.985229,0.017090,509
15827696,9992,0.268921,-0.986084,0.016968,527
15837704,10008,0.268921,-0.983276,0.019043,547
15847721,10017,0.268799,-0.981323,0.016724,570
15857722,10001,0.267456,-0.979004,0.017212,593
15867695,9973,0.267700,-0.980713,0.017456,613
15877733,10038,0.268311,-0.981567,0.019043,632
15887703,9970,0.269531,-0.984253,0.020386,649
15897708,10005,0.270386,-0.985352,0.020142,660
15907703,9995,0.270996,-0.985352,0.020020,664
15917737,10034,0.271606,-0.985596,0.018433,662
15927725,9988,0.271851,-0.984253,0.018799,655
15937706,9981,0.272827,-0.984497,0.017822,647
15947722,10016,0.274536,-0.984619,0.017456,630
15957719,9997,0.274658,-0.985352,0.018188,614
15967697,9978,0.273926,-0.982910,0.017944,593
15977697,10000,0.273804,-0.982056,0.017944,568
15987697,10000,0.272949,-0.983032,0.018066,552
15997695,9998,0.275024,-0.984375,0.020264,529
16007716,10021,0.274902,-0.982910,0.020020,510
16017704,9988,0.274414,-0.981812,0.020264,499
16027697,9993,0.274048,-0.980225,0.021240,478
16037720,10023,0.273438,-0.979980,0.021851,471
16047700,9980,0.271484,-0.979858,0.022827,464
16057702,10002,0.269897,-0.979736,0.024048,458
16067698,9996,0.269043,-0.981323,0.024048,451
16077720,10022,0.267578,-0.981323,0.024902,453
16087701,9981,0.268311,-0.982422,0.024902,456
16097703,10002,0.268188,-0.981445,0.023560,459
16107710,10007,0.267334,-0.981689,0.021362,466
16117717,10007,0.268188,-0.982178,0.021240,472
16127713,9996,0.269775,-0.983154,0.021362,480
16137707,9994,0.269653,-0.982788,0.020996,481
16147717,10010,0.270264,-0.982056,0.022095,493
16157719,10002,0.270630,-0.982056,0.021240,498
16167713,9994,0.271729,-0.982422,0.021973,502
16177715,10002,0.273071,-0.983276,0.022705,504
16187714,9999,0.273804,-0.982422,0.023071,506
16197706,9992,0.273315,-0.982056,0.023560,511
16207733,10027,0.274902,-0.981934,0.025146,512
16217702,9969,0.274536,-0.981323,0.024536,507
16227713,10011,0.274292,-0.980225,0.024658,509
16237712,9999,0.274902,-0.979248,0.023926,508
16247713,10001,0.275269,-0.980591,0.022583,505
16257716,10003,0.276367,-0.980591,0.022949,501
16267712,9996,0.276367,-0.980835,0.022583,496
16277712,10000,0.274780,-0.982544,0.021362,490
16287699,9987,0.274414,-0.981689,0.020264,487
16297695,9996,0.273926,-0.984375,0.019653,484
16307704,10009,0.274658,-0.984375,0.018677,480
16317723,10019,0.272583,-0.984375,0.019531,476
16327721,9998,0.272827,-0.984741,0.021484,475
16337695,9974,0.271729,-0.980469,0.021729,472
16347714,10019,0.270508,-0.979614,0.021729,470
16357724,10010,0.271606,-0.978516,0.021484,470
16367695,9971,0.271362,-0.977905,0.023071,467
16377707,10012,0.271484,-0.979248,0.022217,462
16387706,9999,0.273315,-0.982178,0.021362,464
16397709,10003,0.273071,-0.982422,0.019409,476
16407710,10001,0.270874,-0.983398,0.017700,468
16417716,10006,0.270142,-0.984497,0.017456,471
16427716,10000,0.269409,-0.986572,0.017700,486
16437730,10014,0.270020,-0.988037,0.020386,497
16447715,9985,0.269653,-0.986084,0.020508,516
16457699,9984,0.269531,-0.986816,0.020874,535
16467746,10047,0.271240,-0.985107,0.020264,554
16477742,9996,0.273071,-0.983887,0.019897,581
16487696,9954,0.273926,-0.981812,0.017944,603
16497700,10004,0.276367,-0.978638,0.017212,622
16507720,10020,0.278687,-0.977417,0.015991,644
16517701,9981,0.279053,-0.977905,0.015991,657
16527712,10011,0.280151,-0.979004,0.016113,666
16537697,9985,0.280518,-0.978027,0.015747,669
16547716,10019,0.281372,-0.976685,0.018799,663
16557721,10005,0.280396,-0.976562,0.019043,654
16567699,9978,0.280151,-0.977539,0.019287,641
16577713,10014,0.278809,-0.979492,0.020264,625
16587712,9999,0.277100,-0.979004,0.019531,606
16597695,9983,0.276001,-0.981201,0.019043,586
16607695,10000,0.273926,-0.983643,0.017334,565
16617709,10014,0.272705,-0.983032,0.016357,538
16627704,9995,0.271729,-0.982544,0.015503,520
16637722,10018,0.269775,-0.982910,0.013672,499
16647697,9975,0.270020,-0.983643,0.014282,488
16657718,10021,0.269775,-0.983521,0.015747,477
16667717,9999,0.267700,-0.984985,0.015381,462
16677716,9999,0.267334,-0.984497,0.016479,452
16687724,10008,0.267090,-0.985352,0.016602,449
16697717,9993,0.266724,-0.984619,0.016602,449
16707707,9990,0.266846,-0.985962,0.018188,448
16717695,9988,0.265869,-0.985840,0.017090,449
16727699,10004,0.267578,-0.984619,0.017700,455
16737712,10013,0.267334,-0.984009,0.017578,458
16747714,10002,0.267700,-0.983887,0.017090,471
16757713,9999,0.269775,-0.984131,0.017578,476
16767724,10011,0.270020,-0.984619,0.014648,484
16777713,9989,0.271729,-0.984131,0.015259,494
16787717,10004,0.271973,-0.984009,0.014526,497
16797719,10002,0.272827,-0.984009,0.014526,502
16807705,9986,0.274048,-0.984863,0.014771,507
16817700,9995,0.272827,-0.985229,0.014771,504
16827703,10003,0.273560,-0.983887,0.014893,511
16837696,9993,0.273682,-0.981689,0.014526,512
16847718,10022,0.272827,-0.981323,0.015137,510
16857715,9997,0.272339,-0.980591,0.013184,505
16867722,10007,0.271606,-0.980469,0.012817,504
16877700,9978,0.271851,-0.979736,0.011475,500
16887713,10013,0.270386,-0.981201,0.011353,493
16897695,9982,0.269653,-0.981445,0.011475,492
16907711,10016,0.269287,-0.983032,0.011108,487
16917705,9994,0.269043,-0.984741,0.011108,481
16927721,10016,0.269043,-0.985229,0.010010,476
16937698,9977,0.267700,-0.984741,0.010620,474
16947716,10018,0.268799,-0.985107,0.011475,470
16957699,9983,0.268433,-0.984619,0.011719,469
16967711,10012,0.269043,-0.982910,0.011353,466
16977704,9993,0.269775,-0.981567,0.011963,466
16987697,9993,0.269775,-0.981323,0.011353,464
16997698,10001,0.272339,-0.981934,0.013062,459
17007716,10018,0.273071,-0.983154,0.011475,462
17017704,9988,0.272827,-0.983521,0.010986,457
17027700,9996,0.271851,-0.983398,0.010864,465
17037717,10017,0.270630,-0.984619,0.009888,474
17047708,9991,0.267212,-0.987183,0.010132,485
17057712,10004,0.267944,-0.988159,0.011597,496
17067735,10023,0.267090,-0.988403,0.012207,514
17077705,9970,0.265869,-0.987305,0.011841,534
17087700,9995,0.264526,-0.986694,0.011353,562
17097721,10021,0.264282,-0.986206,0.010742,586
17107699,9978,0.264526,-0.983643,0.009277,613
17117706,10007,0.265503,-0.983154,0.010010,630
17127703,9997,0.266724,-0.983398,0.010254,656
17137706,10003,0.267578,-0.983643,0.009644,668
17147709,10003,0.268433,-0.983643,0.010742,674
17157712,10003,0.269043,-0.983643,0.009888,677
17167723,10011,0.268433,-0.983032,0.010498,669
17177724,10001,0.269653,-0.982178,0.010864,663
17187708,9984,0.270630,-0.982422,0.010132,642
17197715,10007,0.270142,-0.983032,0.009888,629
17207720,10005,0.270264,-0.983398,0.010010,602
17217697,9977,0.269165,-0.983765,0.009399,582
17227707,10010,0.269165,-0.984741,0.010010,563
17237721,10014,0.268677,-0.984009,0.009521,540
17247721,10000,0.268921,-0.984863,0.008179,523
17257702,9981,0.268188,-0.984131,0.009155,500
17267716,10014,0.266235,-0.983398,0.008057,487
17277699,9983,0.265503,-0.983521,0.009521,468
17287710,10011,0.264526,-0.984253,0.009644,461
17297697,9987,0.264893,-0.984619,0.010010,447
17307707,10010,0.264771,-0.984985,0.009766,445
17317720,10013,0.264526,-0.985474,0.011475,442
17327700,9980,0.263916,-0.987549,0.010620,436
17337714,10014,0.264038,-0.987183,0.009521,439
17347696,9982,0.264526,-0.987549,0.007813,451
17357737,10041,0.264893,-0.985840,0.008057,457
17367734,9997,0.264282,-0.985107,0.007935,466
17377702,9968,0.265015,-0.984497,0.008545,466
17387722,10020,0.265625,-0.984131,0.007324,476
17397722,10000,0.265991,-0.984741,0.007324,488
17407695,9973,0.265625,-0.984131,0.007202,496
17417697,10002,0.265137,-0.985107,0.007202,497
17427719,10022,0.265869,-0.985840,0.009277,501
17437716,9997,0.265625,-0.986572,0.011108,506
17447717,10001,0.266113,-0.987549,0.011108,507
17457717,10000,0.265747,-0.986694,0.012207,500
17467698,9981,0.265259,-0.984497,0.012329,505
17477716,10018,0.265137,-0.984131,0.011841,504
17487697,9981,0.265625,-0.982178,0.010864,495
17497698,10001,0.265015,-0.981201,0.009521,497
17507722,10024,0.265625,-0.982300,0.007324,494
17517696,9974,0.265503,-0.982544,0.006348,483
17527704,10008,0.265991,-0.982788,0.006104,485
17537705,10001,0.264771,-0.984009,0.005371,480
17547699,9994,0.265137,-0.986450,0.005615,475
17557701,10002,0.263550,-0.987305,0.004639,471
17567711,10010,0.263550,-0.987549,0.005127,465
17577722,10011,0.263916,-0.988892,0.006104,466
17587710,9988,0.263672,-0.988647,0.006714,464
17597710,10000,0.263428,-0.986694,0.008423,462
17607701,9991,0.263672,-0.985718,0.008667,461
17617705,10004,0.264404,-0.985474,0.010010,457
17627712,10007,0.266113,-0.984375,0.010864,466
17637752,10040,0.266602,-0.983643,0.012207,465
17647724,9972,0.267822,-0.984009,0.011108,466
17657719,9995,0.267456,-0.983154,0.008667,473
17667716,9997,0.267090,-0.985229,0.007446,483
17677706,9990,0.266724,-0.985718,0.007080,494
17687705,9999,0.265503,-0.985352,0.007690,507
17697708,10003,0.264526,-0.986450,0.007690,533
17707697,9989,0.262451,-0.986938,0.006104,556
17717719,10022,0.263428,-0.986084,0.005371,583
17727723,10004,0.262573,-0.984985,0.005249,607
17737699,9976,0.263062,-0.984863,0.008057,626
17747706,10007,0.262817,-0.984619,0.007202,652
17757708,10002,0.262939,-0.985596,0.009033,666
17767698,9990,0.263428,-0.985962,0.009399,669
17777697,9999,0.264771,-0.984985,0.009766,675
17787697,10000,0.265259,-0.983887,0.009888,677
17797715,10018,0.265137,-0.983521,0.010742,667
17807703,9988,0.266602,-0.983521,0.010010,654
17817713,10010,0.267700,-0.984375,0.009521,637
17827708,9995,0.267456,-0.982544,0.008179,616
17837697,9989,0.268066,-0.982788,0.007324,594
17847696,9999,0.267578,-0.983765,0.006104,570
17857703,10007,0.266479,-0.983398,0.005981,546
17867696,9993,0.265015,-0.985107,0.006348,523
17877696,10000,0.263794,-0.984497,0.007202,505
17887716,10020,0.261963,-0.984253,0.007568,482
17897722,10006,0.261353,-0.984131,0.008911,469
17907711,9989,0.260498,-0.985107,0.010254,456
17917745,10034,0.259766,-0.986328,0.010864,442
17927701,9956,0.259155,-0.987671,0.010620,438
17937710,10009,0.258911,-0.989868,0.011230,430
17947721,10011,0.258789,-0.990234,0.010742,433
17957704,9983,0.258667,-0.988403,0.010376,438
17967719,10015,0.258789,-0.987671,0.009766,443
17977717,9998,0.259033,-0.988525,0.010010,448
17987722,10005,0.260010,-0.986694,0.010132,455
17997699,9977,0.261353,-0.985352,0.009888,463
18007708,10009,0.261719,-0.983887,0.009033,470
18017719,10011,0.261841,-0.984619,0.009766,480
18027702,9983,0.262451,-0.984375,0.009399,481
18037714,10012,0.263916,-0.984497,0.008911,493
18047723,10009,0.263428,-0.984985,0.008545,497
18057701,9978,0.264771,-0.986450,0.008911,501
18067720,10019,0.265259,-0.987305,0.008789,502
18077716,9996,0.265747,-0.986694,0.009399,506
18087703,9987,0.265381,-0.985718,0.009033,504
18097710,10007,0.263306,-0.984375,0.008545,500
18107718,10008,0.264771,-0.984497,0.009644,501
18117710,9992,0.264648,-0.984253,0.008789,498
18127705,9995,0.263550,-0.985229,0.008301,494
18137700,9995,0.264771,-0.985352,0.008179,490
18147702,10002,0.262573,-0.985840,0.008667,479
18157695,9993,0.262817,-0.986206,0.008789,476
18167701,10006,0.262695,-0.986694,0.007935,474
18177710,10009,0.260986,-0.985596,0.006958,473
18187717,10007,0.259399,-0.985107,0.007446,468
18197724,10007,0.260620,-0.985474,0.006592,467
18207751,10027,0.260864,-0.984985,0.008789,461
18217727,9976,0.261475,-0.986694,0.008911,457
18227721,9994,0.259888,-0.986572,0.009399,451
18237724,10003,0.260986,-0.985962,0.009521,452
18247700,9976,0.260376,-0.987183,0.010254,450
18257706,10006,0.261841,-0.985962,0.011963,453
18267696,9990,0.263428,-0.986816,0.012817,456
18277717,10021,0.263794,-0.986572,0.012451,459
18287714,9997,0.263428,-0.984985,0.011108,464
18297695,9981,0.262573,-0.984741,0.009888,471
18307724,10029,0.262573,-0.985107,0.008911,479
18317724,10000,0.262573,-0.985962,0.009399,499
18327698,9974,0.261963,-0.986694,0.008423,512
18337723,10025,0.260986,-0.986694,0.007568,539
18347714,9991,0.260010,-0.986816,0.007202,560
18357725,10011,0.261841,-0.986572,0.005737,584
18367710,9985,0.260254,-0.985107,0.008057,614
18377717,10007,0.262451,-0.984497,0.008911,633
18387718,10001,0.262695,-0.983154,0.008545,656
18397724,10006,0.262817,-0.982544,0.010132,667
18407721,9997,0.262207,-0.983276,0.010742,676
18417702,9981,0.263550,-0.985107,0.009644,673
18427715,10013,0.263916,-0.984741,0.009888,673
18437722,10007,0.263672,-0.985718,0.009399,657
18447697,9975,0.263306,-0.985718,0.007935,648
18457707,10010,0.263916,-0.986938,0.007324,626
18467703,9996,0.263916,-0.987305,0.008545,607
18477723,10020,0.263672,-0.986938,0.007813,586
18487707,9984,0.262573,-0.985962,0.006470,563
18497733,10026,0.262207,-0.986206,0.006836,536
18507708,9975,0.262451,-0.985840,0.006958,518
18517697,9989,0.263062,-0.984985,0.005371,492
18527719,10022,0.260864,-0.984741,0.006104,481
18537706,9987,0.261230,-0.984985,0.008667,467
18547714,10008,0.260864,-0.985962,0.008911,454
18557701,9987,0.261597,-0.987549,0.009155,446
18567707,10006,0.259766,-0.988647,0.008423,439
18577700,9993,0.260742,-0.988525,0.008179,432
18587720,10020,0.258789,-0.988770,0.009644,436
18597718,9998,0.258911,-0.988037,0.008667,440
18607709,9991,0.260010,-0.987549,0.009644,446
18617698,9989,0.259521,-0.987549,0.010376,450
18627702,10004,0.258789,-0.986084,0.011719,460
18637709,10007,0.259155,-0.985229,0.010620,463
18647720,10011,0.259155,-0.985474,0.010864,476
18657709,9989,0.259521,-0.985474,0.011108,486
18667722,10013,0.259888,-0.984741,0.010620,492
18677724,10002,0.260254,-0.985229,0.010742,496
18687697,9973,0.260132,-0.984863,0.009155,502
18697708,10011,0.262329,-0.986084,0.009033,499
18707720,10012,0.262451,-0.986938,0.007935,499
18717723,10003,0.262573,-0.986938,0.009521,503
18727708,9985,0.262329,-0.986450,0.009399,504
18737708,10000,0.264526,-0.985718,0.010254,501
18747721,10013,0.263428,-0.985718,0.009155,496
18757722,10001,0.262207,-0.984375,0.009888,493
18767697,9975,0.261841,-0.984619,0.008911,489
18777711,10014,0.260986,-0.984741,0.007202,484
18787734,10023,0.260498,-0.985229,0.007813,480
18797698,9964,0.260376,-0.983765,0.007813,473
18807727,10029,0.260498,-0.985962,0.006226,469
18817702,9975,0.260132,-0.986938,0.005493,466
18827710,10008,0.261108,-0.988403,0.005493,458
18837708,9998,0.260376,-0.988525,0.005737,461
18847702,9994,0.260620,-0.988647,0.008423,460
18857708,10006,0.260742,-0.988403,0.010498,459
18867716,10008,0.262573,-0.986328,0.012085,458
18877695,9979,0.260742,-0.985596,0.011597,460
18887718,10023,0.261108,-0.984375,0.011108,458
18897700,9982,0.261597,-0.984619,0.011475,459
18907709,10009,0.261475,-0.983887,0.010498,458
18917723,10014,0.263428,-0.984741,0.008911,460
18927715,9992,0.263794,-0.984741,0.006226,466
18937697,9982,0.263794,-0.984619,0.004272,466
18947706,10009,0.261475,-0.986816,0.004028,477
18957709,10003,0.260986,-0.989868,0.004883,481
18967710,10001,0.259521,-0.989136,0.005005,496
18977719,10009,0.257446,-0.990356,0.007813,516
18987724,10005,0.257446,-0.989746,0.008545,533
18997699,9975,0.257202,-0.989014,0.009277,564
19007700,10001,0.257324,-0.987305,0.009644,590
19017721,10021,0.258301,-0.987061,0.010010,614
19027697,9976,0.259644,-0.985352,0.009888,634
19037716,10019,0.259888,-0.984009,0.008789,650
19047725,10009,0.261841,-0.983398,0.008301,657
19057713,9988,0.262939,-0.984375,0.008179,673
19067705,9992,0.264038,-0.984375,0.008057,671
19077718,10013,0.265015,-0.983521,0.008301,668
19087728,10010,0.265747,-0.984497,0.009644,655
19097702,9974,0.266479,-0.985229,0.009644,640
19107730,10028,0.266235,-0.986450,0.009766,624
19117709,9979,0.265747,-0.986694,0.010132,603
19127697,9988,0.266113,-0.986572,0.009644,576
19137724,10027,0.265137,-0.985840,0.009399,559
19147698,9974,0.263794,-0.984863,0.008545,536
19157719,10021,0.263062,-0.986328,0.007568,510
19167698,9979,0.262085,-0.984985,0.007690,493
19177713,10015,0.260010,-0.984253,0.007813,481
19187710,9997,0.259644,-0.984375,0.007813,460
19197706,9996,0.257324,-0.988525,0.009766,455
19207702,9996,0.257324,-0.989014,0.011230,447
19217695,9993,0.256836,-0.990845,0.010498,438
19227716,10021,0.255737,-0.990479,0.011719,433
19237713,9997,0.255615,-0.990479,0.012573,428
19247709,9996,0.255981,-0.989502,0.013062,441
19257717,10008,0.257202,-0.988159,0.012817,439
19267696,9979,0.259155,-0.987793,0.013794,452
19277724,10028,0.260132,-0.985474,0.013428,458
19287714,9990,0.261841,-0.984253,0.012207,469
19297707,9993,0.261841,-0.983398,0.012939,473
19307705,9998,0.263672,-0.983154,0.014282,485
19317696,9991,0.264893,-0.982666,0.014160,489
19327716,10020,0.265015,-0.983398,0.014404,496
19337716,10000,0.267090,-0.984863,0.013306,500
19347713,9997,0.265625,-0.985596,0.012939,500
19357710,9997,0.265259,-0.986206,0.014160,506
19367703,9993,0.264771,-0.986328,0.014038,506
19377721,10018,0.265503,-0.985596,0.013062,505
19387711,9990,0.264526,-0.985718,0.012573,503
19397706,9995,0.264648,-0.985474,0.011841,498
19407699,9993,0.263306,-0.984985,0.011719,497
19417711,10012,0.263672,-0.984375,0.011719,497
19427700,9989,0.263794,-0.984497,0.012451,481
19437722,10022,0.262695,-0.984497,0.012695,480
19447707,9985,0.263794,-0.984253,0.013428,476
19457706,9999,0.262573,-0.984375,0.014771,469
19467701,9995,0.262817,-0.984497,0.014038,468
19477719,10018,0.261475,-0.984863,0.014282,465
19487722,10003,0.262695,-0.985840,0.012939,455
19497724,10002,0.262573,-0.986816,0.013916,456
19507695,9971,0.263672,-0.985596,0.015137,454
19517721,10026,0.264160,-0.986206,0.014526,457
19527713,9992,0.264404,-0.984497,0.012817,456
19537722,10009,0.263428,-0.984985,0.013794,456
19547716,9994,0.263916,-0.984497,0.012939,452
19557713,9997,0.264282,-0.983276,0.014404,457
19567701,9988,0.264771,-0.983521,0.015259,458
19577711,10010,0.265991,-0.984375,0.015015,458
19587723,10012,0.266235,-0.985352,0.015015,460
19597699,9976,0.266113,-0.985596,0.014282,462
19607717,10018,0.265015,-0.984985,0.012695,468
19617698,9981,0.265137,-0.988037,0.012207,478
19627716,10018,0.263794,-0.988281,0.012939,497
19637717,10001,0.262939,-0.988159,0.015259,511
19647706,9989,0.261719,-0.988159,0.013550,531
19657732,10026,0.262207,-0.986450,0.014038,553
19667749,10017,0.262939,-0.987061,0.014160,575
19677726,9977,0.262695,-0.983765,0.014282,596
19687697,9971,0.264526,-0.981934,0.013794,623
19697703,10006,0.266724,-0.981323,0.015137,635
19707698,9995,0.268433,-0.980835,0.014893,649
19717712,10014,0.268188,-0.979858,0.013672,658
19727704,9992,0.269653,-0.980713,0.014404,667
19737711,10007,0.270264,-0.980957,0.013794,666
19747714,10003,0.270508,-0.981079,0.012695,658
19757705,9991,0.270630,-0.982788,0.013672,643
19767708,10003,0.270386,-0.984619,0.012695,628
19777712,10004,0.269775,-0.984985,0.011475,607
19787720,10008,0.268433,-0.984985,0.012085,580
19797721,10001,0.268555,-0.985474,0.012939,564
19807709,9988,0.267090,-0.985229,0.013916,543
19817717,10008,0.266113,-0.984497,0.013062,519
19827711,9994,0.265503,-0.983521,0.013062,501
19837700,9989,0.265137,-0.984131,0.012817,479
19847699,9999,0.264771,-0.984253,0.012939,463
19857717,10018,0.264771,-0.985352,0.012207,450
19867704,9987,0.265259,-0.985596,0.012817,443
19877711,10007,0.264526,-0.985596,0.013062,443
19887705,9994,0.264893,-0.986572,0.012451,439
19897714,10009,0.265381,-0.986206,0.013062,435
19907702,9988,0.265869,-0.985962,0.012817,437
19917720,10018,0.265503,-0.984619,0.015015,449
19927704,9984,0.267456,-0.984131,0.014893,457
19937696,9992,0.267212,-0.985352,0.014771,464
19947737,10041,0.267456,-0.984375,0.013428,473
19957716,9979,0.268188,-0.984497,0.012207,480
19967709,9993,0.267822,-0.983643,0.012329,488
19977711,10002,0.268188,-0.983643,0.012329,498
19987703,9992,0.268921,-0.984253,0.011597,500
19997698,9995,0.268555,-0.983887,0.011353,506
20007722,10024,0.267822,-0.983032,0.012817,500
20017719,9997,0.267822,-0.982788,0.013062,511
20027703,9984,0.268677,-0.982666,0.012451,509
20037702,9999,0.267456,-0.982544,0.013184,512
20047719,10017,0.266968,-0.982300,0.012939,504
20057714,9995,0.267212,-0.981689,0.013062,506
20067716,10002,0.266724,-0.982666,0.012207,499
20077714,9998,0.267334,-0.983521,0.010986,496
20087709,9995,0.267212,-0.983276,0.010620,492
20097716,10007,0.267090,-0.984619,0.010986,488
20107715,9999,0.267212,-0.984375,0.011353,482
20117711,9996,0.266113,-0.985107,0.012207,475
20127704,9993,0.265991,-0.985474,0.012573,474
20137709,10005,0.265991,-0.987427,0.013062,466
20147720,10011,0.267334,-0.988159,0.012939,463
20157721,10001,0.267334,-0.986816,0.013916,466
20167716,9995,0.266846,-0.986694,0.014160,465
20177704,9988,0.267822,-0.985596,0.014282,462
20187703,9999,0.268188,-0.982056,0.013062,461
20197699,9996,0.267578,-0.981201,0.012939,461
20207711,10012,0.268066,-0.981567,0.012695,461
20217736,10025,0.270020,-0.982788,0.013306,460
20227702,9966,0.271851,-0.983765,0.012207,463
20237709,10007,0.271118,-0.983398,0.012573,465
20247707,9998,0.270508,-0.982422,0.010620,469
20257695,9988,0.268799,-0.984985,0.010254,476
20267723,10028,0.267334,-0.985718,0.011108,485
20277723,10000,0.265991,-0.988403,0.012207,496
20287710,9987,0.265625,-0.989746,0.012939,513
20297716,10006,0.262695,-0.987671,0.014771,525
20307698,9982,0.262695,-0.985840,0.014038,550
20317708,10010,0.261963,-0.984619,0.012451,571
20327721,10013,0.262939,-0.983398,0.010986,593
20337722,10001,0.262939,-0.981445,0.010010,615
20347704,9982,0.265381,-0.981079,0.010254,627
20357715,10011,0.267456,-0.980591,0.009277,640
20367713,9998,0.267822,-0.980103,0.008545,651
20377717,10004,0.269775,-0.980835,0.008301,656
20387697,9980,0.270020,-0.980469,0.009277,654
20397706,10009,0.271851,-0.980713,0.009033,648
20407722,10016,0.272339,-0.981934,0.009766,637
20417721,9999,0.272461,-0.982910,0.010132,621
20427719,9998,0.273682,-0.983643,0.009277,599
20437702,9983,0.273071,-0.983765,0.009521,584
20447708,10006,0.272827,-0.984985,0.009399,564
20457698,9990,0.270630,-0.985474,0.009033,544
20467696,9998,0.271240,-0.984253,0.010254,521
20477705,10009,0.270020,-0.983521,0.011108,507
20487730,10025,0.269409,-0.982910,0.010132,486
20497702,9972,0.268555,-0.984619,0.010742,477
20507704,10002,0.267090,-0.984375,0.010010,467
20517720,10016,0.266724,-0.984619,0.009766,460
20527712,9992,0.265503,-0.984863,0.009888,449
20537698,9986,0.264160,-0.984863,0.008789,446
20547697,9999,0.264038,-0.985718,0.007202,447
20557716,10019,0.263428,-0.985352,0.006958,443
20567707,9991,0.262451,-0.984985,0.006226,454
20577706,9999,0.263184,-0.986450,0.006836,458
20587696,9990,0.262451,-0.988037,0.006592,459
20597697,10001,0.262817,-0.986938,0.007935,472
20607711,10014,0.264038,-0.987793,0.006592,477
20617717,10006,0.265015,-0.986938,0.008179,489
20627704,9987,0.266357,-0.985352,0.010254,495
20637712,10008,0.266846,-0.983521,0.010010,501
20647705,9993,0.267700,-0.982666,0.010498,499
20657722,10017,0.266968,-0.982300,0.010132,510
20667719,9997,0.268188,-0.982300,0.011230,509
20677706,9987,0.269287,-0.981201,0.010376,510
20687705,9999,0.269531,-0.982056,0.010254,508
20697721,10016,0.269287,-0.982422,0.010132,508
20707708,9987,0.269409,-0.983765,0.008789,508
20717721,10013,0.269043,-0.984863,0.008301,498
20727720,9999,0.269043,-0.984375,0.007813,492
20737716,9996,0.266846,-0.985718,0.009033,493
20747697,9981,0.265869,-0.984985,0.009155,483
20757702,10005,0.265259,-0.984131,0.008911,485
20767697,9995,0.263550,-0.984619,0.008545,480
20777716,10019,0.263794,-0.984497,0.008789,473
20787698,9982,0.264038,-0.984741,0.008423,471
20797708,10010,0.264404,-0.986084,0.010254,462
20807711,10003,0.265625,-0.985962,0.009033,459
20817698,9987,0.264893,-0.984985,0.009277,458
20827721,10023,0.263916,-0.984741,0.007324,460
20838615,10894,0.263672,-0.984497,0.007690,462
20847702,9087,0.263794,-0.985107,0.007690,457
20857721,10019,0.265747,-0.984985,0.007202,458
20867700,9979,0.265625,-0.984863,0.007568,459
20877715,10015,0.265259,-0.984863,0.007690,463
20887696,9981,0.265747,-0.986816,0.006836,470
20897719,10023,0.264404,-0.986938,0.006958,473
20907724,10005,0.263550,-0.989502,0.008789,486
20917715,9991,0.264404,-0.990234,0.009888,501
20927718,10003,0.263062,-0.988892,0.010498,517
20937722,10004,0.263428,-0.988647,0.009033,535
20947723,10001,0.263550,-0.986816,0.008911,561
20957711,9988,0.264526,-0.983887,0.006104,580
20967717,10006,0.265137,-0.981689,0.006226,608
20977709,9992,0.265869,-0.980957,0.006226,627
20987708,9999,0.266479,-0.980957,0.005981,644
20997707,9999,0.268188,-0.980713,0.005493,653
21007706,9999,0.268677,-0.981567,0.005371,660
21017696,9990,0.268677,-0.982910,0.006470,655
21027715,10019,0.267822,-0.982300,0.008057,655
21037722,10007,0.267334,-0.984131,0.007813,636
21047725,10003,0.266968,-0.984131,0.008667,623
21057699,9974,0.266357,-0.985352,0.008789,610
21067702,10003,0.265991,-0.986206,0.007690,591
21077708,10006,0.265381,-0.984985,0.007324,570
21087719,10011,0.265747,-0.984741,0.006836,549
21097715,9996,0.263916,-0.984985,0.006836,521
21107708,9993,0.263550,-0.982544,0.007446,503
21117704,9996,0.263306,-0.983521,0.007324,485
21127695,9991,0.261353,-0.983154,0.008545,468
21137720,10025,0.260498,-0.984863,0.009033,463
21147701,9981,0.259766,-0.985962,0.008667,451
21157721,10020,0.257935,-0.987671,0.009644,439
21167708,9987,0.258667,-0.988647,0.009033,439
21177697,9989,0.259033,-0.989624,0.008057,443
21187707,10010,0.259521,-0.989380,0.006714,444
21197705,9998,0.259033,-0.989868,0.005615,448
21207716,10011,0.259644,-0.988159,0.005127,453
21217701,9985,0.259033,-0.987305,0.005127,458
21227707,10006,0.261108,-0.987061,0.005981,465
21237700,9993,0.261353,-0.986084,0.007202,473
21247725,10025,0.262451,-0.984619,0.007080,481
21257717,9992,0.262939,-0.985229,0.008423,491
21267708,9991,0.262451,-0.984741,0.008789,493
21277722,10014,0.264160,-0.984741,0.008667,502
21287698,9976,0.264893,-0.984741,0.007446,506
21297699,10001,0.265503,-0.984253,0.007324,504
21307700,10001,0.264404,-0.985352,0.005493,510
21317703,10003,0.264526,-0.985474,0.005371,510
21327700,9997,0.264160,-0.985107,0.005493,504
21337703,10003,0.263550,-0.984863,0.005493,508
21347713,10010,0.262939,-0.985352,0.006104,504
21357714,10001,0.262329,-0.986450,0.006836,493
21367715,10001,0.261963,-0.986938,0.007446,494
21377718,10003,0.260132,-0.986694,0.006226,492
21387708,9990,0.259766,-0.987061,0.007080,486
21397719,10011,0.258789,-0.984619,0.006958,481
21407708,9989,0.258545,-0.984741,0.006226,477
21417723,10015,0.259888,-0.984741,0.004272,474
21427721,9998,0.259888,-0.985352,0.003540,464
21437699,9978,0.261597,-0.986328,0.004761,466
21447699,10000,0.262451,-0.987183,0.004639,465
21457696,9997,0.262451,-0.985596,0.005005,460
21467703,10007,0.261963,-0.986816,0.004395,462
21477722,10019,0.262085,-0.986938,0.005737,461
21487703,9981,0.262573,-0.986328,0.008789,462
21497700,9997,0.262939,-0.987915,0.009888,462
21507719,10019,0.263062,-0.985962,0.009888,465
21517721,10002,0.262085,-0.985474,0.008667,470
21527713,9992,0.260986,-0.986572,0.007202,469
21537724,10011,0.260010,-0.986816,0.007324,485
21547721,9997,0.259277,-0.988159,0.007080,494
21557764,10043,0.259521,-0.988892,0.005127,514
21567700,9936,0.259277,-0.988892,0.003174,532
21577722,10022,0.260620,-0.988647,0.002441,556
21587706,9984,0.260132,-0.986206,0.002441,574
21597707,10001,0.260986,-0.984741,0.002686,603
21607704,9997,0.262085,-0.984009,0.002686,624
21617701,9997,0.263306,-0.983765,0.005005,641
21627696,9995,0.263672,-0.983765,0.006592,653
21637707,10011,0.263428,-0.982910,0.007080,658
21647720,10013,0.263184,-0.982788,0.007690,655
21657702,9982,0.264282,-0.983154,0.008301,656
21667701,9999,0.263306,-0.982788,0.009277,648
21677703,10002,0.263062,-0.984985,0.008789,634
21687724,10021,0.262939,-0.984253,0.007813,618
21697701,9977,0.262695,-0.984863,0.006226,597
21707712,10011,0.262695,-0.984863,0.005981,570
21717699,9987,0.261841,-0.985107,0.004272,554
21727706,10007,0.262085,-0.986694,0.003052,537
21737713,10007,0.260742,-0.985474,0.003052,517
21747714,10001,0.260010,-0.985474,0.002319,502
21757722,10008,0.259644,-0.986328,0.003784,480
21767714,9992,0.259033,-0.987183,0.003540,468
21777705,9991,0.259155,-0.986816,0.004028,462
21787721,10016,0.257935,-0.989502,0.005737,437
21797702,9981,0.258179,-0.989746,0.005615,449
21807723,10021,0.258423,-0.989868,0.005493,446
21817713,9990,0.258545,-0.989624,0.004639,448
21827718,10005,0.258789,-0.989502,0.003906,451
21837746,10028,0.258667,-0.987793,0.003662,457
21847726,9980,0.258545,-0.988037,0.004150,462
21857711,9985,0.259033,-0.986572,0.004517,471
21867720,10009,0.258789,-0.986328,0.004272,478
21877713,9993,0.260010,-0.985474,0.005127,487
21887713,10000,0.260742,-0.985474,0.006104,488
21897709,9996,0.261108,-0.984985,0.008057,501
21907700,9991,0.260620,-0.984497,0.007568,507
21917704,10004,0.261108,-0.984497,0.007935,512
21927696,9992,0.260986,-0.985596,0.007568,509
21937699,10003,0.261963,-0.985718,0.006958,511
21947708,10009,0.260864,-0.985718,0.004028,515
21957697,9989,0.262207,-0.986450,0.003174,511
21967706,10009,0.261108,-0.986084,0.002686,527
21977715,10009,0.262695,-0.985596,0.001953,509
21987699,9984,0.262207,-0.986206,0.002197,496
21997697,9998,0.261963,-0.984497,0.003296,499
22007701,10004,0.260986,-0.985107,0.004883,493
22017714,10013,0.260254,-0.985474,0.006104,489
22027712,9998,0.259033,-0.985352,0.007202,484
22037716,10004,0.258301,-0.984131,0.008911,479
22047697,9981,0.258667,-0.984497,0.009155,478
22057717,10020,0.258667,-0.986084,0.008789,475
22067695,9978,0.258911,-0.987061,0.008057,466
22077724,10029,0.260010,-0.988525,0.007568,467
22087711,9987,0.259644,-0.988647,0.006592,467
22097721,10010,0.258667,-0.987915,0.005249,462
22107717,9996,0.258911,-0.988159,0.004028,465
22117760,10043,0.259033,-0.989990,0.003418,465
22127729,9969,0.259521,-0.989502,0.003296,463
22137707,9978,0.260498,-0.989624,0.004761,463
22147715,10008,0.260620,-0.988281,0.005249,466
22157695,9980,0.259644,-0.989136,0.005127,464
22167704,10009,0.257935,-0.988647,0.006104,471
22177702,9998,0.257202,-0.987427,0.008423,482
22187718,10016,0.256348,-0.987061,0.010742,499
22197711,9993,0.256714,-0.985962,0.011108,513
22207716,10005,0.256470,-0.985962,0.011230,533
22217708,9992,0.257446,-0.985474,0.008789,556
22227707,9999,0.260376,-0.984619,0.004150,582
22237709,10002,0.261475,-0.984253,0.002075,607
22247720,10011,0.262573,-0.984131,0.001831,623
22257702,9982,0.263794,-0.984497,0.002075,649
22267698,9996,0.263428,-0.984253,0.002197,662
22277725,10027,0.263672,-0.985596,0.006836,667
22287704,9979,0.263672,-0.985107,0.007568,676
22297697,9993,0.264771,-0.985229,0.008545,669
22307716,10019,0.264160,-0.984009,0.010864,664
22317712,9996,0.263184,-0.984741,0.010620,653
22327707,9995,0.262939,-0.984619,0.009888,635
22337702,9995,0.261841,-0.984741,0.007568,607
22347701,9999,0.262939,-0.984863,0.005981,590
22357718,10017,0.262451,-0.984619,0.004639,564
22367701,9983,0.262329,-0.985596,0.003174,550
22377718,10017,0.261719,-0.985352,0.003418,528
22387701,9983,0.260864,-0.986572,0.002441,509
22397695,9994,0.260254,-0.986084,0.004517,491
22407744,10049,0.259644,-0.988037,0.005371,482
22417702,9958,0.257935,-0.989136,0.006348,469
22427698,9996,0.258057,-0.988770,0.007324,459
22437700,10002,0.256470,-0.988892,0.008789,450
22447705,10005,0.256714,-0.988281,0.010742,451
22457695,9990,0.255859,-0.988159,0.011108,451
22467704,10009,0.255737,-0.988647,0.010986,449
22477712,10008,0.254883,-0.987427,0.009644,459
22487718,10006,0.255005,-0.987061,0.010132,464
22497717,9999,0.255737,-0.986816,0.007446,467
22507719,10002,0.256836,-0.986206,0.006592,478
22517720,10001,0.257568,-0.985352,0.005981,482
22527719,9999,0.259033,-0.985229,0.006226,493
22537706,9987,0.260010,-0.985229,0.006714,500
22547716,10010,0.259766,-0.984619,0.007568,504
22557705,9989,0.262207,-0.985718,0.007446,507
22567716,10011,0.261719,-0.985840,0.007568,510
22577703,9987,0.263062,-0.986572,0.008057,511
22587709,10006,0.262695,-0.986450,0.009766,510
22597708,9999,0.262451,-0.985962,0.008789,510
22607709,10001,0.263672,-0.987305,0.008301,505
22617722,10013,0.261841,-0.986328,0.007568,501
22627702,9980,0.261963,-0.986206,0.007935,493
22637706,10004,0.260132,-0.985718,0.006958,494
22647709,10003,0.260132,-0.984863,0.005981,490
22657720,10011,0.259033,-0.984985,0.005981,483
22667719,9999,0.258789,-0.985107,0.005981,481
22677709,9990,0.257324,-0.984863,0.007080,474
22687696,9987,0.255615,-0.985718,0.006836,475
22697703,10007,0.256104,-0.986572,0.006836,455
22707737,10034,0.256836,-0.987915,0.007080,466
22717725,9988,0.257324,-0.990845,0.008423,467
22727723,9998,0.258179,-0.989502,0.010010,481
22737709,9986,0.258179,-0.988281,0.010498,464
22747701,9992,0.257935,-0.986694,0.009888,462
22757717,10016,0.257690,-0.984619,0.009155,464
22767719,10002,0.258667,-0.984253,0.007202,459
22777715,9996,0.260376,-0.984741,0.006592,463
22787700,9985,0.262329,-0.984131,0.006958,462
22797724,10024,0.263184,-0.985229,0.005981,467
22807708,9984,0.263428,-0.985718,0.004517,470
22817722,10014,0.263184,-0.987061,0.002686,475
22827705,9983,0.262817,-0.988892,0.003784,483
22837708,10003,0.260498,-0.988892,0.005859,493
22847720,10012,0.259155,-0.989868,0.006958,508
22857724,10004,0.258179,-0.990234,0.008179,523
22867704,9980,0.257690,-0.989990,0.006958,545
22877699,9995,0.257690,-0.989014,0.006714,563
22887705,10006,0.256104,-0.988159,0.008667,589
22897720,10015,0.257080,-0.985352,0.007568,611
22907724,10004,0.257568,-0.985596,0.006714,635
22917695,9971,0.258179,-0.984863,0.005737,652
22927701,10006,0.259155,-0.984985,0.007080,662
22937713,10012,0.260010,-0.984009,0.005859,672
22947710,9997,0.261475,-0.984009,0.006592,667
22957714,10004,0.262207,-0.983887,0.005737,662
22967724,10010,0.262817,-0.984863,0.006836,656
22977725,10001,0.263184,-0.986450,0.008423,643
22987709,9984,0.264038,-0.987549,0.007446,624
22997766,10057,0.262085,-0.987427,0.007813,601
23007727,9961,0.260742,-0.987183,0.007813,583
23017704,9977,0.260498,-0.986816,0.006958,560
23027704,10000,0.260864,-0.985107,0.007202,537
23037695,9991,0.259155,-0.984619,0.006470,513
23047709,10014,0.259888,-0.984131,0.006348,498
23057710,10001,0.258301,-0.984009,0.006470,479
23067708,9998,0.257568,-0.985229,0.006470,467
23077696,9988,0.256836,-0.985718,0.006470,456
23087699,10003,0.257690,-0.987427,0.006470,447
23097720,10021,0.256348,-0.988647,0.005859,441
23107706,9986,0.256958,-0.991089,0.006470,437
23117715,10009,0.257690,-0.989502,0.007202,437
23127698,9983,0.257690,-0.989380,0.007202,442
23137723,10025,0.256714,-0.989380,0.007568,450
23147701,9978,0.257202,-0.989502,0.007446,459
23157703,10002,0.258667,-0.987427,0.008911,466
23167700,9997,0.259399,-0.988770,0.008789,472
23177696,9996,0.259766,-0.986084,0.010254,484
23187715,10019,0.258545,-0.984985,0.008911,490
23197699,9984,0.259521,-0.985352,0.009521,497
23207725,10026,0.258423,-0.986572,0.008301,503
23217714,9989,0.259399,-0.986694,0.009644,502
23227701,9987,0.258545,-0.987915,0.008301,509
23237703,10002,0.257202,-0.987183,0.010132,512
23247710,10007,0.258423,-0.987427,0.010620,511
23257698,9988,0.257935,-0.986084,0.010498,504
23267708,10010,0.259033,-0.986450,0.007813,501
23277760,10052,0.258789,-0.985474,0.007935,503
23287715,9955,0.260010,-0.985474,0.006470,495
23297697,9982,0.259277,-0.984985,0.007202,496
23307712,10015,0.261597,-0.985107,0.006714,491
23317718,10006,0.260864,-0.986938,0.007935,481
23327715,9997,0.260376,-0.987915,0.006714,484
23337700,9985,0.261353,-0.986816,0.008179,480
23347708,10008,0.260742,-0.986694,0.008423,475
23357720,10012,0.259521,-0.986694,0.008301,473
23367710,9990,0.261841,-0.987793,0.009155,470
23377719,10009,0.261108,-0.988037,0.011108,466
23387724,10005,0.261108,-0.986206,0.011353,464
23397711,9987,0.261963,-0.985474,0.012207,459
23407706,9995,0.261597,-0.985229,0.011719,457
23417699,9993,0.261597,-0.984985,0.011841,462
23427708,10009,0.260620,-0.984741,0.010620,459
23437698,9990,0.262451,-0.985352,0.010010,464
23447720,10022,0.262573,-0.984985,0.010498,458
23457704,9984,0.264038,-0.986938,0.011597,461
23467697,9993,0.264526,-0.987061,0.010498,462
23477714,10017,0.262939,-0.985352,0.010376,473
23487699,9985,0.261841,-0.987061,0.010376,476
23497698,9999,0.260010,-0.991089,0.011719,488
23507698,10000,0.258179,-0.991089,0.012207,499
23517705,10007,0.257813,-0.991699,0.014404,514
23527712,10007,0.256836,-0.989990,0.015381,527
23537705,9993,0.257446,-0.989014,0.013550,559
23547763,10058,0.257935,-0.984375,0.010742,582
23557713,9950,0.258789,-0.982666,0.010254,604
23567700,9987,0.260620,-0.981567,0.010376,630
23577715,10015,0.262329,-0.981079,0.010620,649
23587697,9982,0.264160,-0.981445,0.011353,664
23597716,10019,0.264771,-0.981445,0.012085,667
23607699,9983,0.267212,-0.982422,0.013184,675
23617722,10023,0.267944,-0.982910,0.014038,669
23627717,9995,0.268311,-0.983154,0.014648,654
23637711,9994,0.268311,-0.984009,0.015625,650
23647714,10003,0.268921,-0.983521,0.014771,633
23657695,9981,0.266846,-0.985474,0.013306,613
23667724,10029,0.266602,-0.985107,0.013306,591
23677719,9995,0.266724,-0.984741,0.013794,568
23687722,10003,0.264771,-0.984131,0.014404,548
23697723,10001,0.264526,-0.985352,0.014771,523
23707695,9972,0.263550,-0.985596,0.014404,508
23717705,10010,0.261108,-0.986328,0.013672,491
23727707,10002,0.260742,-0.985229,0.013916,474
23737712,10005,0.259521,-0.987305,0.013794,465
23747711,9999,0.259766,-0.988281,0.015015,456
23757704,9993,0.260498,-0.987671,0.014893,450
23767713,10009,0.260376,-0.987305,0.014526,447
23777714,10001,0.259888,-0.986328,0.014771,442
23787707,9993,0.260986,-0.985596,0.014282,450
23797702,9995,0.260864,-0.986084,0.012573,455
23807707,10005,0.261353,-0.986328,0.012451,460
23817697,9990,0.262085,-0.985229,0.014526,469
23827741,10044,0.263428,-0.986694,0.014038,475
23838278,10537,0.263672,-0.984985,0.015991,483
23847718,9440,0.263916,-0.984985,0.015625,491
23857712,9994,0.265381,-0.982544,0.015625,497
23867715,10003,0.265137,-0.982422,0.015991,505
23877710,9995,0.265869,-0.982544,0.015625,507
23887717,10007,0.266602,-0.983643,0.014893,513
23897698,9981,0.267334,-0.982788,0.015747,508
23907700,10002,0.269165,-0.984497,0.014771,509
23917698,9998,0.269287,-0.985229,0.016602,515
23927711,10013,0.267822,-0.981812,0.016724,508
23937708,9997,0.270020,-0.984375,0.015503,506
23947716,10008,0.270996,-0.984863,0.015625,508
23957704,9988,0.271240,-0.983887,0.014648,505
23967722,10018,0.270752,-0.983398,0.014404,499
23977705,9983,0.270020,-0.982178,0.012207,491
23987723,10018,0.267944,-0.983643,0.014771,488
23997697,9974,0.267822,-0.985596,0.014648,485
24007707,10010,0.265625,-0.986816,0.015259,482
24017719,10012,0.265015,-0.986572,0.015015,480
24027710,9991,0.264771,-0.985962,0.015137,475
24037696,9986,0.264160,-0.986328,0.017212,474
24047713,10017,0.264526,-0.984253,0.016846,469
24057706,9993,0.264771,-0.984131,0.016968,467
24067719,10013,0.265625,-0.981812,0.015503,468
24077716,9997,0.266113,-0.981445,0.015869,466
24087722,10006,0.266113,-0.982056,0.015137,461
24097706,9984,0.269043,-0.985229,0.015381,465
24107739,10033,0.269897,-0.986572,0.017334,465
24117713,9974,0.271362,-0.988647,0.017700,463
24127720,10007,0.269165,-0.985962,0.017090,468
24137698,9978,0.266479,-0.986816,0.017700,475
24147698,10000,0.264893,-0.986572,0.019653,487
24157705,10007,0.265381,-0.987305,0.020386,496
24167710,10005,0.263306,-0.985840,0.021484,511
24177721,10011,0.264771,-0.984497,0.020142,534
24187714,9993,0.263672,-0.984741,0.019165,562
24197724,10010,0.265259,-0.983521,0.017700,580
24207711,9987,0.267700,-0.983032,0.015381,606
24217710,9999,0.268677,-0.981812,0.015381,631
24227716,10006,0.268433,-0.981567,0.015259,646
24237700,9984,0.270630,-0.981445,0.017212,658
24247712,10012,0.269653,-0.981079,0.017700,669
24257721,10009,0.270996,-0.980469,0.019165,672
24267708,9987,0.272217,-0.979004,0.020020,665
24277712,10004,0.272095,-0.977783,0.021484,661
24287718,10006,0.271851,-0.978882,0.021240,644
24297702,9984,0.272339,-0.980835,0.019287,624
24307703,10001,0.271729,-0.981567,0.018921,610
24317717,10014,0.270752,-0.983154,0.016113,583
24327712,9995,0.269897,-0.984375,0.014648,565
24337698,9986,0.269775,-0.985474,0.015015,540
24347708,10010,0.268188,-0.986328,0.015381,517
24357721,10013,0.267578,-0.985840,0.014526,501
24367705,9984,0.266235,-0.984741,0.015991,484
24377702,9997,0.266846,-0.983032,0.018799,472
24387720,10018,0.265381,-0.982178,0.020020,456
24397705,9985,0.265991,-0.982788,0.020142,452
24407758,10053,0.266357,-0.984741,0.020752,447
24417746,9988,0.266235,-0.984497,0.020264,440
24427726,9980,0.267090,-0.983154,0.018921,437
24437709,9983,0.267334,-0.983398,0.018188,447
24447702,9993,0.268188,-0.982910,0.017822,453
24457713,10011,0.269409,-0.982666,0.017212,457
24467708,9995,0.270386,-0.983521,0.017700,464
24477705,9997,0.271484,-0.984375,0.018311,479
24487724,10019,0.271118,-0.982422,0.017944,483
24497715,9991,0.272339,-0.981689,0.017578,495
24507706,9991,0.271973,-0.982300,0.016602,490
24517723,10017,0.271362,-0.981934,0.016724,506
24527707,9984,0.269409,-0.982056,0.017578,507
24537716,10009,0.267700,-0.982544,0.016479,513
24547701,9985,0.268066,-0.982300,0.017700,514
24557695,9994,0.267212,-0.983521,0.016968,512
24567695,10000,0.266968,-0.983765,0.017822,514
24577712,10017,0.266235,-0.983398,0.016846,510
24587720,10008,0.265259,-0.982910,0.015991,507
24597695,9975,0.265259,-0.985107,0.014648,503
24607695,10000,0.265869,-0.986450,0.015015,498
24617709,10014,0.265625,-0.985474,0.014771,491
24627719,10010,0.265259,-0.984497,0.015381,487
24637717,9998,0.265991,-0.984863,0.014404,482
24647706,9989,0.265625,-0.985229,0.014648,474
24657695,9989,0.266968,-0.984741,0.015503,472
24667714,10019,0.266602,-0.984497,0.015015,467
24677724,10010,0.268188,-0.984375,0.016602,463
24687722,9998,0.267944,-0.983398,0.016479,464
24697717,9995,0.267700,-0.983398,0.015625,457
24707716,9999,0.267456,-0.981323,0.014648,463
24717716,10000,0.269287,-0.981445,0.014648,460
24727702,9986,0.269409,-0.982422,0.014160,458
24737721,10019,0.268677,-0.984009,0.015137,461
24747740,10019,0.268066,-0.984863,0.015259,461
24757753,10013,0.265869,-0.985229,0.012939,457
24767719,9966,0.264038,-0.987061,0.013306,469
24777713,9994,0.262573,-0.988281,0.014160,479
24787712,9999,0.261108,-0.989746,0.015503,494
24797722,10010,0.260864,-0.989624,0.016357,509
24807723,10001,0.259521,-0.990234,0.016113,528
24817713,9990,0.258911,-0.988037,0.013306,549
24827711,9998,0.260132,-0.987427,0.011108,575
24837706,9995,0.260498,-0.985474,0.011108,606
24847723,10017,0.261597,-0.984253,0.010254,628
24857722,9999,0.263306,-0.982910,0.011230,645
24867696,9974,0.264771,-0.983032,0.012085,658
24877697,10001,0.267456,-0.983032,0.013062,665
24887724,10027,0.267334,-0.982788,0.012939,665
24897707,9983,0.267700,-0.982178,0.013184,666
24907698,9991,0.268921,-0.982300,0.013916,660
24917695,9997,0.268921,-0.982910,0.013916,646
24927725,10030,0.268311,-0.982544,0.013306,632
24937710,9985,0.267822,-0.984253,0.011108,604
24947701,9991,0.267090,-0.985474,0.010498,587
24957698,9997,0.266724,-0.985352,0.008911,565
24967709,10011,0.265625,-0.985962,0.008057,543
24977708,9999,0.264526,-0.985352,0.007446,515
24987714,10006,0.263672,-0.984863,0.008667,495
24997706,9992,0.262329,-0.985474,0.008789,483
25007708,10002,0.262207,-0.983765,0.010376,467
25017711,10003,0.260376,-0.984009,0.011230,456
25027697,9986,0.260010,-0.985107,0.011963,444
25037724,10027,0.259277,-0.986694,0.011841,442
25047704,9980,0.259888,-0.986694,0.011597,433
25057708,10004,0.258423,-0.987061,0.010498,437
25067700,9992,0.259033,-0.988403,0.011719,438
25077697,9997,0.260132,-0.988770,0.010254,441
25087706,10009,0.261230,-0.989136,0.008057,450
25097727,10021,0.262085,-0.989380,0.007568,460
25107716,9989,0.261230,-0.988770,0.007813,466
25117697,9981,0.262451,-0.988525,0.006958,472
25127720,10023,0.262695,-0.988647,0.007813,484
25137718,9998,0.263306,-0.986938,0.009521,486
25147695,9977,0.263062,-0.984497,0.012573,497
25157715,10020,0.263428,-0.984497,0.013550,501
25167717,10002,0.263916,-0.984985,0.014648,502
25177696,9979,0.263428,-0.984741,0.013550,508
25187708,10012,0.263428,-0.984375,0.013306,507
25197712,10004,0.263062,-0.984131,0.011597,506
25207718,10006,0.262939,-0.984497,0.009888,504
25217709,9991,0.262817,-0.984131,0.007690,500
25227715,10006,0.262451,-0.985840,0.007324,491
25237708,9993,0.261353,-0.985718,0.007935,494
25247719,10011,0.261475,-0.986450,0.006836,485
25257718,9999,0.261108,-0.985474,0.008301,484
25267698,9980,0.260010,-0.987793,0.008057,480
25277704,10006,0.260742,-0.988037,0.008179,475
25287702,9998,0.260132,-0.988403,0.009033,469
25297717,10015,0.260620,-0.986206,0.010010,467
25307707,9990,0.261353,-0.986328,0.010376,465
25317701,9994,0.261597,-0.984741,0.010498,461
25327702,10001,0.260254,-0.983643,0.010132,456
25337703,10001,0.260864,-0.984619,0.009644,462
25347706,10003,0.261597,-0.984985,0.009521,453
25357702,9996,0.261719,-0.985229,0.009888,455
25367697,9995,0.262939,-0.985962,0.010742,457
25377697,10000,0.262695,-0.986694,0.011230,459
25387696,9999,0.262329,-0.987183,0.009155,461
25397735,10039,0.261719,-0.987305,0.009399,465
25407751,10016,0.259155,-0.988037,0.009155,474
25417728,9977,0.259644,-0.988403,0.009766,490
25427709,9981,0.259521,-0.988403,0.010010,508
25437713,10004,0.259155,-0.988159,0.008789,531
25447705,9992,0.259766,-0.988159,0.007935,550
25457721,10016,0.259155,-0.986328,0.007080,573
25467697,9976,0.258057,-0.985840,0.004272,597
25477709,10012,0.259155,-0.985840,0.006714,622
25487707,9998,0.261230,-0.985840,0.008301,645
25497710,10003,0.261108,-0.984741,0.010132,660
25507696,9986,0.260986,-0.985229,0.011597,668
25517720,10024,0.262939,-0.984375,0.011719,672
25527699,9979,0.263184,-0.983765,0.011108,668
25537698,9999,0.264038,-0.982910,0.011719,657
25547698,10000,0.264893,-0.983154,0.013306,640
25557697,9999,0.265747,-0.982910,0.013062,620
25567695,9998,0.264771,-0.984497,0.009888,604
25577718,10023,0.265015,-0.985474,0.007813,587
25587711,9993,0.262817,-0.985596,0.008057,563
25597699,9988,0.262329,-0.985352,0.007080,542
25607715,10016,0.262573,-0.985352,0.008179,518
25617707,9992,0.261230,-0.984863,0.008301,500
25627695,9988,0.259644,-0.985474,0.008789,484
25637706,10011,0.260620,-0.985229,0.010010,465
25647717,10011,0.258423,-0.987305,0.011353,460
25657712,9995,0.257568,-0.987305,0.009644,449
25667701,9989,0.257690,-0.987671,0.009155,446
25677715,10014,0.258301,-0.988525,0.010376,444
25687721,10006,0.259766,-0.990723,0.010498,438
25697723,10002,0.257935,-0.988892,0.011841,447
25707707,9984,0.257935,-0.987671,0.010010,447
25717752,10045,0.256714,-0.985840,0.010986,454
25727737,9985,0.257080,-0.984863,0.010742,461
25737709,9972,0.257324,-0.985229,0.010864,465
25747719,10010,0.258423,-0.985107,0.012695,473
25757724,10005,0.260010,-0.984863,0.012451,478
25767711,9987,0.259521,-0.985229,0.012695,485
25777696,9985,0.259644,-0.985596,0.012207,490
25787703,10007,0.259888,-0.986084,0.013062,486
25797699,9996,0.260864,-0.987671,0.011963,492
25807720,10021,0.261230,-0.987183,0.011597,496
25817718,9998,0.261475,-0.986450,0.012085,493
25827719,10001,0.260742,-0.987061,0.010864,492
25837709,9990,0.260132,-0.986084,0.010254,495
25847704,9995,0.260376,-0.985718,0.010620,495
25857724,10020,0.261230,-0.985352,0.010986,489
25867702,9978,0.261353,-0.984863,0.011963,482
25877714,10012,0.261475,-0.984131,0.011719,478
25887697,9983,0.260864,-0.984985,0.012817,476
25897715,10018,0.260864,-0.984497,0.012817,472
25907701,9986,0.261475,-0.984619,0.012207,467
25917712,10011,0.261719,-0.985229,0.010864,458
25927719,10007,0.260986,-0.985474,0.011719,455
25937711,9992,0.260864,-0.986328,0.011719,458
25947695,9984,0.261108,-0.988647,0.011108,457
25957717,10022,0.261597,-0.988525,0.012085,452
25967702,9985,0.260742,-0.987915,0.011597,456
25977698,9996,0.258789,-0.986816,0.009766,457
25987714,10016,0.257935,-0.987183,0.010620,458
25997698,9984,0.257935,-0.987183,0.011597,457
26007724,10026,0.258057,-0.987183,0.011230,454
26017705,9981,0.259766,-0.988403,0.012939,457
26027708,10003,0.259277,-0.987183,0.011230,459
26037700,9992,0.259399,-0.987305,0.012939,468
26047718,10018,0.257690,-0.986938,0.012695,470
26057721,10003,0.258545,-0.986816,0.012329,490
26067712,9991,0.258057,-0.987671,0.012695,508
26077703,9991,0.258667,-0.986572,0.012695,522
26087711,10008,0.257935,-0.985718,0.008789,544
26097723,10012,0.258789,-0.986206,0.009033,564
26107708,9985,0.259521,-0.986084,0.009155,592
26117724,10016,0.260620,-0.984253,0.009399,611
26127695,9971,0.261597,-0.985107,0.010742,628
26137706,10011,0.262817,-0.986328,0.012329,633
26147714,10008,0.262329,-0.985352,0.012939,643
26157715,10001,0.263550,-0.985840,0.012939,648
26167719,10004,0.263306,-0.984497,0.012207,644
26177699,9980,0.264038,-0.984863,0.011841,637
26187709,10010,0.263306,-0.984497,0.012329,620
26197723,10014,0.262451,-0.984619,0.011597,610
26207698,9975,0.262695,-0.984619,0.009888,591
26217706,10008,0.261841,-0.985107,0.010010,571
26227716,10010,0.261475,-0.984741,0.009888,552
26237707,9991,0.261108,-0.984741,0.009766,532
26247721,10014,0.260742,-0.985596,0.008179,515
26257696,9975,0.260864,-0.986816,0.008667,501
26267704,10008,0.260376,-0.986328,0.008667,482
26277717,10013,0.258911,-0.987427,0.009155,468
26287700,9983,0.258667,-0.987549,0.010864,458
26297720,10020,0.258179,-0.989136,0.009888,455
26307715,9995,0.257568,-0.989746,0.010986,450
26317722,10007,0.256226,-0.988403,0.010254,441
26327715,9993,0.256592,-0.988403,0.011475,446
26337723,10008,0.256958,-0.987671,0.011475,449
26347719,9996,0.256836,-0.987183,0.011963,446
26357711,9992,0.258667,-0.985718,0.011353,458
26367696,9985,0.258301,-0.985596,0.012085,459
26377697,10001,0.258667,-0.987305,0.010010,472
26387718,10021,0.259521,-0.987183,0.009766,476
26397702,9984,0.259888,-0.986084,0.010620,478
26407719,10017,0.260010,-0.987305,0.011108,485
26417723,10004,0.260498,-0.984863,0.013062,486
26427718,9995,0.260132,-0.987183,0.013916,491
26437717,9999,0.261353,-0.985840,0.013550,498
26447717,10000,0.261963,-0.984741,0.013550,498
26457713,9996,0.261597,-0.984497,0.014648,501
26467718,10005,0.261230,-0.985962,0.012085,500
26477701,9983,0.260742,-0.985229,0.010742,494
26487711,10010,0.260620,-0.985474,0.009155,494
26497716,10005,0.260010,-0.985107,0.009521,488
26507713,9997,0.259766,-0.985229,0.008179,488
26517723,10010,0.259033,-0.987549,0.007813,481
26527717,9994,0.259766,-0.985596,0.008911,479
26537695,9978,0.259521,-0.986450,0.009888,467
26547700,10005,0.258301,-0.986694,0.010742,469
26557707,10007,0.258789,-0.986206,0.011963,461
26567723,10016,0.257690,-0.985962,0.011841,462
26577721,9998,0.257446,-0.987549,0.012939,458
26587724,10003,0.257446,-0.988892,0.012573,458
26597719,9995,0.259399,-0.989014,0.011963,451
26607723,10004,0.258423,-0.987549,0.010864,449
26617716,9993,0.258423,-0.988281,0.010010,456
26627698,9982,0.259033,-0.988037,0.009277,456
26637696,9998,0.257935,-0.986206,0.007568,455
26647698,10002,0.258057,-0.986694,0.010010,456
26657695,9997,0.259277,-0.987915,0.012451,450
26667718,10023,0.261597,-0.988037,0.013428,455
26677724,10006,0.261963,-0.988892,0.014038,460
26687714,9990,0.262329,-0.988525,0.012573,463
26697723,10009,0.261230,-0.988159,0.010864,468
26707715,9992,0.259521,-0.988037,0.011353,477
26717720,10005,0.259277,-0.988770,0.011597,488
26727711,9991,0.258667,-0.987549,0.011963,498
26737710,9999,0.258545,-0.988281,0.011230,517
26747722,10012,0.258179,-0.988159,0.007690,534
26757710,9988,0.258545,-0.985596,0.007446,553
26767699,9989,0.258057,-0.985107,0.008179,569
26777703,10004,0.259033,-0.984253,0.008789,591
26787700,9997,0.260376,-0.983521,0.010498,611
26797707,10007,0.261475,-0.984131,0.012939,620
26807706,9999,0.262329,-0.983643,0.014404,633
26817696,9990,0.262451,-0.983887,0.014771,636
26827714,10018,0.264038,-0.982666,0.015259,635
26837723,10009,0.263184,-0.982178,0.015015,629
26847695,9972,0.263184,-0.981812,0.015137,614
26857699,10004,0.263794,-0.983643,0.011475,605
26867709,10010,0.262695,-0.984985,0.010010,589
26877697,9988,0.262817,-0.986206,0.008789,572
26887713,10016,0.260986,-0.987061,0.007446,554
26897713,10000,0.260620,-0.987061,0.008057,536
26907697,9984,0.258423,-0.987183,0.009399,512
26917705,10008,0.258545,-0.986450,0.009644,503
26927704,9999,0.257202,-0.985840,0.009766,487
26937701,9997,0.258057,-0.986328,0.009644,474
26947711,10010,0.256592,-0.987915,0.011230,462
26957695,9984,0.257568,-0.988647,0.011353,454
26967711,10016,0.257202,-0.990356,0.011597,449
26977717,10006,0.257080,-0.989868,0.011841,439
26987722,10005,0.257690,-0.989136,0.010498,444
26997707,9985,0.257690,-0.988770,0.010620,447
27007702,9995,0.258179,-0.988281,0.011230,445
27017695,9993,0.257202,-0.987427,0.012207,457
27027702,10007,0.258423,-0.986206,0.011963,463
27037712,10010,0.258057,-0.984863,0.012207,470
27047698,9986,0.258789,-0.984253,0.013916,471
27057719,10021,0.259033,-0.985718,0.014160,482
27067703,9984,0.259155,-0.986084,0.014648,487
27077713,10010,0.261230,-0.985352,0.014160,495
27087739,10026,0.261353,-0.986816,0.014282,501
27097699,9960,0.260376,-0.987061,0.013062,501
27107740,10041,0.260986,-0.986938,0.011597,515
27117723,9983,0.260376,-0.988159,0.011597,501
27127705,9982,0.260620,-0.986084,0.009521,502
27137701,9996,0.259033,-0.985840,0.009155,498
27147721,10020,0.258911,-0.985596,0.009155,493
27157700,9979,0.258179,-0.986206,0.008911,487
27167722,10022,0.258301,-0.986084,0.009766,489
27177706,9984,0.257690,-0.985718,0.009888,481
27187721,10015,0.258179,-0.987305,0.011597,477
27197700,9979,0.258179,-0.987549,0.012085,473
27207710,10010,0.258667,-0.985596,0.012695,468
27217721,10011,0.259033,-0.985107,0.012329,464
27227722,10001,0.259521,-0.985596,0.012939,459
27237708,9986,0.259888,-0.984741,0.013428,461
27247697,9989,0.260254,-0.984375,0.012695,453
27257700,10003,0.260010,-0.985840,0.011475,456
27267724,10024,0.260498,-0.986084,0.011353,449
27277720,9996,0.260864,-0.986450,0.010986,455
27287721,10001,0.260864,-0.987183,0.010864,456
27297709,9988,0.261719,-0.988037,0.010010,455
27307708,9999,0.261841,-0.987915,0.009888,456
27317700,9992,0.260132,-0.987305,0.009277,457
27327719,10019,0.259888,-0.986816,0.009644,459
27337715,9996,0.258667,-0.986084,0.010620,458
27347708,9993,0.259033,-0.986328,0.013794,458
27357712,10004,0.258667,-0.985474,0.013184,462
27367697,9985,0.259521,-0.985718,0.012939,461
27377738,10041,0.258789,-0.986938,0.012451,461
27387713,9975,0.257568,-0.988647,0.011230,468
27397708,9995,0.256836,-0.990112,0.010254,479
27407725,10017,0.256226,-0.990967,0.011841,487
27417723,9998,0.255493,-0.992554,0.012329,497
27427720,9997,0.256104,-0.991699,0.011963,514
27437708,9988,0.255737,-0.990112,0.010620,535
27447724,10016,0.255737,-0.988647,0.010864,548
27457721,9997,0.256226,-0.986816,0.012817,576
27467709,9988,0.259155,-0.983643,0.013672,589
27477713,10004,0.260864,-0.983887,0.013550,606
27487698,9985,0.262329,-0.982910,0.014038,614
27497721,10023,0.262573,-0.982666,0.014404,626
27507719,9998,0.263672,-0.983154,0.014893,628
27517722,10003,0.266479,-0.982178,0.012939,624
27527699,9977,0.266724,-0.981567,0.013184,617
27537721,10022,0.266846,-0.982422,0.012695,610
27547698,9977,0.266235,-0.984375,0.012451,597
27557700,10002,0.265747,-0.984741,0.011475,580
27567722,10022,0.265747,-0.984863,0.010620,565
27577711,9989,0.263184,-0.985840,0.010254,548
27587709,9998,0.261353,-0.985352,0.010376,531
27597708,9999,0.260254,-0.986206,0.010498,516
27607723,10015,0.259766,-0.986206,0.011719,501
27617701,9978,0.259399,-0.985718,0.011719,486
27627714,10013,0.258667,-0.987183,0.012695,475
27637696,9982,0.257690,-0.988281,0.013672,470
27647712,10016,0.258423,-0.989014,0.012817,457
27657713,10001,0.257446,-0.990234,0.012573,457
27667749,10036,0.258667,-0.990356,0.012817,454
27677707,9958,0.259155,-0.990479,0.011841,456
27687724,10017,0.259644,-0.988525,0.012817,455
27697697,9973,0.259399,-0.988037,0.013062,460
27707713,10016,0.259277,-0.986084,0.014404,465
27717698,9985,0.260132,-0.984497,0.014160,468
27727696,9998,0.262207,-0.983765,0.014160,479
27737723,10027,0.260620,-0.982666,0.013306,481
27747717,9994,0.261475,-0.984619,0.013794,487
27757722,10005,0.261841,-0.985840,0.014282,499
27767715,9993,0.262573,-0.986328,0.014648,500
27777720,10005,0.262329,-0.987305,0.014526,502
27787707,9987,0.262939,-0.986206,0.015259,505
27797706,9999,0.263306,-0.984253,0.015259,503
27807703,9997,0.263306,-0.984985,0.014648,505
27817713,10010,0.262207,-0.985718,0.013184,502
27827712,9999,0.262695,-0.984619,0.013184,505
27837703,9991,0.263794,-0.984741,0.012329,502
27847703,10000,0.263306,-0.984741,0.009766,498
27857714,10011,0.264526,-0.984497,0.010864,491
27867720,10006,0.265625,-0.984619,0.010498,490
27877711,9991,0.266235,-0.983032,0.011597,486
27887711,10000,0.265869,-0.982910,0.014038,477
27897707,9996,0.265625,-0.983765,0.013794,478
27907704,9997,0.264038,-0.983521,0.015137,473
27917703,9999,0.263794,-0.983887,0.016235,475
27927719,10016,0.264404,-0.984009,0.017090,472
27937710,9991,0.263184,-0.983765,0.017090,472
27947712,10002,0.263184,-0.983643,0.018188,465
27957721,10009,0.262085,-0.986450,0.015381,472
27967735,10014,0.262695,-0.987061,0.013672,470
27977701,9966,0.263306,-0.987793,0.013550,469
27987724,10023,0.262695,-0.987915,0.012085,470
27997705,9981,0.262573,-0.987427,0.012085,468
28007716,10011,0.263062,-0.986206,0.011597,469
28017720,10004,0.262817,-0.985107,0.011597,467
28027709,9989,0.262817,-0.984985,0.012207,472
28037720,10011,0.264526,-0.986206,0.012939,470
28047705,9985,0.265503,-0.986572,0.013428,472
28057718,10013,0.265747,-0.986084,0.013916,473
28067714,9996,0.264526,-0.985474,0.015503,478
28077713,9999,0.263428,-0.985474,0.015381,486
28087714,10001,0.262695,-0.987061,0.016846,490
28097697,9983,0.263550,-0.987915,0.017822,499
28107721,10024,0.263062,-0.987915,0.017578,510
28117704,9983,0.262329,-0.987549,0.017456,525
28127709,10005,0.263550,-0.985718,0.015137,544
28137705,9996,0.263306,-0.985474,0.013306,562
28147697,9992,0.263672,-0.984375,0.012451,579
28157707,10010,0.265137,-0.983398,0.012207,591
28167705,9998,0.266724,-0.981812,0.013428,630
28177709,10004,0.267334,-0.981445,0.014282,621
28187717,10008,0.268555,-0.981323,0.015137,629
28197705,9988,0.268066,-0.980713,0.016357,632
28207747,10042,0.269165,-0.980957,0.015747,629
28217715,9968,0.270752,-0.981323,0.015137,616
28227700,9985,0.269531,-0.981689,0.016846,612
28237695,9995,0.269287,-0.983276,0.015625,600
28247720,10025,0.268921,-0.984741,0.014404,586
28257714,9994,0.267700,-0.985474,0.014648,571
28267713,9999,0.267090,-0.985474,0.013306,550
28277696,9983,0.266235,-0.985474,0.013672,538
28287702,10006,0.264771,-0.986206,0.014404,527
28297714,10012,0.264893,-0.984741,0.015991,512
28307715,10001,0.263794,-0.985107,0.015259,498
28317700,9985,0.263550,-0.985718,0.015625,489
28327698,9998,0.263550,-0.985840,0.016724,477
28337715,10017,0.263306,-0.987305,0.017212,475
28347717,10002,0.264648,-0.988037,0.016602,467
28357708,9991,0.264038,-0.987793,0.016602,469
28367711,10003,0.265503,-0.988281,0.017456,461
28377695,9984,0.265747,-0.986694,0.015991,471
28387713,10018,0.264893,-0.984863,0.016724,473
28397724,10011,0.265625,-0.982910,0.017212,477
28407697,9973,0.266724,-0.983765,0.018677,481
28417724,10027,0.267212,-0.982178,0.017822,488
28427720,9996,0.266968,-0.982056,0.018066,494
28437711,9991,0.266602,-0.981812,0.020142,500
28447705,9994,0.267090,-0.981689,0.019165,500
28457700,9995,0.267334,-0.981689,0.019043,506
28467739,10039,0.267822,-0.982422,0.018188,510
28477714,9975,0.266479,-0.983276,0.019165,508
28487708,9994,0.266357,-0.983154,0.017944,510
28497732,10024,0.266602,-0.983521,0.017578,509
28507706,9974,0.265869,-0.983643,0.015869,503
28517697,9991,0.266846,-0.984619,0.016113,497
28527718,10021,0.265503,-0.984009,0.016357,499
28537719,10001,0.266602,-0.984009,0.016357,498
28547711,9992,0.266479,-0.984619,0.017334,490
28557709,9998,0.266846,-0.984375,0.017700,487
28567723,10014,0.266846,-0.982544,0.017944,484
28577704,9981,0.266968,-0.981934,0.018555,482
28587718,10014,0.265991,-0.981934,0.018555,480
28597722,10004,0.266724,-0.982056,0.019043,476
28607710,9988,0.267212,-0.982422,0.018433,468
28617705,9995,0.266602,-0.985352,0.017578,472
28627716,10011,0.267700,-0.986084,0.016846,471
28637696,9980,0.268555,-0.987061,0.015991,465
28647724,10028,0.267456,-0.986206,0.015259,462
28657698,9974,0.268188,-0.985474,0.013916,468
28667714,10016,0.268311,-0.983398,0.012573,466
28677701,9987,0.265869,-0.980347,0.012817,463
28687704,10003,0.265991,-0.981323,0.014771,461
28697701,9997,0.265869,-0.981934,0.015381,465
28707716,10015,0.265747,-0.983521,0.015625,468
28717697,9981,0.265625,-0.985840,0.016235,469
28727703,10006,0.265503,-0.987549,0.016846,474
28737723,10020,0.264160,-0.987427,0.016357,477
28747708,9985,0.262817,-0.988281,0.015991,482
28757714,10006,0.263062,-0.988403,0.015869,490
28767724,10010,0.262207,-0.986816,0.016235,498
28777722,9998,0.260742,-0.985474,0.015137,514
28787695,9973,0.261841,-0.984741,0.013062,531
28797732,10037,0.263428,-0.983276,0.012085,549
28807716,9984,0.264282,-0.983398,0.012329,571
28817695,9979,0.264648,-0.982788,0.011597,582
28827719,10024,0.265869,-0.982910,0.013062,603
28837711,9992,0.267944,-0.982422,0.014526,619
28847712,10001,0.270386,-0.981201,0.014526,611
28857718,10006,0.269653,-0.981934,0.014648,636
28867706,9988,0.269043,-0.981079,0.015015,637
28877698,9992,0.267822,-0.981689,0.015259,633
28887723,10025,0.269043,-0.981689,0.016235,627
28897715,9992,0.268433,-0.983276,0.014160,620
28907712,9997,0.267944,-0.983521,0.012939,606
28917717,10005,0.266479,-0.985718,0.012329,583
28927706,9989,0.265015,-0.985352,0.011230,577
28937717,10011,0.264160,-0.986694,0.010986,557
28947698,9981,0.261719,-0.986938,0.011841,539
28957709,10011,0.260864,-0.986206,0.010742,525
28967703,9994,0.259277,-0.986938,0.011475,516
28977703,10000,0.260254,-0.986938,0.012329,502
28987702,9999,0.258911,-0.987305,0.011841,486
28997708,10006,0.259888,-0.987793,0.011963,480
29007719,10011,0.258057,-0.989380,0.013306,471
29017724,10005,0.258057,-0.988770,0.012573,467
29027721,9997,0.257813,-0.988647,0.012085,471
29037722,10001,0.257080,-0.987793,0.010742,469
29047701,9979,0.259033,-0.987915,0.011353,469
29057735,10034,0.259399,-0.986084,0.011841,468
29067718,9983,0.260742,-0.985596,0.011475,475
29077696,9978,0.261597,-0.985352,0.009521,474
29087719,10023,0.261719,-0.986084,0.010376,483
29097721,10002,0.262939,-0.985352,0.010254,489
29107706,9985,0.262329,-0.985229,0.011597,492
29117718,10012,0.263306,-0.984131,0.010986,500
29127697,9979,0.263306,-0.984497,0.011475,502
29137716,10019,0.264526,-0.984985,0.011108,505
29147702,9986,0.263306,-0.986328,0.010498,508
29157706,10004,0.263794,-0.986084,0.010498,510
29167701,9995,0.263428,-0.984741,0.008423,509
29177701,10000,0.262451,-0.985596,0.008179,503
29187723,10022,0.261719,-0.984619,0.007446,508
29197709,9986,0.260986,-0.984619,0.008301,495
29207704,9995,0.261353,-0.984741,0.008423,495
29217710,10006,0.260620,-0.984985,0.008423,488
29227699,9989,0.260010,-0.987671,0.010132,484
29237724,10025,0.260132,-0.989014,0.010010,486
29247713,9989,0.258423,-0.987915,0.009521,482
29257699,9986,0.257080,-0.987305,0.010742,477
29267706,10007,0.257568,-0.986694,0.010986,471
29277718,10012,0.257324,-0.987061,0.009766,473
29287714,9996,0.257813,-0.986084,0.009766,470
29297700,9986,0.259277,-0.984863,0.008911,470
29307711,10011,0.260254,-0.985962,0.007690,468
29317699,9988,0.259888,-0.984985,0.006226,467
29327728,10029,0.260498,-0.985596,0.004028,468
29337713,9985,0.261719,-0.986938,0.003052,465
29347712,9999,0.261963,-0.987427,0.004639,462
29357737,10025,0.262451,-0.988892,0.006714,466
29367710,9973,0.262939,-0.988770,0.008911,455
29377716,10006,0.264893,-0.988159,0.008179,472
29387712,9996,0.262085,-0.987915,0.008423,473
29397724,10012,0.261108,-0.989258,0.007568,481
29407722,9998,0.260742,-0.988525,0.008911,489
29417708,9986,0.259888,-0.988281,0.010254,495
29427706,9998,0.259033,-0.988281,0.010132,514
29437701,9995,0.258423,-0.988403,0.010376,526
29447695,9994,0.257690,-0.987671,0.008179,554
29457717,10022,0.256958,-0.985229,0.008911,574
29467696,9979,0.256836,-0.984497,0.008911,592
29477709,10013,0.257080,-0.984863,0.010376,606
29487700,9991,0.258179,-0.984375,0.010376,624
29497698,9998,0.258911,-0.984741,0.011841,642
29507718,10020,0.258789,-0.983887,0.013306,643
29517713,9995,0.260376,-0.984985,0.011963,649
29527709,9996,0.260376,-0.984253,0.012085,647
29537723,10014,0.260254,-0.984131,0.011597,640
29547697,9974,0.259521,-0.984375,0.011108,624
29557705,10008,0.258911,-0.984985,0.008545,615
29567704,9999,0.258301,-0.985718,0.007935,598
29577710,10006,0.258301,-0.987793,0.007324,581
29587735,10025,0.257813,-0.987549,0.005737,558
29597715,9980,0.257935,-0.986084,0.007690,544
29607713,9998,0.258179,-0.987915,0.008545,525
29617709,9996,0.258179,-0.987183,0.008789,512
29627707,9998,0.258789,-0.988281,0.009155,494
29637721,10014,0.258911,-0.986816,0.009033,488
29647702,9981,0.257080,-0.988770,0.008789,478
29657699,9997,0.258057,-0.989258,0.009521,471
29667721,10022,0.258179,-0.990234,0.008057,468
29677696,9975,0.257568,-0.990356,0.006958,458
29687724,10028,0.256348,-0.989990,0.006714,462
29697711,9987,0.255737,-0.989502,0.007324,466
29707724,10013,0.255981,-0.988647,0.006714,468
29717707,9983,0.255615,-0.988159,0.006836,472
29727709,10002,0.256836,-0.988525,0.008667,475
29737722,10013,0.256348,-0.988525,0.008667,480
29747706,9984,0.257568,-0.989014,0.009888,480
29757702,9996,0.257813,-0.989624,0.010376,492
29767704,10002,0.258545,-0.989136,0.010620,496
29777705,10001,0.259399,-0.985718,0.012085,499
29787709,10004,0.259155,-0.985352,0.011353,504
29797695,9986,0.261719,-0.984009,0.011475,501
29807711,10016,0.262085,-0.984253,0.009399,509
29817702,9991,0.261353,-0.982300,0.009399,501
29827724,10022,0.262573,-0.982178,0.008179,496
29837709,9985,0.263062,-0.982788,0.008057,498
29847711,10002,0.261597,-0.983765,0.008423,497
29857724,10013,0.261719,-0.983643,0.009644,495
29867716,9992,0.261597,-0.984131,0.010376,495
29877707,9991,0.259766,-0.985474,0.011719,486
29887724,10017,0.257690,-0.987549,0.011841,480
29897709,9985,0.255981,-0.987061,0.012451,482
29907704,9995,0.255249,-0.987061,0.011719,479
29917695,9991,0.254517,-0.987061,0.010986,474
29927716,10021,0.255005,-0.987793,0.011108,470
29937724,10008,0.254761,-0.989136,0.009888,465
29947720,9996,0.257080,-0.990967,0.009521,467
29957699,9979,0.256836,-0.991699,0.010132,467
29967715,10016,0.258301,-0.991089,0.010864,462
29977721,10006,0.259277,-0.991577,0.011108,462
29987697,9976,0.258301,-0.988892,0.010864,467
29997709,10012,0.257813,-0.986572,0.010986,460
30007707,9998,0.258423,-0.986816,0.011108,466
30017711,10004,0.258667,-0.984863,0.012817,466
30027697,9986,0.259644,-0.985962,0.013550,467
30037705,10008,0.259766,-0.984497,0.013672,467
30047706,10001,0.259277,-0.984863,0.011475,468
30057709,10003,0.257202,-0.985840,0.010254,477
30067710,10001,0.255615,-0.987671,0.011230,483
30077699,9989,0.255249,-0.987671,0.011963,491
30087697,9998,0.255737,-0.989502,0.011230,504
30097710,10013,0.255371,-0.988892,0.010742,522
30107714,10004,0.258057,-0.988525,0.008301,544
30117714,10000,0.259277,-0.987915,0.006958,565
30127698,9984,0.259766,-0.985474,0.006836,580
30137723,10025,0.260376,-0.983276,0.006470,605
30147703,9980,0.262329,-0.981689,0.007690,621
30157705,10002,0.264160,-0.981567,0.008667,631
30167741,10036,0.263550,-0.981567,0.009521,637
30177712,9971,0.263428,-0.981812,0.009399,640
30187706,9994,0.262451,-0.981812,0.010742,637
30197703,9997,0.263550,-0.984619,0.013062,623
30207704,10001,0.262329,-0.985352,0.012939,619
30217700,9996,0.260498,-0.988647,0.013794,605
30227701,10001,0.260620,-0.989380,0.013062,586
30237711,10010,0.260254,-0.988892,0.011475,556
30247707,9996,0.259399,-0.988159,0.010742,553
30257696,9989,0.259033,-0.987061,0.009399,538
30267703,10007,0.259766,-0.985229,0.007690,517
30277721,10018,0.259033,-0.985352,0.007690,504
30287714,9993,0.258301,-0.985596,0.006958,492
30297714,10000,0.257690,-0.985840,0.007813,480
30307712,9998,0.258057,-0.986694,0.007202,469
30317722,10010,0.256226,-0.987183,0.009766,460
30327709,9987,0.255981,-0.989014,0.011230,458
30337700,9991,0.255615,-0.989136,0.012085,452
30347704,10004,0.255249,-0.989502,0.013184,453
30357697,9993,0.254517,-0.988525,0.013184,455
30367703,10006,0.255005,-0.988037,0.013550,452
30377714,10011,0.255493,-0.986206,0.012817,462
30387698,9984,0.256104,-0.987183,0.011597,462
30397715,10017,0.257446,-0.986938,0.011353,473
30407714,9999,0.257446,-0.987305,0.011230,477
30417722,10008,0.258423,-0.987427,0.009033,482
30427723,10001,0.258545,-0.987183,0.008423,489
30437716,9993,0.260254,-0.987915,0.010620,494
30447698,9982,0.259644,-0.986450,0.010498,494
30457707,10009,0.260132,-0.986816,0.012451,499
30467704,9997,0.260498,-0.987793,0.014160,503
30477710,10006,0.259155,-0.985718,0.014038,497
30487697,9987,0.259766,-0.984619,0.014160,502
30497698,10001,0.261108,-0.984741,0.013794,501
30507703,10005,0.259888,-0.984497,0.011841,495
30517709,10006,0.259033,-0.984375,0.010742,492
30527695,9986,0.258545,-0.984009,0.007935,487
30537714,10019,0.259155,-0.984619,0.007202,498
30547713,9999,0.258667,-0.984619,0.006348,484
30557700,9987,0.257568,-0.985107,0.006836,477
30567712,10012,0.257202,-0.986084,0.007690,474
30577697,9985,0.256592,-0.985840,0.008179,471
30587719,10022,0.256104,-0.987305,0.009521,461
30597723,10004,0.256470,-0.988525,0.011475,464
30607705,9982,0.257568,-0.989502,0.013672,463
30617699,9994,0.256836,-0.989136,0.012939,461
30627698,9999,0.258057,-0.988770,0.013672,458
30637714,10016,0.258057,-0.989502,0.012451,460
30647696,9982,0.258179,-0.989624,0.012573,460
30657720,10024,0.258301,-0.987427,0.008667,460
30667713,9993,0.259155,-0.987427,0.009033,459
30677711,9998,0.260254,-0.985229,0.008301,458
30687705,9994,0.260742,-0.986572,0.009521,462
30697708,10003,0.261719,-0.987427,0.011353,464
30707697,9989,0.263306,-0.987183,0.010986,467
30717738,10041,0.261230,-0.985474,0.010498,465
30727720,9982,0.259888,-0.987061,0.010986,471
30737704,9984,0.258911,-0.989380,0.011597,483
30747712,10008,0.258301,-0.988892,0.012207,494
30757707,9995,0.256714,-0.989380,0.011841,506
30767698,9991,0.254883,-0.988892,0.010986,521
30777718,10020,0.254761,-0.986328,0.009155,539
30787716,9998,0.254517,-0.986572,0.008545,561
30797702,9986,0.254883,-0.985107,0.007080,576
30807698,9996,0.255371,-0.984375,0.007446,588
30817723,10025,0.258301,-0.985718,0.008545,609
30827717,9994,0.258057,-0.986572,0.009155,621
30837700,9983,0.260132,-0.986450,0.010620,619
30847724,10024,0.260376,-0.987061,0.010498,627
30858020,10296,0.261841,-0.986938,0.011230,625
30869591,11571,0.262207,-0.984375,0.012207,615
30877700,8109,0.262573,-0.983643,0.012573,608
30887704,10004,0.262329,-0.984131,0.013306,595
30897719,10015,0.263550,-0.984253,0.012817,579
30907723,10004,0.263184,-0.984375,0.012207,556
30917716,9993,0.262695,-0.984497,0.011841,543
30927707,9991,0.260620,-0.985352,0.010010,527
30937701,9994,0.260498,-0.986328,0.009277,513
30947705,10004,0.259399,-0.986572,0.009644,496
30957712,10007,0.259033,-0.986694,0.009399,483
30967696,9984,0.258789,-0.987793,0.007935,477
30977698,10002,0.256104,-0.989136,0.008545,460
30987704,10006,0.255615,-0.991577,0.010742,454
30997737,10033,0.255249,-0.992065,0.010010,451
31007712,9975,0.255005,-0.992554,0.010864,444
31017709,9997,0.254272,-0.991455,0.010742,447
31027704,9995,0.254883,-0.988892,0.011475,448
31037705,10001,0.255737,-0.989014,0.013794,455
31047713,10008,0.255737,-0.987183,0.015137,458
31057708,9995,0.255981,-0.986572,0.013916,466
31067723,10015,0.255859,-0.985352,0.013916,471
31077710,9987,0.257080,-0.984253,0.013672,476
31087702,9992,0.257446,-0.984741,0.012207,481
31097712,10010,0.257935,-0.984619,0.012451,486
31107711,9999,0.257568,-0.984985,0.012329,488
31117720,10009,0.256958,-0.985718,0.013428,494
31127712,9992,0.257446,-0.986206,0.014160,497
31137695,9983,0.257202,-0.986816,0.015015,498
31147704,10009,0.257446,-0.988770,0.015137,499
31157708,10004,0.257813,-0.989014,0.013062,493
31167710,10002,0.258423,-0.989014,0.013672,496
31177708,9998,0.260010,-0.989136,0.012573,487
31187721,10013,0.259644,-0.989014,0.011475,484
31197712,9991,0.260864,-0.988770,0.010986,485
31207697,9985,0.261230,-0.986206,0.009277,479
31217710,10013,0.260864,-0.986450,0.010498,477
31227732,10022,0.260254,-0.984985,0.011963,473
31237710,9978,0.261230,-0.984741,0.012695,470
31247714,10004,0.260498,-0.984131,0.014526,465
31257709,9995,0.259277,-0.985229,0.015991,468
31267730,10021,0.259888,-0.985229,0.015869,464
31277695,9965,0.259766,-0.986084,0.015015,459
31287724,10029,0.259399,-0.985962,0.015137,462
31297703,9979,0.259644,-0.987305,0.013184,463
31307699,9996,0.260376,-0.988403,0.012085,464
31317698,9999,0.260254,-0.988403,0.010498,463
31327703,10005,0.259521,-0.987183,0.009644,464
31337712,10009,0.259155,-0.987183,0.009399,458
31347714,10002,0.259277,-0.985840,0.012573,467
31357705,9991,0.260498,-0.985718,0.014526,464
31367719,10014,0.262329,-0.985718,0.015381,466
31377700,9981,0.260864,-0.984741,0.015625,461
31387718,10018,0.260376,-0.983887,0.015137,471
31397715,9997,0.259766,-0.984741,0.014160,470
31407704,9989,0.259155,-0.987061,0.014160,476
31417710,10006,0.258789,-0.987671,0.014038,487
31427705,9995,0.258545,-0.989624,0.012207,505
31437707,10002,0.258545,-0.988647,0.011230,520
31447723,10016,0.258789,-0.988037,0.011230,533
31457724,10001,0.258179,-0.986206,0.010132,552
31467696,9972,0.260132,-0.985107,0.011719,572
31477705,10009,0.262817,-0.983398,0.013306,589
31487714,10009,0.264404,-0.982910,0.013306,603
31497715,10001,0.265015,-0.981812,0.014893,614
31507708,9993,0.265625,-0.982056,0.014282,611
31517702,9994,0.266846,-0.981812,0.014771,616
31527730,10028,0.265625,-0.982666,0.014404,614
31537713,9983,0.264404,-0.982910,0.014282,600
31547705,9992,0.265259,-0.983887,0.015137,592
31557714,10009,0.264160,-0.984375,0.014893,578
31567706,9992,0.263184,-0.985596,0.014526,565
31577719,10013,0.262451,-0.986816,0.014648,547
31587713,9994,0.261841,-0.987549,0.012939,529
31597696,9983,0.260986,-0.987427,0.012207,505
31607707,10011,0.260498,-0.986572,0.011597,499
31617722,10015,0.259277,-0.986694,0.011353,486
31627717,9995,0.259644,-0.987183,0.011353,476
31637698,9981,0.259644,-0.988281,0.010986,462
31647711,10013,0.258545,-0.989136,0.011108,458
31657713,10002,0.257813,-0.988892,0.012695,448
31667724,10011,0.258301,-0.989624,0.013062,453
31677718,9994,0.260010,-0.988770,0.013550,452
31687709,9991,0.259399,-0.988525,0.013428,451
31697717,10008,0.261963,-0.985718,0.014404,456
31707717,10000,0.262695,-0.986328,0.015137,462
31717710,9993,0.262573,-0.985962,0.014893,467
31727703,9993,0.263794,-0.984619,0.014404,471
31737732,10029,0.265259,-0.983643,0.014160,480
31747735,10003,0.265869,-0.983643,0.013916,488
31757724,9989,0.264893,-0.982666,0.012695,492
31767710,9986,0.264526,-0.983032,0.012207,492
31777714,10004,0.264648,-0.982788,0.013184,501
31787711,9997,0.264648,-0.984497,0.012329,503
31797702,9991,0.264893,-0.984985,0.013428,503
31807697,9995,0.263916,-0.986206,0.015259,502
31817701,10004,0.263306,-0.985962,0.016357,505
31827707,10006,0.263550,-0.985840,0.015991,503
31837718,10011,0.262695,-0.986572,0.015259,503
31847696,9978,0.263428,-0.986206,0.015381,496
31857716,10020,0.262451,-0.984009,0.014526,495
31867713,9997,0.263672,-0.983398,0.011841,493
31877695,9982,0.264038,-0.983887,0.009399,487
31887699,10004,0.262573,-0.983643,0.010254,484
31897723,10024,0.262939,-0.983521,0.011108,479
31907703,9980,0.263550,-0.982788,0.010498,475
31917719,10016,0.264282,-0.984863,0.011963,470
31927696,9977,0.264282,-0.986816,0.013672,467
31937706,10010,0.264526,-0.987549,0.014771,460
31947723,10017,0.265869,-0.989014,0.016235,463
31957716,9993,0.264893,-0.987793,0.017578,464
31967709,9993,0.264893,-0.985596,0.016846,464
31977712,10003,0.264160,-0.983398,0.016235,464
31987712,10000,0.265015,-0.983765,0.016235,461
31997695,9983,0.266479,-0.984497,0.016846,467
32007733,10038,0.267212,-0.984741,0.015625,468
32017710,9977,0.267944,-0.985229,0.014526,463
32027718,10008,0.265869,-0.984131,0.013306,470
32037715,9997,0.266235,-0.984741,0.014282,462
32047699,9984,0.263184,-0.987183,0.013794,476
32057703,10004,0.263794,-0.989014,0.016602,486
32067720,10017,0.262573,-0.988892,0.016357,495
32077705,9985,0.260864,-0.988892,0.017334,508
32087714,10009,0.260498,-0.988037,0.015381,523
32097700,9986,0.260986,-0.985474,0.014648,540
32107697,9997,0.261230,-0.984741,0.013916,557
32117711,10014,0.264038,-0.982544,0.013184,574
32127698,9987,0.264160,-0.982178,0.013062,588
32137725,10027,0.267212,-0.981201,0.013062,595
32147716,9991,0.268311,-0.981812,0.013550,606
32157697,9981,0.269409,-0.981201,0.014893,606
32167703,10006,0.270386,-0.980713,0.016235,607
32177715,10012,0.270020,-0.979614,0.017578,599
32187696,9981,0.270996,-0.980713,0.019653,594
32197702,10006,0.271606,-0.980835,0.020264,584
32207705,10003,0.271240,-0.980713,0.018433,573
32217699,9994,0.271606,-0.980103,0.017578,558
32227708,10009,0.269531,-0.979492,0.016235,541
32237700,9992,0.269897,-0.981445,0.015747,529
32247712,10012,0.267944,-0.982300,0.015137,511
32257713,10001,0.265869,-0.983521,0.013306,499
32267746,10033,0.264771,-0.984985,0.013550,479
32277745,9999,0.262573,-0.986450,0.013794,476
32287736,9991,0.261353,-0.987549,0.016357,463
32297717,9981,0.261475,-0.989014,0.016357,455
32307707,9990,0.258545,-0.989990,0.018188,456
32317698,9991,0.259033,-0.989014,0.018555,451
32327721,10023,0.260498,-0.988892,0.018555,455
32337741,10020,0.260620,-0.987915,0.017090,458
32347736,9995,0.261353,-0.985962,0.017090,459
32357725,9989,0.264893,-0.984497,0.015137,463
32367711,9986,0.265747,-0.983887,0.013916,463
32377719,10008,0.265991,-0.984375,0.014282,474
32387711,9992,0.267456,-0.983887,0.014282,476
32397724,10013,0.268188,-0.983154,0.016113,484
32407698,9974,0.267822,-0.983032,0.016602,486
32417695,9997,0.266968,-0.982544,0.017334,488
32427710,10015,0.267822,-0.983276,0.018433,489
32437705,9995,0.266479,-0.982788,0.018555,496
32447696,9991,0.265259,-0.983398,0.016846,485
32457721,10025,0.264404,-0.983032,0.015869,496
32467724,10003,0.264038,-0.984009,0.015015,490
32477711,9987,0.263306,-0.984619,0.014160,494
32487705,9994,0.263306,-0.985107,0.012085,491
32497700,9995,0.262573,-0.984741,0.010986,487
32507697,9997,0.262207,-0.986328,0.012207,479
32517699,10002,0.262085,-0.987793,0.013794,482
32527713,10014,0.261597,-0.987183,0.014526,471
32537713,10000,0.261841,-0.989014,0.014404,472
32547720,10007,0.262085,-0.987305,0.014038,465
32557723,10003,0.262207,-0.987427,0.014771,466
32567709,9986,0.263184,-0.987061,0.014648,466
32577707,9998,0.264526,-0.985840,0.014282,465
32587695,9988,0.263550,-0.984741,0.013306,463
32597724,10029,0.265015,-0.982666,0.014526,462
32607704,9980,0.265259,-0.982300,0.013062,458
32617703,9999,0.265503,-0.983032,0.013916,461
32627708,10005,0.265259,-0.982056,0.014526,464
32637703,9995,0.266235,-0.983276,0.014038,462
32647707,10004,0.265869,-0.983276,0.014160,463
32657708,10001,0.263916,-0.983887,0.013672,465
32667712,10004,0.262939,-0.985596,0.012451,470
32677723,10011,0.262451,-0.987183,0.011230,469
32687705,9982,0.259521,-0.988892,0.011841,478
32697701,9996,0.257202,-0.989502,0.010254,496
32707698,9997,0.258179,-0.988770,0.009644,508
32717716,10018,0.257324,-0.989258,0.008179,524
32727714,9998,0.257568,-0.989014,0.007324,541
32737716,10002,0.257568,-0.987915,0.007324,557
32747707,9991,0.260254,-0.987061,0.009155,570
32757719,10012,0.261963,-0.985962,0.011353,581
32767699,9980,0.262695,-0.984741,0.012207,593
32777714,10015,0.263794,-0.984619,0.012329,600
32787722,10008,0.264160,-0.983276,0.013184,599
32797695,9973,0.264893,-0.981689,0.013306,593
32807716,10021,0.265625,-0.981567,0.012695,593
32817719,10003,0.266846,-0.982178,0.012451,580
32827708,9989,0.266479,-0.983887,0.010864,569
32837719,10011,0.265869,-0.984619,0.009521,561
32847700,9981,0.265625,-0.985229,0.007935,545
32857699,9999,0.263550,-0.986938,0.007080,537
32867739,10040,0.262085,-0.987427,0.008179,522
32877715,9976,0.261230,-0.986328,0.008301,508
32887718,10003,0.260620,-0.986572,0.008423,494
32897716,9998,0.257935,-0.986328,0.009888,482
32907719,10003,0.257324,-0.985718,0.010010,471
32917703,9984,0.256226,-0.986572,0.011597,467
32927731,10028,0.256836,-0.988281,0.011230,462
32937721,9990,0.255615,-0.987793,0.010620,454
32947720,9999,0.256958,-0.988403,0.009033,454
32957709,9989,0.258545,-0.989624,0.008789,453
32967706,9997,0.257080,-0.988281,0.008301,453
32977705,9999,0.256958,-0.987183,0.007202,455
32987700,9995,0.257446,-0.989380,0.007690,455
32997695,9995,0.258057,-0.989136,0.007446,466
33007719,10024,0.257324,-0.988892,0.006592,471
33017714,9995,0.258545,-0.987549,0.008301,474
33027703,9989,0.258911,-0.986328,0.008789,484
33037709,10006,0.259644,-0.987671,0.009277,485
33047711,10002,0.260620,-0.985962,0.010498,490
33057699,9988,0.260498,-0.986084,0.010864,488
33067706,10007,0.260498,-0.985474,0.011719,492
33077696,9990,0.260864,-0.985229,0.010864,496
33087723,10027,0.261963,-0.985229,0.010376,499
33097720,9997,0.261597,-0.987183,0.010132,492
33107700,9980,0.261108,-0.985229,0.009277,498
33117706,10006,0.260986,-0.985229,0.008667,495
33127702,9996,0.260742,-0.985840,0.006592,487
33137713,10011,0.259766,-0.985596,0.006470,489
33147696,9983,0.258545,-0.984497,0.006714,487
33157697,10001,0.258179,-0.984985,0.006470,483
33167723,10026,0.258057,-0.986084,0.007813,474
33177706,9983,0.257324,-0.986816,0.007446,472
33187714,10008,0.259399,-0.989258,0.008301,474
33197707,9993,0.258179,-0.989502,0.008423,465
33207730,10023,0.257935,-0.989502,0.009888,467
33217724,9994,0.257813,-0.988647,0.008545,464
33227722,9998,0.257080,-0.988525,0.009888,464
33237709,9987,0.256836,-0.986328,0.010254,455
33247713,10004,0.259399,-0.986938,0.010376,457
33257703,9990,0.260864,-0.986084,0.011475,460
33267700,9997,0.260376,-0.985962,0.009155,462
33277714,10014,0.259644,-0.985840,0.008057,465
33287711,9997,0.259277,-0.987549,0.006104,465
33297711,10000,0.257690,-0.989380,0.007813,469
33307695,9984,0.257080,-0.991089,0.008667,481
33317711,10016,0.256592,-0.990967,0.009766,496
33327703,9992,0.255493,-0.990234,0.009888,505
33337713,10010,0.254761,-0.988892,0.009277,512
33347717,10004,0.255493,-0.985352,0.008057,545
33357722,10005,0.257935,-0.983765,0.007568,561
33367697,9975,0.258789,-0.982788,0.009155,572
33377698,10001,0.259644,-0.982788,0.007446,589
33387721,10023,0.261963,-0.983032,0.007690,597
33397708,9987,0.262329,-0.983398,0.007202,599
33407698,9990,0.262085,-0.984863,0.007080,599
33417699,10001,0.261963,-0.985352,0.008301,599
33427697,9998,0.262329,-0.986450,0.008911,597
33437708,10011,0.262329,-0.986450,0.009155,577
33447713,10005,0.261353,-0.986572,0.010376,570
33457697,9984,0.261475,-0.987183,0.010986,556
33467700,10003,0.259766,-0.987793,0.010376,545
33477715,10015,0.259521,-0.987671,0.010376,534
33487700,9985,0.259521,-0.987183,0.009521,516
33497701,10001,0.259644,-0.986084,0.009644,506
33507717,10016,0.258789,-0.986084,0.007080,490
33517737,10020,0.257324,-0.985962,0.007080,484
33527707,9970,0.257446,-0.985962,0.008179,475
33537722,10015,0.256348,-0.987305,0.008057,463
33547710,9988,0.256592,-0.988403,0.007568,462
33557699,9989,0.256104,-0.986938,0.008179,458
33567715,10016,0.255615,-0.988037,0.010132,455
33577707,9992,0.255615,-0.988647,0.010986,452
33587720,10013,0.256592,-0.988892,0.011475,456
33597716,9996,0.255737,-0.988403,0.011108,461
33607701,9985,0.258057,-0.987305,0.011719,465
33617696,9995,0.257202,-0.987183,0.010742,471
33627718,10022,0.258545,-0.985474,0.009888,473
33637722,10004,0.259277,-0.984985,0.009033,479
33647715,9993,0.259033,-0.984863,0.009521,485
33657699,9984,0.259277,-0.985107,0.010864,489
33667724,10025,0.259399,-0.985229,0.010620,491
33677712,9988,0.258911,-0.987061,0.011475,493
33687711,9999,0.259521,-0.986084,0.012817,493
33697700,9989,0.260010,-0.987305,0.012695,497
33707722,10022,0.259277,-0.986694,0.012451,480
33717710,9988,0.259399,-0.985840,0.012207,499
33727695,9985,0.258545,-0.985229,0.010376,494
33737713,10018,0.259155,-0.985107,0.008545,487
33747706,9993,0.258057,-0.986694,0.008057,488
33757700,9994,0.257202,-0.986328,0.007202,482
33767723,10023,0.256836,-0.988892,0.007690,477
33777714,9991,0.256836,-0.989014,0.006958,475
33787713,9999,0.256958,-0.989868,0.007690,477
33797715,10002,0.257568,-0.989502,0.010620,473
33807701,9986,0.258179,-0.987793,0.010254,471
33817720,10019,0.258545,-0.987793,0.013428,467
33827709,9989,0.259766,-0.985474,0.013184,470
33837738,10029,0.258911,-0.984863,0.011353,467
33847717,9979,0.259644,-0.982666,0.012329,465
33857717,10000,0.260742,-0.983521,0.012207,461
33867708,9991,0.262207,-0.984131,0.011963,469
33877719,10011,0.262329,-0.984741,0.010864,466
33887713,9994,0.262329,-0.984985,0.009888,464
33897718,10005,0.261353,-0.985229,0.008179,470
33907723,10005,0.258545,-0.989014,0.009521,469
33917711,9988,0.257690,-0.989624,0.010620,478
33927710,9999,0.256348,-0.990112,0.010742,492
33937706,9996,0.254639,-0.989990,0.011230,499
33947697,9991,0.255005,-0.989868,0.010254,518
33957715,10018,0.253906,-0.989014,0.007935,532
33967698,9983,0.254150,-0.987183,0.008301,552
33977704,10006,0.256348,-0.985962,0.007568,571
33987706,10002,0.258423,-0.984985,0.009277,575
33997706,10000,0.259399,-0.985718,0.010010,597
34007706,10000,0.261353,-0.986084,0.009521,605
34017714,10008,0.262085,-0.984009,0.009521,607
34027718,10004,0.262085,-0.982788,0.010620,610
34037701,9983,0.261963,-0.983032,0.011597,608
34047718,10017,0.261841,-0.983887,0.013062,601
34057724,10006,0.261719,-0.984497,0.012329,592
34067735,10011,0.261230,-0.985474,0.010986,581
34077734,9999,0.260132,-0.986572,0.010620,567
34087716,9982,0.259399,-0.987671,0.009521,556
34097709,9993,0.259277,-0.988159,0.008789,538
34107718,10009,0.258423,-0.988159,0.009521,526
34117708,9990,0.258301,-0.987183,0.009155,509
34127702,9994,0.257202,-0.984985,0.008179,510
34137737,10035,0.257080,-0.985718,0.009888,486
34147715,9978,0.256958,-0.986572,0.011353,478
34157722,10007,0.257080,-0.987793,0.010986,471
34167703,9981,0.256714,-0.988647,0.010254,463
34177705,10002,0.255981,-0.987061,0.010010,462
34187695,9990,0.256104,-0.985474,0.010132,460
34197717,10022,0.255005,-0.986694,0.010010,459
34207718,10001,0.255615,-0.987183,0.010132,459
34217695,9977,0.256958,-0.988159,0.009766,468
34227717,10022,0.256104,-0.987183,0.009277,472
34237724,10007,0.258423,-0.988892,0.010864,472
34247711,9987,0.257568,-0.989502,0.010010,483
34257721,10010,0.258179,-0.989502,0.010132,482
34267705,9984,0.258301,-0.988770,0.010864,489
34277724,10019,0.256836,-0.987549,0.011963,490
34287703,9979,0.257202,-0.985229,0.011597,501
34297710,10007,0.257568,-0.985596,0.011719,503
34307720,10010,0.257446,-0.986206,0.011108,505
34317711,9991,0.257324,-0.986328,0.010864,505
34327699,9988,0.257935,-0.985596,0.012573,497
34337710,10011,0.258179,-0.987427,0.011475,503
34347695,9985,0.257202,-0.986084,0.011475,499
34357703,10008,0.258423,-0.985596,0.010986,499
34367724,10021,0.257324,-0.985474,0.009399,489
34377722,9998,0.257324,-0.985596,0.010254,495
34387718,9996,0.257568,-0.984741,0.008545,488
34397696,9978,0.257813,-0.984985,0.006714,486
34407705,10009,0.259277,-0.986328,0.006226,483
34417705,10000,0.258667,-0.988770,0.007202,474
34427712,10007,0.258911,-0.988770,0.007202,478
34437709,9997,0.259644,-0.989380,0.010132,471
34447695,9986,0.259277,-0.989380,0.011597,474
34457717,10022,0.259521,-0.987915,0.013306,473
34467699,9982,0.259644,-0.986816,0.013428,470
34477720,10021,0.258911,-0.985596,0.013672,472
34487697,9977,0.259888,-0.986450,0.014526,467
34497711,10014,0.260254,-0.986084,0.013916,472
34507710,9999,0.261841,-0.984253,0.010864,472
34517715,10005,0.260010,-0.984131,0.008667,474
34527701,9986,0.258423,-0.985840,0.005615,477
34537721,10020,0.257568,-0.988281,0.006348,480
34547696,9975,0.256348,-0.989380,0.006592,490
34557696,10000,0.255737,-0.989990,0.008545,502
34567698,10002,0.254028,-0.990234,0.009277,513
34577725,10027,0.253174,-0.990112,0.009888,528
34587710,9985,0.253418,-0.988525,0.009521,539
34597712,10002,0.253784,-0.986328,0.011353,561
34607722,10010,0.254883,-0.986084,0.011841,576
34617710,9988,0.256714,-0.985596,0.011841,589
34627716,10006,0.259766,-0.983887,0.013306,595
34637717,10001,0.261108,-0.984619,0.011353,601
34647712,9995,0.261108,-0.984741,0.010986,604
34657719,10007,0.262573,-0.982666,0.010986,598
34667700,9981,0.262817,-0.984497,0.010010,594
34677702,10002,0.263184,-0.983643,0.012573,581
34687719,10017,0.262695,-0.983765,0.011597,574
34697695,9976,0.260498,-0.984985,0.009644,555
34707709,10014,0.260132,-0.985840,0.009644,545
34717699,9990,0.260376,-0.986938,0.010132,533
34727704,10005,0.260132,-0.987793,0.010742,520
34737731,10027,0.258545,-0.987305,0.010864,506
34747701,9970,0.257324,-0.988037,0.010498,488
34757716,10015,0.257446,-0.988281,0.008789,489
34767719,10003,0.255737,-0.988892,0.009399,478
34777707,9988,0.255737,-0.988770,0.009766,473
34787706,9999,0.254639,-0.989746,0.010132,468
34797697,9991,0.254395,-0.990112,0.011230,463
34807706,10009,0.252930,-0.989746,0.010132,466
34817706,10000,0.253540,-0.989624,0.010498,461
34827698,9992,0.253784,-0.989502,0.012207,464
34837703,10005,0.254150,-0.988159,0.011353,470
34847702,9999,0.254639,-0.987549,0.011719,466
34857696,9994,0.256226,-0.987671,0.012207,479
34867723,10027,0.256226,-0.986084,0.012695,479
34877708,9985,0.257446,-0.986084,0.013672,488
34887695,9987,0.259277,-0.985840,0.012939,490
34897720,10025,0.260620,-0.984985,0.012817,495
34907710,9990,0.260498,-0.986084,0.012451,498
34917717,10007,0.261230,-0.986450,0.011963,498
34927724,10007,0.262695,-0.985596,0.012939,498
34937699,9975,0.260620,-0.985474,0.011597,497
34947716,10017,0.261230,-0.985474,0.010986,500
34957747,10031,0.260498,-0.985596,0.010498,499
34967739,9992,0.260132,-0.986206,0.010620,494
34977706,9967,0.260010,-0.984985,0.011230,494
34987696,9990,0.259521,-0.984985,0.010376,486
34997721,10025,0.259033,-0.985107,0.010986,487
35007696,9975,0.258057,-0.984741,0.011475,483
35017713,10017,0.257568,-0.984619,0.012451,477
35027740,10027,0.258057,-0.984497,0.012695,475
35037700,9960,0.258179,-0.985962,0.012573,467
35047720,10020,0.258301,-0.988403,0.013306,471
35057710,9990,0.259644,-0.987427,0.013794,466
35067700,9990,0.259399,-0.987671,0.012817,470
35077710,10010,0.260010,-0.986694,0.012085,466
35087713,10003,0.260254,-0.985840,0.011475,461
35097708,9995,0.259155,-0.986206,0.011963,467
35107704,9996,0.259888,-0.985596,0.011597,467
35117712,10008,0.261230,-0.985352,0.012695,467
35127724,10012,0.262085,-0.985474,0.013428,467
35137696,9972,0.261841,-0.985962,0.013062,469
35147706,10010,0.261353,-0.985474,0.013550,470
35157717,10011,0.260010,-0.985840,0.013794,474
35167704,9987,0.260010,-0.988159,0.013062,474
35177719,10015,0.258301,-0.989868,0.013550,487
35187703,9984,0.258301,-0.991455,0.013550,492
35197719,10016,0.256836,-0.990479,0.013184,504
35207700,9981,0.258057,-0.990601,0.011475,521
35217720,10020,0.258179,-0.988770,0.009399,538
35227722,10002,0.260010,-0.985596,0.009521,552
35237715,9993,0.260620,-0.985840,0.010742,566
35247706,9991,0.262573,-0.985229,0.012451,580
35257707,10001,0.263428,-0.984009,0.014648,588
35267721,10014,0.265137,-0.984131,0.014160,586
35277705,9984,0.265137,-0.982300,0.014282,592
35287724,10019,0.265015,-0.980835,0.014893,584
35297723,9999,0.266968,-0.980591,0.015381,584
35307721,9998,0.266235,-0.981201,0.015625,574
35317727,10006,0.266724,-0.981567,0.015137,561
35327725,9998,0.266357,-0.983032,0.013184,554
35337714,9989,0.266846,-0.984863,0.010986,539
35347724,10010,0.266357,-0.985474,0.009888,530
35357715,9991,0.264771,-0.985107,0.009888,518
35367718,10003,0.265137,-0.985474,0.008667,508
35377719,10001,0.263550,-0.985474,0.009888,493
35387702,9983,0.262817,-0.985596,0.012207,489
35397721,10019,0.260742,-0.986572,0.015015,478
35407721,10000,0.259155,-0.986450,0.015869,470
35417722,10001,0.259277,-0.988159,0.015869,472
35427721,9999,0.257813,-0.988403,0.015747,468
35437717,9996,0.258667,-0.988037,0.015503,461
35447710,9993,0.259399,-0.988403,0.015015,462
35457696,9986,0.259766,-0.988159,0.014282,463
35467700,10004,0.259644,-0.987183,0.013062,470
35477700,10000,0.259277,-0.985718,0.013184,472
35487710,10010,0.261719,-0.986328,0.012573,475
35497710,10000,0.262817,-0.986206,0.011719,478
35507695,9985,0.264282,-0.984741,0.014038,482
35517711,10016,0.263794,-0.984741,0.014771,486
35527698,9987,0.264404,-0.984863,0.014771,489
35537715,10017,0.264160,-0.985474,0.015991,486
35547707,9992,0.265137,-0.985107,0.016357,491
35557747,10040,0.265015,-0.983765,0.017456,488
35567713,9966,0.265503,-0.983032,0.017090,493
35577705,9992,0.265137,-0.982422,0.015869,485
35587722,10017,0.264526,-0.981812,0.015015,492
35597701,9979,0.264771,-0.982422,0.014771,491
35607701,10000,0.265015,-0.982056,0.013062,489
35617720,10019,0.264526,-0.983398,0.010620,485
35627701,9981,0.263794,-0.984497,0.010132,483
35637721,10020,0.263672,-0.985107,0.009399,482
35647697,9976,0.262451,-0.985107,0.009521,476
35657697,10000,0.262085,-0.987305,0.010498,472
35667708,10011,0.260986,-0.988647,0.013428,473
35677721,10013,0.261597,-0.988037,0.014038,472
35687717,9996,0.262085,-0.987305,0.015137,467
35697695,9978,0.262085,-0.986084,0.015625,470
35707703,10008,0.262329,-0.984863,0.014648,471
35717719,10016,0.263306,-0.983887,0.013794,469
35727707,9988,0.264893,-0.983398,0.012573,470
35737703,9996,0.265869,-0.984741,0.012817,472
35747717,10014,0.267700,-0.986084,0.012817,470
35757720,10003,0.267822,-0.986938,0.012329,469
35767720,10000,0.268066,-0.987183,0.011963,467
