t_us,dt_us,ax,ay,az,ppg
14344467,10011,-0.148926,0.593262,0.735718,532
14354474,10007,-0.146973,0.593262,0.738403,529
14364487,10013,-0.146729,0.596680,0.738525,518
14374471,9984,-0.148071,0.600098,0.738159,520
14384458,9987,-0.149658,0.600708,0.739014,510
14394484,10026,-0.148315,0.601440,0.739624,511
14404458,9974,-0.147461,0.601318,0.742310,510
14414457,9999,-0.147583,0.602295,0.743774,506
14424471,10014,-0.147705,0.604004,0.743896,503
14434480,10009,-0.150391,0.610474,0.744751,503
14444485,10005,-0.144165,0.609863,0.737671,501
14454467,9982,-0.137207,0.602783,0.733032,499
14464470,10003,-0.141968,0.604492,0.737061,493
14474476,10006,-0.145874,0.611084,0.742187,497
14484463,9987,-0.149536,0.607788,0.743774,499
14494476,10013,-0.147217,0.603882,0.739136,500
14504482,10006,-0.146118,0.605713,0.735352,503
14514472,9990,-0.143799,0.606323,0.734619,504
14524480,10008,-0.144775,0.608032,0.733032,506
14534469,9989,-0.145142,0.609985,0.732910,502
14544482,10013,-0.149780,0.612915,0.740967,507
14554462,9980,-0.152832,0.613770,0.743896,509
14564483,10021,-0.155396,0.613281,0.746948,511
14574501,10018,-0.158081,0.613892,0.747803,512
14584478,9977,-0.160156,0.611572,0.748413,513
14594481,10003,-0.161377,0.607788,0.748901,509
14604470,9989,-0.160889,0.605713,0.748779,509
14614458,9988,-0.160400,0.605591,0.748413,512
14624466,10008,-0.162231,0.605957,0.749268,505
14634459,9993,-0.162354,0.605957,0.750610,511
14644468,10009,-0.161255,0.606445,0.750488,512
14654481,10013,-0.158569,0.609619,0.746460,510
14664460,9979,-0.154785,0.608765,0.743652,509
14674492,10032,-0.154541,0.612183,0.742798,510
14684470,9978,-0.152466,0.614502,0.741455,508
14694459,9989,-0.151978,0.613647,0.741699,502
14704471,10012,-0.151855,0.610718,0.741455,508
14714485,10014,-0.151367,0.609619,0.741333,503
14724474,9989,-0.151978,0.608643,0.741211,508
14734472,9998,-0.153320,0.609375,0.740845,508
14744472,10000,-0.152100,0.606445,0.740356,507
14754465,9993,-0.151367,0.605957,0.741699,507
14764484,10019,-0.152710,0.608765,0.747314,506
14774483,9999,-0.151001,0.611694,0.750244,507
14784470,9987,-0.149170,0.614380,0.749023,509
14794462,9992,-0.147705,0.615479,0.743652,498
14804474,10012,-0.144775,0.614502,0.737671,503
14814464,9990,-0.143311,0.613037,0.734741,500
14824472,10008,-0.143555,0.614136,0.734741,507
14834473,10001,-0.144531,0.613403,0.737305,508
14844476,10003,-0.144653,0.606812,0.739258,503
14854467,9991,-0.142944,0.602905,0.743164,507
14864477,10010,-0.144653,0.601196,0.741455,509
14874463,9986,-0.147461,0.597778,0.739502,510
14884456,9993,-0.147461,0.598145,0.739258,512
14894476,10020,-0.147705,0.601318,0.737915,518
14904459,9983,-0.147827,0.605225,0.737061,522
14914462,10003,-0.148926,0.605225,0.737427,526
14924472,10010,-0.147339,0.604004,0.734619,529
14934459,9987,-0.145386,0.605957,0.731201,526
14944473,10014,-0.144653,0.605713,0.728760,533
14954457,9984,-0.144165,0.606323,0.729858,529
14964501,10044,-0.144653,0.609619,0.731812,527
14974487,9986,-0.146729,0.607666,0.734009,530
14984471,9984,-0.150269,0.612061,0.743286,525
14994468,9997,-0.152466,0.614014,0.744385,528
15004467,9999,-0.152466,0.614380,0.746704,518
15014468,10001,-0.152588,0.612671,0.746826,515
15024473,10005,-0.152222,0.611084,0.744141,511
15034466,9993,-0.150269,0.612061,0.741333,504
15044456,9990,-0.150146,0.617798,0.743530,499
15054462,10006,-0.151489,0.619019,0.746216,502
15064465,10003,-0.153442,0.620483,0.748657,501
15074473,10008,-0.154053,0.617920,0.747314,496
15084485,10012,-0.152100,0.613892,0.744507,498
15094458,9973,-0.148926,0.607544,0.733765,494
15104478,10020,-0.145630,0.606567,0.731201,499
15114469,9991,-0.147583,0.608276,0.728516,504
15124456,9987,-0.147095,0.609253,0.728638,499
15134506,10050,-0.146973,0.605591,0.731567,501
15144493,9987,-0.149414,0.605103,0.740723,502
15154472,9979,-0.153931,0.610229,0.743286,503
15164472,10000,-0.154663,0.610229,0.743652,503
15174481,10009,-0.154907,0.608032,0.742432,504
15184481,10000,-0.154419,0.607056,0.740356,507
15194463,9982,-0.153931,0.608154,0.736328,512
15204470,10007,-0.149780,0.608521,0.735352,507
15214470,10000,-0.149292,0.611694,0.739868,511
15224484,10014,-0.151733,0.615112,0.743042,513
15234460,9976,-0.153442,0.619629,0.745972,512
15244475,10015,-0.153076,0.617187,0.747192,512
15254475,10000,-0.153687,0.613037,0.746704,514
15264459,9984,-0.149658,0.614136,0.746216,507
15274483,10024,-0.150269,0.615356,0.744629,508
15284484,10001,-0.151123,0.616211,0.744507,512
15294480,9996,-0.150024,0.616333,0.744019,504
15304467,9987,-0.148560,0.612793,0.740356,509
15314472,10005,-0.144897,0.609009,0.734863,507
15324459,9987,-0.145020,0.609253,0.731567,507
15334481,10022,-0.142090,0.609253,0.731934,507
15344476,9995,-0.142822,0.610840,0.732056,508
15354466,9990,-0.142822,0.609497,0.731689,507
15364475,10009,-0.141846,0.608887,0.737061,507
15374471,9996,-0.146240,0.609863,0.738281,505
15384459,9988,-0.145630,0.608398,0.742676,500
15394461,10002,-0.146606,0.609375,0.745972,508
15404488,10027,-0.148437,0.612793,0.747925,503
15414486,9998,-0.149780,0.613770,0.750122,508
15424464,9978,-0.146851,0.608521,0.739868,500
15434473,10009,-0.145264,0.607910,0.732666,507
15444466,9993,-0.143799,0.606567,0.726807,508
15454457,9991,-0.141846,0.608154,0.726929,506
15464474,10017,-0.142090,0.610596,0.727295,505
15474463,9989,-0.141968,0.613159,0.735718,508
15484465,10002,-0.142578,0.613525,0.737793,507
15494456,9991,-0.143799,0.613037,0.738403,506
15504460,10004,-0.146118,0.609497,0.737671,502
15514472,10012,-0.149414,0.608276,0.736450,507
15524482,10010,-0.151245,0.607178,0.738892,516
15534483,10001,-0.154663,0.611816,0.742798,518
15544467,9984,-0.154785,0.613770,0.745361,524
15554470,10003,-0.154053,0.615723,0.744385,527
15564456,9986,-0.151855,0.615234,0.745605,526
15574481,10025,-0.151978,0.614746,0.744141,532
15584478,9997,-0.149414,0.614136,0.737183,531
15594479,10001,-0.145996,0.619141,0.736206,530
15604465,9986,-0.146484,0.619141,0.737061,527
15614479,10014,-0.147583,0.616943,0.739258,523
15624479,10000,-0.147095,0.616089,0.740845,518
15634460,9981,-0.147461,0.615112,0.741333,518
15644477,10017,-0.148071,0.616211,0.743286,517
15654466,9989,-0.148071,0.612793,0.742676,510
15664481,10015,-0.147095,0.609253,0.740845,509
15674458,9977,-0.147705,0.608643,0.739014,503
15684473,10015,-0.146240,0.607056,0.736694,506
15694462,9989,-0.144409,0.605957,0.734741,498
15704505,10043,-0.143433,0.601929,0.732788,502
15714487,9982,-0.143555,0.601929,0.732544,499
15724477,9990,-0.143799,0.604004,0.732666,499
15734482,10005,-0.143066,0.605713,0.733276,494
15744468,9986,-0.141235,0.608154,0.732178,499
15754466,9998,-0.141968,0.613525,0.734375,501
15764457,9991,-0.142456,0.614136,0.736572,500
15774462,10005,-0.144897,0.616211,0.741089,498
15784477,10015,-0.145264,0.618774,0.742187,498
15794483,10006,-0.145020,0.619873,0.742920,501
15804466,9983,-0.145508,0.618164,0.743896,507
15814463,9997,-0.148437,0.619629,0.746094,505
15824499,10036,-0.151489,0.618042,0.745728,511
15834473,9974,-0.153442,0.611572,0.743408,512
15844459,9986,-0.150269,0.606567,0.740234,512
15854482,10023,-0.148682,0.605103,0.735474,514
15864483,10001,-0.149170,0.606812,0.734009,514
15874467,9984,-0.146606,0.606567,0.732788,514
15884461,9994,-0.145386,0.607178,0.734497,512
15894482,10021,-0.147217,0.608887,0.733765,513
15904462,9980,-0.146118,0.607666,0.734497,513
15914458,9996,-0.145752,0.606812,0.734741,512
15924459,10001,-0.144165,0.604248,0.732056,505
15934485,10026,-0.145142,0.606445,0.736694,510
15944464,9979,-0.146484,0.609497,0.738159,503
15954472,10008,-0.145874,0.608765,0.738647,509
15964468,9996,-0.148926,0.609253,0.741699,502
15974463,9995,-0.147705,0.606934,0.743164,504
15984464,10001,-0.148682,0.605957,0.743530,499
15994476,10012,-0.148682,0.606812,0.742798,506
16004476,10000,-0.147827,0.608276,0.740234,507
16014458,9982,-0.146851,0.608765,0.740356,499
16024479,10021,-0.146851,0.608521,0.743164,501
16034479,10000,-0.147461,0.615112,0.745239,505
16044484,10005,-0.148560,0.615967,0.744263,506
16054464,9980,-0.149292,0.613403,0.743164,501
16064478,10014,-0.149170,0.610840,0.739136,503
16074467,9989,-0.147339,0.607422,0.738037,507
16084470,10003,-0.147949,0.609497,0.739136,506
16094463,9993,-0.146851,0.612549,0.744995,508
16104484,10021,-0.149414,0.612915,0.749390,508
16114495,10011,-0.148560,0.610840,0.749756,508
16124465,9970,-0.148315,0.608521,0.746948,509
16134479,10014,-0.148071,0.606934,0.743774,510
16144462,9983,-0.145874,0.610474,0.739014,511
16154461,9999,-0.146973,0.611938,0.739014,519
16164485,10024,-0.148193,0.613403,0.739868,518
16174457,9972,-0.150024,0.613159,0.740112,528
16184459,10002,-0.150391,0.610474,0.739624,529
16194483,10024,-0.150635,0.598877,0.735474,529
16204469,9986,-0.150513,0.597778,0.733398,533
16214458,9989,-0.149292,0.598389,0.734131,528
16224472,10014,-0.149902,0.600708,0.739014,532
16234461,9989,-0.152466,0.599976,0.745483,524
16244474,10013,-0.154907,0.600464,0.750977,523
16254456,9982,-0.153931,0.608398,0.756714,520
16264471,10015,-0.156372,0.612061,0.755005,521
16274459,9988,-0.154053,0.613159,0.752075,514
16284468,10009,-0.150757,0.608887,0.747559,513
16294479,10011,-0.148804,0.605591,0.740967,509
16304483,10004,-0.145630,0.602539,0.738892,501
16314472,9989,-0.147461,0.604858,0.737305,503
16324473,10001,-0.147339,0.605347,0.737915,502
16334477,10004,-0.147461,0.603638,0.739502,498
16344483,10006,-0.146973,0.599976,0.743042,497
16354467,9984,-0.149048,0.601318,0.746338,498
16364481,10014,-0.150879,0.608887,0.751465,495
16374483,10002,-0.150635,0.608398,0.750854,494
16384487,10004,-0.148437,0.606323,0.751221,498
16394466,9979,-0.148804,0.605713,0.747559,495
16404456,9990,-0.148804,0.608887,0.744385,498
16414462,10006,-0.145752,0.610840,0.739258,503
16424458,9996,-0.145630,0.607300,0.737061,503
16434463,10005,-0.146729,0.606934,0.736206,502
16444462,9999,-0.146729,0.605835,0.736938,509
16454471,10009,-0.147583,0.605347,0.738892,512
16464484,10013,-0.149414,0.605591,0.739990,513
16474460,9976,-0.151489,0.604980,0.745483,513
16484480,10020,-0.152832,0.606323,0.749634,511
16494480,10000,-0.156250,0.609131,0.751587,507
16504485,10005,-0.156494,0.607788,0.753784,513
16514482,9997,-0.156616,0.609619,0.753174,508
16524471,9989,-0.155518,0.606689,0.744751,509
16534484,10013,-0.148437,0.602051,0.737061,512
16544509,10025,-0.151489,0.602051,0.730835,510
16554491,9982,-0.148315,0.604248,0.729736,509
16564460,9969,-0.148682,0.602417,0.733398,508
16574462,10002,-0.152832,0.602661,0.737793,505
16584478,10016,-0.156494,0.601562,0.750732,507
16594474,9996,-0.161011,0.600952,0.756958,504
16604464,9990,-0.155396,0.599365,0.748169,505
16614457,9993,-0.153076,0.598145,0.743896,506
16624468,10011,-0.151855,0.601440,0.742920,499
16634482,10014,-0.151367,0.606934,0.747314,500
16644477,9995,-0.151855,0.607788,0.751953,505
16654485,10008,-0.152344,0.607056,0.755005,506
16664458,9973,-0.151733,0.604858,0.756714,501
16674498,10040,-0.152222,0.604736,0.755249,506
16684486,9988,-0.149292,0.606934,0.751099,506
16694481,9995,-0.146973,0.607300,0.743774,507
16704482,10001,-0.146118,0.608032,0.742187,507
16714483,10001,-0.146240,0.612183,0.746338,506
16724467,9984,-0.148926,0.615723,0.750854,507
16734471,10004,-0.149048,0.613770,0.751465,502
16744466,9995,-0.148437,0.604126,0.747559,509
16754466,10000,-0.150757,0.604004,0.745728,510
16764475,10009,-0.152100,0.604980,0.743652,514
16774475,10000,-0.152588,0.602417,0.743042,519
16784484,10009,-0.152954,0.600464,0.740723,520
16794468,9984,-0.151001,0.601196,0.741211,525
16804459,9991,-0.152344,0.603882,0.742798,530
16814471,10012,-0.153076,0.604492,0.744141,532
16824469,9998,-0.151123,0.604980,0.742065,528
16834478,10009,-0.148804,0.605591,0.739868,535
16844507,10029,-0.147217,0.604248,0.737915,532
16854484,9977,-0.149658,0.606812,0.743164,531
16864456,9972,-0.152466,0.608521,0.745605,524
16874473,10017,-0.153198,0.605713,0.748657,521
16884478,10005,-0.153687,0.602539,0.749756,520
16894472,9994,-0.152344,0.603760,0.751099,512
16904483,10011,-0.152222,0.605103,0.748779,513
16914469,9986,-0.149780,0.603638,0.743774,509
16924473,10004,-0.148926,0.601685,0.742187,508
16934475,10002,-0.148315,0.601929,0.742676,503
16944458,9983,-0.147949,0.601685,0.742065,496
16954497,10039,-0.148315,0.604126,0.743896,498
16964485,9988,-0.146729,0.599487,0.741333,496
16974480,9995,-0.143311,0.599243,0.740112,499
16984467,9987,-0.143311,0.602783,0.738403,494
16994479,10012,-0.142334,0.608154,0.737915,500
17004484,10005,-0.143677,0.610352,0.738037,500
17014463,9979,-0.147217,0.607422,0.740601,501
17024464,10001,-0.150635,0.605347,0.742432,502
17034465,10001,-0.151367,0.604004,0.742798,503
17044475,10010,-0.150635,0.603149,0.744873,502
17054468,9993,-0.153198,0.606201,0.749146,505
17064464,9996,-0.156616,0.609253,0.751587,510
17074485,10021,-0.154663,0.611328,0.749146,511
17084475,9990,-0.152588,0.609009,0.744873,506
17094478,10003,-0.153442,0.606812,0.739502,512
17104466,9988,-0.150879,0.606201,0.735840,509
17114464,9998,-0.149170,0.606689,0.734619,511
17124464,10000,-0.148926,0.609375,0.734253,507
17134485,10021,-0.152588,0.607666,0.739990,508
17144468,9983,-0.153809,0.606934,0.745117,512
17154483,10015,-0.155396,0.609253,0.747192,512
17164477,9994,-0.156128,0.607544,0.747314,511
17174475,9998,-0.156860,0.609619,0.750122,510
17184458,9983,-0.154297,0.605591,0.750000,509
17194479,10021,-0.153320,0.606812,0.749023,502
17204480,10001,-0.149658,0.608521,0.744385,509
17214483,10003,-0.146851,0.611450,0.741699,501
17224485,10002,-0.143677,0.614014,0.740723,501
17234469,9984,-0.144653,0.616455,0.740967,503
17244476,10007,-0.143433,0.614990,0.740601,504
17254484,10008,-0.146729,0.611450,0.739624,504
17264466,9982,-0.147705,0.609497,0.739258,506
17274473,10007,-0.147705,0.608276,0.742187,506
17284474,10001,-0.149414,0.610229,0.745605,507
17294458,9984,-0.150757,0.608765,0.747070,500
17304475,10017,-0.147583,0.602783,0.746704,504
17314461,9986,-0.150269,0.601196,0.743042,507
17324458,9997,-0.149536,0.601562,0.740234,505
17334474,10016,-0.148315,0.604492,0.742432,503
17344476,10002,-0.147583,0.608154,0.741821,506
17354470,9994,-0.144775,0.611694,0.743530,499
17364472,10002,-0.143555,0.613159,0.741699,508
17374462,9990,-0.144165,0.611816,0.738892,510
17384457,9995,-0.143799,0.609009,0.735718,510
17394472,10015,-0.144897,0.605591,0.732178,513
17404505,10033,-0.149292,0.603394,0.735962,518
17414482,9977,-0.151611,0.604248,0.739380,516
17424466,9984,-0.154175,0.606323,0.744995,528
17434461,9995,-0.156006,0.609253,0.748169,523
17444474,10013,-0.155762,0.613770,0.751343,532
17454462,9988,-0.154541,0.616211,0.749512,534
17464456,9994,-0.150146,0.609131,0.740234,534
17474480,10024,-0.148804,0.605713,0.737183,532
17484457,9977,-0.147583,0.606567,0.734741,531
17494461,10004,-0.148071,0.608276,0.733643,527
17504484,10023,-0.148560,0.606934,0.733765,525
17514496,10012,-0.148560,0.607788,0.734863,521
17524483,9987,-0.146851,0.608032,0.736328,516
17534469,9986,-0.148560,0.608276,0.739990,512
17544456,9987,-0.149780,0.608521,0.741333,509
17554464,10008,-0.149902,0.608398,0.743530,507
17564476,10012,-0.150024,0.608643,0.744995,502
17574468,9992,-0.151855,0.609741,0.745850,501
17584477,10009,-0.150024,0.609375,0.744019,498
17594481,10004,-0.148804,0.607300,0.743042,499
17604470,9989,-0.145996,0.606323,0.739502,499
17614486,10016,-0.143921,0.604980,0.736206,495
17624480,9994,-0.142944,0.609863,0.734497,493
17634462,9982,-0.143188,0.610596,0.734619,499
17644483,10021,-0.145142,0.606689,0.736572,503
17654485,10002,-0.146851,0.604370,0.738525,503
17664473,9988,-0.148926,0.606445,0.739502,505
17674466,9993,-0.149170,0.610107,0.740967,505
17684496,10030,-0.151733,0.612671,0.744507,506
17694482,9986,-0.153076,0.612793,0.743530,504
17704473,9991,-0.153076,0.611084,0.743530,504
17714471,9998,-0.151489,0.610596,0.742676,511
17724459,9988,-0.151367,0.613281,0.743286,511
17734476,10017,-0.153442,0.617310,0.744873,511
17744479,10003,-0.152588,0.615845,0.746460,513
17754470,9991,-0.153198,0.617554,0.743042,507
17764484,10014,-0.150513,0.617187,0.743408,505
17774463,9979,-0.151123,0.618164,0.743408,510
17784461,9998,-0.150635,0.617432,0.742676,510
17794481,10020,-0.152222,0.612061,0.742187,507
17804463,9982,-0.152222,0.608521,0.742065,510
17814456,9993,-0.151489,0.609009,0.742065,509
17824482,10026,-0.149536,0.609131,0.741089,508
17834470,9988,-0.150024,0.607666,0.739624,506
17844483,10013,-0.149536,0.605835,0.740112,507
17854465,9982,-0.147339,0.600342,0.739014,506
17864456,9991,-0.146484,0.601440,0.740112,507
17874464,10008,-0.147827,0.605591,0.739014,505
17884458,9994,-0.147095,0.608154,0.737061,505
17894464,10006,-0.144531,0.605713,0.735107,508
17904483,10019,-0.143799,0.605835,0.736572,506
17914458,9975,-0.144775,0.611206,0.741943,507
17924464,10006,-0.144531,0.613892,0.743286,507
17934485,10021,-0.144043,0.614136,0.745117,502
17944457,9972,-0.146484,0.610962,0.743774,507
17954482,10025,-0.144775,0.604858,0.734375,507
17964468,9986,-0.141968,0.600708,0.733765,508
17974483,10015,-0.142700,0.606812,0.734497,501
17984475,9992,-0.143921,0.611206,0.737793,504
17994456,9981,-0.142578,0.610718,0.740479,507
18004474,10018,-0.142822,0.609253,0.739746,509
18014473,9999,-0.143921,0.605225,0.734741,511
18024473,10000,-0.146240,0.606812,0.732544,515
18034466,9993,-0.148437,0.606689,0.732178,513
18044458,9992,-0.149292,0.604370,0.735840,517
18054484,10026,-0.151489,0.605835,0.740967,523
18064485,10001,-0.154419,0.609253,0.749146,525
18074482,9997,-0.155884,0.614014,0.750366,530
18084476,9994,-0.154053,0.613770,0.750366,529
18094485,10009,-0.153198,0.614014,0.748291,532
18104477,9992,-0.153320,0.614990,0.746704,529
18114470,9993,-0.152100,0.617676,0.744019,530
18124459,9989,-0.151611,0.611206,0.740479,529
18134456,9997,-0.152100,0.611084,0.742432,525
18144464,10008,-0.151855,0.611572,0.745117,519
18154481,10017,-0.154175,0.614380,0.745728,518
18164463,9982,-0.153687,0.614136,0.744141,514
18174458,9995,-0.151489,0.612061,0.746338,506
18184465,10007,-0.147827,0.611328,0.745972,502
18194475,10010,-0.150024,0.612427,0.745605,506
18204462,9987,-0.148926,0.614624,0.745972,506
18214462,10000,-0.148560,0.614258,0.745483,499
18224468,10006,-0.145630,0.611206,0.741821,495
18234481,10013,-0.142578,0.604370,0.734985,501
18244465,9984,-0.143555,0.602661,0.732544,499
18254474,10009,-0.143799,0.600708,0.735229,500
18264459,9985,-0.143677,0.599365,0.732910,501
18274475,10016,-0.144287,0.599609,0.733154,501
18284472,9997,-0.144897,0.597778,0.733765,504
18294504,10032,-0.146362,0.606445,0.741699,499
18304471,9967,-0.147217,0.609009,0.743896,503
18314473,10002,-0.148437,0.609741,0.746948,510
18324469,9996,-0.150635,0.610840,0.747803,509
18334480,10011,-0.150391,0.612671,0.748535,511
18344462,9982,-0.151611,0.611816,0.746216,511
18354483,10021,-0.151733,0.613403,0.743774,511
18364457,9974,-0.151123,0.610474,0.740112,508
18374466,10009,-0.150513,0.608887,0.738525,512
18384464,9998,-0.151245,0.609253,0.738525,512
18394465,10001,-0.150024,0.609131,0.738770,506
18404458,9993,-0.151245,0.613647,0.742676,509
18414498,10040,-0.152588,0.613037,0.743896,511
18424475,9977,-0.151733,0.610596,0.745850,505
18434466,9991,-0.152222,0.611084,0.746216,512
18444462,9996,-0.152710,0.611938,0.746338,503
18454468,10006,-0.151733,0.613647,0.744019,505
18464459,9991,-0.151733,0.612427,0.741821,507
18474459,10000,-0.150391,0.609619,0.741577,506
18484472,10013,-0.151001,0.609375,0.739502,509
18494482,10010,-0.150391,0.610107,0.739380,508
18504485,10003,-0.149780,0.611084,0.742798,504
18514475,9990,-0.151611,0.613770,0.747681,505
18524479,10004,-0.152832,0.613647,0.749023,508
18534460,9981,-0.154175,0.613770,0.751343,503
18544468,10008,-0.152710,0.609497,0.750732,507
18554469,10001,-0.151611,0.607788,0.746216,506
18564478,10009,-0.146973,0.612305,0.741821,506
18574478,10000,-0.145142,0.616455,0.744385,508
18584499,10021,-0.145996,0.620850,0.744507,507
18594476,9977,-0.145752,0.620361,0.743042,509
18604483,10007,-0.146484,0.618042,0.741577,504
18614475,9992,-0.146484,0.613037,0.738647,509
18624484,10009,-0.145020,0.607300,0.738525,509
18634483,9999,-0.147827,0.609741,0.742065,511
18644460,9977,-0.147217,0.610962,0.744995,510
18654459,9999,-0.144043,0.608887,0.744019,505
18664459,10000,-0.142090,0.606445,0.742065,509
18674482,10023,-0.138672,0.605835,0.734741,511
18684481,9999,-0.138672,0.608398,0.731934,509
18694468,9987,-0.142090,0.606934,0.731934,512
18704470,10002,-0.143799,0.609253,0.733765,521
18714500,10030,-0.145996,0.609375,0.738403,527
18724468,9968,-0.147461,0.609619,0.739868,532
18734475,10007,-0.151001,0.607910,0.741821,530
18744471,9996,-0.149292,0.605835,0.737915,534
18754480,10009,-0.149414,0.607300,0.735107,521
18764461,9981,-0.147827,0.608276,0.729858,533
18774473,10012,-0.145752,0.609131,0.729980,533
18784485,10012,-0.147705,0.611328,0.731201,530
18794478,9993,-0.149536,0.612793,0.734497,528
18804462,9984,-0.152100,0.614624,0.737427,520
18814474,10012,-0.152954,0.616211,0.741333,520
18824462,9988,-0.153687,0.613403,0.745483,512
18834476,10014,-0.155762,0.610474,0.745605,506
18844461,9985,-0.153198,0.607422,0.742798,507
18854460,9999,-0.152588,0.612061,0.743164,505
18864485,10025,-0.152100,0.617432,0.742798,498
18874460,9975,-0.149292,0.619873,0.742798,502
18884467,10007,-0.147827,0.618530,0.740967,500
18894459,9992,-0.146484,0.619263,0.737671,494
18904459,10000,-0.144043,0.617065,0.735596,494
18914485,10026,-0.144409,0.616455,0.732788,499
18924479,9994,-0.144409,0.613770,0.733765,495
18934484,10005,-0.145630,0.611206,0.736816,500
18944484,10000,-0.146973,0.609131,0.739502,503
18954470,9986,-0.147095,0.614014,0.743652,504
18964464,9994,-0.148682,0.622192,0.746216,499
18974484,10020,-0.148437,0.623657,0.747803,505
18984468,9984,-0.147461,0.623413,0.748047,502
18994471,10003,-0.147461,0.623169,0.747437,511
19004470,9999,-0.147095,0.621582,0.739624,507
19014479,10009,-0.144897,0.619629,0.735718,508
19024499,10020,-0.142456,0.619141,0.734253,514
19034483,9984,-0.143188,0.619141,0.733032,512
19044462,9979,-0.145508,0.621826,0.733765,513
19054483,10021,-0.145630,0.622070,0.735596,514
19064456,9973,-0.145874,0.615356,0.736084,513
19074462,10006,-0.146851,0.613647,0.738159,512
19084472,10010,-0.147461,0.611450,0.740112,512
19094477,10005,-0.148437,0.610962,0.740601,509
19104474,9997,-0.147339,0.610840,0.739990,508
19114459,9985,-0.145874,0.610596,0.732544,509
19124457,9998,-0.143066,0.608887,0.730591,511
19134470,10013,-0.142578,0.608887,0.729858,509
19144457,9987,-0.142700,0.605957,0.726807,508
19154456,9999,-0.140503,0.605713,0.725220,507
19164463,10007,-0.139282,0.608276,0.722656,508
19174481,10018,-0.136719,0.602417,0.722778,507
19184467,9986,-0.139526,0.603271,0.723755,500
19194469,10002,-0.141968,0.605835,0.728271,506
19204471,10002,-0.143921,0.610718,0.732666,506
19214495,10024,-0.144531,0.613403,0.735718,507
19224482,9987,-0.145142,0.614380,0.742920,506
19234459,9977,-0.147217,0.617187,0.745972,507
19244481,10022,-0.147095,0.617798,0.746216,504
19254485,10004,-0.145752,0.614502,0.740967,506
19264471,9986,-0.143311,0.610352,0.732544,505
19274478,10007,-0.140625,0.605591,0.723389,505
19284474,9996,-0.137451,0.607544,0.718994,507
19294470,9996,-0.138672,0.613281,0.721191,509
19304462,9992,-0.138306,0.618530,0.727661,506
19314457,9995,-0.140015,0.619385,0.736938,508
19324476,10019,-0.142700,0.619507,0.747070,503
19334462,9986,-0.147827,0.621826,0.753418,509
19344483,10021,-0.150024,0.624023,0.751221,508
19354485,10002,-0.150513,0.621826,0.747681,516
19364465,9980,-0.151367,0.622192,0.745483,519
19374481,10016,-0.151978,0.623779,0.744019,523
19384477,9996,-0.150513,0.626831,0.743164,528
19394476,9999,-0.150879,0.629272,0.745361,530
19404469,9993,-0.150635,0.626587,0.742187,533
19414466,9997,-0.148682,0.624268,0.739014,533
19424461,9995,-0.149536,0.622681,0.736938,533
19434466,10005,-0.147095,0.622070,0.735107,533
19444476,10010,-0.146729,0.618530,0.736328,530
19454462,9986,-0.149048,0.614014,0.738525,528
19464461,9999,-0.150024,0.613403,0.740479,521
19474484,10023,-0.151978,0.611816,0.742065,519
19484476,9992,-0.150513,0.609009,0.741455,511
19494484,10008,-0.148560,0.608276,0.739990,509
19504467,9983,-0.144531,0.608643,0.734741,504
19514483,10016,-0.142334,0.609131,0.732422,508
19524483,10000,-0.142212,0.610962,0.732056,504
19534485,10002,-0.144043,0.612549,0.733521,504
19544456,9971,-0.143677,0.610107,0.731689,500
19554472,10016,-0.142456,0.606934,0.731445,500
19564466,9994,-0.137939,0.606689,0.725952,500
19574481,10015,-0.137451,0.605957,0.726318,500
19584459,9978,-0.139771,0.609375,0.730347,500
19594481,10022,-0.143555,0.611328,0.734375,499
19604473,9992,-0.147095,0.612183,0.738770,503
19614465,9992,-0.148437,0.610840,0.744141,502
19624460,9995,-0.149170,0.613892,0.745483,507
19634469,10009,-0.149292,0.616333,0.743896,508
19644484,10015,-0.145996,0.617554,0.742676,509
19654464,9980,-0.143188,0.618774,0.740234,510
19664473,10009,-0.142700,0.621094,0.737549,511
19674478,10005,-0.143066,0.625122,0.733521,506
19684491,10013,-0.142944,0.623169,0.732788,513
19694476,9985,-0.142822,0.621094,0.732666,512
19704478,10002,-0.144287,0.615845,0.732300,511
19714457,9979,-0.144165,0.612427,0.732300,514
19724465,10008,-0.144043,0.609375,0.735107,512
19734467,10002,-0.144043,0.609497,0.736694,513
19744469,10002,-0.145752,0.610352,0.739868,509
19754485,10016,-0.146240,0.610352,0.742554,512
19764473,9988,-0.143921,0.611084,0.743042,510
19774468,9995,-0.144409,0.613647,0.744873,510
19784463,9995,-0.144775,0.612427,0.743652,511
19794458,9995,-0.145386,0.610352,0.744385,508
19804472,10014,-0.143311,0.609985,0.742187,509
19814479,10007,-0.142700,0.608643,0.736572,501
19824457,9978,-0.139404,0.605835,0.733765,504
19834481,10024,-0.141113,0.604980,0.727783,501
19844484,10003,-0.141113,0.602905,0.727905,506
19854470,9986,-0.143188,0.602051,0.728027,502
19864473,10003,-0.141235,0.600220,0.728027,504
19874478,10005,-0.141846,0.600098,0.733643,506
19884476,9998,-0.145630,0.605225,0.740112,505
19894472,9996,-0.152344,0.612793,0.747559,505
19904473,10001,-0.151733,0.609985,0.750610,504
19914457,9984,-0.151367,0.607788,0.745728,501
19924484,10027,-0.148560,0.605103,0.741821,507
19934483,9999,-0.150391,0.608643,0.740967,506
19944480,9997,-0.149414,0.614746,0.742798,508
19954477,9997,-0.147339,0.619141,0.744751,504
19964461,9984,-0.145508,0.621338,0.742920,507
19974468,10007,-0.145264,0.623535,0.742798,508
19984459,9991,-0.147461,0.621460,0.741455,510
19994478,10019,-0.148437,0.617187,0.742554,512
20004478,10000,-0.153076,0.613525,0.747803,517
20014457,9979,-0.154907,0.613037,0.749878,516
20024480,10023,-0.154663,0.614990,0.753174,525
20034479,9999,-0.157593,0.619019,0.754272,525
20044478,9999,-0.157715,0.618530,0.754883,530
20054463,9985,-0.154907,0.609009,0.749268,529
20064470,10007,-0.153931,0.605225,0.745728,535
20074482,10012,-0.153320,0.603882,0.744019,532
20084461,9979,-0.152954,0.605469,0.743530,534
20094483,10022,-0.153687,0.606445,0.743774,532
20104472,9989,-0.151489,0.604858,0.743652,528
20114471,9999,-0.150269,0.605713,0.740356,525
20124472,10001,-0.149292,0.604980,0.740479,513
20134480,10008,-0.150024,0.603027,0.739136,516
20144485,10005,-0.149414,0.601685,0.736206,508
20154482,9997,-0.146240,0.601196,0.733887,506
20164481,9999,-0.146973,0.602539,0.736694,508
20174479,9998,-0.145508,0.607544,0.739380,503
20184483,10004,-0.147339,0.610474,0.743408,502
20194465,9982,-0.147583,0.611450,0.747559,496
20204478,10013,-0.148193,0.608887,0.748169,499
20214461,9983,-0.146973,0.606934,0.747681,501
20224473,10012,-0.145020,0.609619,0.744995,495
20234470,9997,-0.146362,0.612061,0.740967,498
20244478,10008,-0.145508,0.608643,0.738525,501
20254472,9994,-0.145508,0.606079,0.737671,501
20264478,10006,-0.145142,0.603516,0.738892,500
20274480,10002,-0.145264,0.606079,0.740967,503
20284465,9985,-0.147949,0.606445,0.743652,506
20294482,10017,-0.150513,0.606445,0.746826,508
20304472,9990,-0.151611,0.606445,0.747437,507
20314500,10028,-0.149902,0.606567,0.747681,511
20324484,9984,-0.149536,0.606567,0.747559,512
20334466,9982,-0.151733,0.609985,0.750977,511
20344457,9991,-0.152344,0.612061,0.749756,507
20354461,10004,-0.151001,0.609497,0.746826,507
20364477,10016,-0.149536,0.604248,0.742676,511
20374475,9998,-0.148804,0.603516,0.740601,511
20384479,10004,-0.148193,0.605713,0.738525,510
20394474,9995,-0.146606,0.608276,0.737793,511
20404476,10002,-0.146606,0.610962,0.740479,509
20414470,9994,-0.149658,0.615112,0.744019,508
20424457,9987,-0.151123,0.615356,0.746216,501
20434485,10028,-0.154541,0.615723,0.746216,507
20444470,9985,-0.152100,0.606812,0.743530,507
20454456,9986,-0.150024,0.600708,0.742798,508
20464512,10056,-0.150879,0.600830,0.742065,506
20474506,9994,-0.151123,0.604004,0.739624,504
20484467,9961,-0.150879,0.602661,0.736572,507
20494477,10010,-0.153931,0.597656,0.739990,505
20504476,9999,-0.153320,0.597168,0.739746,505
20514485,10009,-0.151733,0.601562,0.740845,505
20524479,9994,-0.154907,0.606323,0.747681,507
20534460,9981,-0.156128,0.611084,0.754150,508
20544467,10007,-0.155518,0.615112,0.756470,505
20554476,10009,-0.152344,0.611206,0.747681,507
20564470,9994,-0.149414,0.605835,0.743164,507
20574465,9995,-0.147705,0.603760,0.741577,507
20584473,10008,-0.147827,0.605957,0.743774,507
20594471,9998,-0.147949,0.611084,0.748047,504
20604495,10024,-0.147949,0.614746,0.752930,509
20614473,9978,-0.145264,0.613159,0.754883,500
20624481,10008,-0.147827,0.612061,0.752075,510
20634463,9982,-0.148437,0.609619,0.750366,508
20644483,10020,-0.148560,0.606201,0.745728,515
20654480,9997,-0.147705,0.602417,0.739624,519
20664482,10002,-0.148804,0.601685,0.737305,526
20674479,9997,-0.148560,0.602051,0.738037,529
20684467,9988,-0.146729,0.600342,0.739502,529
20694467,10000,-0.147217,0.601562,0.741455,535
20704465,9998,-0.148193,0.604736,0.741821,531
20714458,9993,-0.148193,0.606445,0.743530,536
20724481,10023,-0.147217,0.612671,0.745117,534
20734464,9983,-0.149292,0.611816,0.746948,532
20744463,9999,-0.151123,0.609863,0.746948,529
20754498,10035,-0.150757,0.607178,0.747437,527
20764464,9966,-0.150024,0.603882,0.746216,515
20774460,9996,-0.149048,0.602905,0.742310,513
20784479,10019,-0.147827,0.603271,0.739990,509
20794458,9979,-0.148315,0.602783,0.737915,510
20804474,10016,-0.148560,0.601807,0.738647,504
20814471,9997,-0.148804,0.602051,0.741333,504
20824460,9989,-0.151733,0.601929,0.746582,503
20834457,9997,-0.150269,0.600830,0.746704,493
20844467,10010,-0.149780,0.603027,0.746460,501
20854466,9999,-0.149658,0.605103,0.747681,500
20864456,9990,-0.147583,0.603027,0.744141,496
20874473,10017,-0.144165,0.600708,0.741455,500
20884477,10004,-0.144043,0.606567,0.739868,500
20894469,9992,-0.144043,0.609009,0.740356,501
20904465,9996,-0.145996,0.607056,0.742798,503
20914467,10002,-0.146606,0.604614,0.741699,506
20924479,10012,-0.146240,0.603638,0.741943,504
20934485,10006,-0.146973,0.603638,0.741333,507
20944471,9986,-0.149414,0.605591,0.740845,510
20954478,10007,-0.150757,0.605957,0.741333,506
20964460,9982,-0.151733,0.606934,0.742798,507
20974472,10012,-0.153076,0.608521,0.743286,513
20984465,9993,-0.154297,0.609131,0.747192,513
20994466,10001,-0.155762,0.609253,0.746826,511
21004463,9997,-0.156006,0.609375,0.743896,503
21014472,10009,-0.156372,0.610962,0.743286,513
21024468,9996,-0.156372,0.611450,0.743042,509
21034481,10013,-0.155273,0.609131,0.742065,512
21044462,9981,-0.156250,0.607910,0.742065,506
21054461,9999,-0.154297,0.607056,0.741577,511
21064496,10035,-0.155640,0.610840,0.742920,505
21074484,9988,-0.155640,0.611572,0.745850,509
21084481,9997,-0.156372,0.611572,0.747803,501
21094472,9991,-0.158813,0.611206,0.749268,508
21104484,10012,-0.158203,0.605713,0.752075,508
21114484,10000,-0.156616,0.605469,0.751343,506
21124483,9999,-0.155640,0.605225,0.750610,506
21134456,9973,-0.154907,0.605469,0.749878,504
21144478,10022,-0.154053,0.606079,0.747192,506
21154466,9988,-0.151489,0.603638,0.745239,507
21164460,9994,-0.147827,0.604614,0.738037,501
21174463,10003,-0.146729,0.603394,0.735352,507
21184475,10012,-0.145142,0.606689,0.738281,509
21194458,9983,-0.143311,0.600708,0.742554,508
21204489,10031,-0.139893,0.601196,0.740356,503
21214468,9979,-0.149536,0.620605,0.740845,510
21224470,10002,-0.147705,0.612915,0.744019,505
21234458,9988,-0.148560,0.607788,0.744507,506
21244482,10024,-0.150269,0.606323,0.742798,509
21254478,9996,-0.147583,0.607422,0.741699,509
21264485,10007,-0.145752,0.612671,0.744995,503
21274471,9986,-0.145630,0.614746,0.747070,510
21284458,9987,-0.146606,0.613159,0.744263,509
21294456,9998,-0.146118,0.607422,0.739624,509
21304468,10012,-0.147827,0.605347,0.739014,515
21314456,9988,-0.151855,0.605713,0.739868,515
21324460,10004,-0.154419,0.607788,0.745483,522
21334474,10014,-0.157837,0.608154,0.748047,525
21344459,9985,-0.157715,0.606934,0.751465,530
21354481,10022,-0.156372,0.606201,0.750732,531
21364480,9999,-0.156128,0.606812,0.749390,533
21374460,9980,-0.156250,0.607056,0.746216,535
21384466,10006,-0.153687,0.607056,0.741089,534
21394467,10001,-0.151855,0.607300,0.737061,526
21404464,9997,-0.151123,0.606689,0.737793,526
21414477,10013,-0.150757,0.608521,0.740479,525
21424484,10007,-0.148682,0.609497,0.740601,520
21434457,9973,-0.151245,0.610596,0.744141,514
21444473,10016,-0.150879,0.610840,0.746948,513
21454461,9988,-0.151489,0.609131,0.746582,509
21464483,10022,-0.150757,0.605469,0.744263,508
21474464,9981,-0.150269,0.604370,0.742920,504
21484465,10001,-0.149780,0.606445,0.742920,503
21494485,10020,-0.146484,0.606323,0.739868,497
21504463,9978,-0.146362,0.606934,0.739502,495
21514459,9996,-0.143677,0.604370,0.738281,496
21524460,10001,-0.142334,0.601440,0.736206,498
21534486,10026,-0.144043,0.601685,0.736694,494
21544470,9984,-0.145508,0.605591,0.738770,501
21554465,9995,-0.146729,0.603882,0.739258,502
21564457,9992,-0.149902,0.605347,0.740723,503
21574479,10022,-0.152222,0.604736,0.743774,500
21584456,9977,-0.151123,0.603760,0.747070,504
21594481,10025,-0.152954,0.605469,0.746704,505
21604475,9994,-0.154541,0.609497,0.746216,509
21614483,10008,-0.154175,0.611450,0.746338,504
21624476,9993,-0.154541,0.610229,0.744263,510
21634474,9998,-0.155029,0.609863,0.744141,508
21644467,9993,-0.155151,0.613525,0.742920,510
21654456,9989,-0.152954,0.615112,0.740723,512
21664494,10038,-0.153320,0.615723,0.739258,512
21674486,9992,-0.151855,0.613403,0.735596,512
21684484,9998,-0.151855,0.610474,0.737671,512
21694457,9973,-0.152710,0.613037,0.741455,513
21704473,10016,-0.154297,0.613770,0.746338,508
21714462,9989,-0.156250,0.612549,0.751709,508
21724472,10010,-0.156128,0.609741,0.751099,504
21734465,9993,-0.154297,0.608887,0.749390,506
21744466,10001,-0.154175,0.609009,0.749146,508
21754482,10016,-0.150757,0.608887,0.744629,507
21764482,10000,-0.147949,0.607666,0.737427,500
21774472,9990,-0.146484,0.605957,0.735596,504
21784456,9984,-0.146851,0.602051,0.735352,507
21794474,10018,-0.147827,0.602539,0.736938,507
21804489,10015,-0.147217,0.603149,0.738525,498
21814465,9976,-0.146729,0.605103,0.739502,505
21824468,10003,-0.145752,0.604614,0.735962,507
21834475,10007,-0.146240,0.602051,0.735107,507
21844467,9992,-0.145752,0.600708,0.735840,502
21854456,9989,-0.145508,0.604370,0.738770,507
21864483,10027,-0.147339,0.606323,0.743042,507
21874468,9985,-0.148804,0.608643,0.749390,505
21884462,9994,-0.150146,0.609009,0.750488,506
21894468,10006,-0.151367,0.609253,0.747437,508
21904459,9991,-0.151733,0.608154,0.745117,501
21914483,10024,-0.150635,0.607910,0.740967,508
21924466,9983,-0.149292,0.608398,0.740479,501
21934456,9990,-0.148071,0.614014,0.742187,506
21944464,10008,-0.144775,0.613281,0.742554,508
21954471,10007,-0.143311,0.610229,0.740479,503
21964462,9991,-0.142944,0.612427,0.737183,510
21974460,9998,-0.143555,0.612549,0.736450,508
21984466,10006,-0.148193,0.606812,0.736694,516
21994467,10001,-0.151978,0.604980,0.739746,517
22004479,10012,-0.153320,0.605835,0.744263,522
22014473,9994,-0.156372,0.606445,0.750610,527
22024464,9991,-0.157715,0.607422,0.751709,525
22034476,10012,-0.157349,0.607300,0.752930,527
22044485,10009,-0.153564,0.609375,0.746460,535
22054473,9988,-0.152222,0.610107,0.743042,531
22064466,9993,-0.150513,0.610718,0.740356,535
22074460,9994,-0.149170,0.611328,0.738647,534
22084456,9996,-0.149780,0.612061,0.737305,529
22094476,10020,-0.147339,0.609253,0.740479,527
22104460,9984,-0.146973,0.606201,0.740112,523
22114482,10022,-0.147461,0.605957,0.742065,523
22124482,10000,-0.148682,0.606934,0.744751,509
22134467,9985,-0.150391,0.607422,0.745239,510
22144485,10018,-0.150024,0.602905,0.743408,506
22154477,9992,-0.149048,0.602051,0.742920,504
22164462,9985,-0.149048,0.605347,0.743530,502
22174476,10014,-0.148682,0.606812,0.745605,497
22184456,9980,-0.148560,0.606689,0.745972,502
22194478,10022,-0.147949,0.607056,0.744019,501
22204477,9999,-0.146729,0.606079,0.738525,494
22214486,10009,-0.144897,0.604736,0.738403,503
22224462,9976,-0.144165,0.605225,0.738281,500
22234512,10050,-0.144043,0.606445,0.739258,502
22244478,9966,-0.146484,0.606323,0.740601,498
22254477,9999,-0.147949,0.605835,0.743042,503
22264465,9988,-0.149658,0.605957,0.746338,508
22274472,10007,-0.152222,0.609253,0.749146,508
22284480,10008,-0.154297,0.609985,0.748291,505
22294481,10001,-0.156250,0.609253,0.748169,509
22304460,9979,-0.155884,0.609741,0.747559,502
22314458,9998,-0.155640,0.610474,0.744873,509
22324477,10019,-0.154175,0.612427,0.744263,512
22334476,9999,-0.153564,0.614014,0.742554,507
22344459,9983,-0.153931,0.615112,0.741455,512
22354484,10025,-0.152710,0.613647,0.739624,506
22364479,9995,-0.152344,0.610596,0.742310,513
22374460,9981,-0.155518,0.609863,0.744263,510
22384474,10014,-0.156738,0.611328,0.749146,511
22394483,10009,-0.156982,0.609863,0.748413,503
22404457,9974,-0.156006,0.609985,0.745605,505
22414469,10012,-0.153076,0.608032,0.742065,509
22424468,9999,-0.151733,0.606323,0.739502,507
22434464,9996,-0.153198,0.602783,0.739746,504
22444480,10016,-0.154785,0.601807,0.740479,505
22454473,9993,-0.152954,0.602905,0.742065,508
22464470,9997,-0.153442,0.605835,0.743042,507
22474478,10008,-0.152954,0.609009,0.746094,506
22484473,9995,-0.153320,0.612915,0.748169,499
22494460,9987,-0.153076,0.614136,0.748413,502
22504482,10022,-0.151245,0.612183,0.747681,503
22514475,9993,-0.150391,0.612305,0.744141,501
22524460,9985,-0.149536,0.610840,0.739868,506
22534457,9997,-0.148315,0.606201,0.737427,506
22544503,10046,-0.147583,0.607178,0.738159,503
22554482,9979,-0.148560,0.608154,0.742187,509
22564480,9998,-0.149902,0.610107,0.747681,508
22574459,9979,-0.151123,0.611206,0.749756,509
22584482,10023,-0.151489,0.609863,0.748901,509
22594465,9983,-0.150757,0.604858,0.741943,504
22604471,10006,-0.149170,0.602295,0.740723,509
22614480,10009,-0.149536,0.604736,0.740845,506
22624467,9987,-0.146606,0.609009,0.743164,510
22634464,9997,-0.146118,0.609985,0.744751,508
22644460,9996,-0.143555,0.610840,0.746094,502
22654476,10016,-0.141724,0.611328,0.741455,511
22664477,10001,-0.141846,0.612915,0.738037,512
22674468,9991,-0.143555,0.614990,0.735352,515
22684473,10005,-0.144775,0.614258,0.735840,513
22694459,9986,-0.146240,0.612183,0.737671,520
22704479,10020,-0.152222,0.613892,0.748779,525
22714469,9990,-0.153931,0.616577,0.750488,529
22724481,10012,-0.152588,0.615601,0.746582,533
22734474,9993,-0.150146,0.612305,0.740601,532
22744465,9991,-0.148437,0.610596,0.735596,529
22754482,10017,-0.148926,0.609497,0.735596,528
22764471,9989,-0.153076,0.608643,0.736206,533
22774465,9994,-0.154419,0.606934,0.737427,523
22784459,9994,-0.152954,0.605835,0.740356,527
22794474,10015,-0.152954,0.606567,0.743164,522
22804465,9991,-0.152954,0.609131,0.744507,515
22814479,10014,-0.151367,0.610107,0.742432,507
22824473,9994,-0.149536,0.610474,0.741943,511
22834508,10035,-0.150635,0.613403,0.742432,502
22844482,9974,-0.150269,0.612915,0.741455,504
22854479,9997,-0.147949,0.609253,0.740112,503
22864485,10006,-0.148560,0.607056,0.738037,503
22874465,9980,-0.146851,0.606445,0.735840,498
22884461,9996,-0.145386,0.606201,0.735352,495
22894467,10006,-0.144653,0.608154,0.733032,498
22904460,9993,-0.142456,0.609741,0.733887,501
22914475,10015,-0.144165,0.613770,0.737671,501
22924456,9981,-0.146729,0.622314,0.743530,500
22934476,10020,-0.146362,0.620728,0.743530,499
22944479,10003,-0.147339,0.616577,0.741821,499
22954457,9978,-0.147217,0.614014,0.741333,508
22964458,10001,-0.149170,0.615112,0.740845,507
22974467,10009,-0.148315,0.613647,0.738892,507
22984457,9990,-0.146484,0.614624,0.733521,510
22994470,10013,-0.145630,0.612305,0.732910,512
23004458,9988,-0.146240,0.612549,0.734375,511
23014483,10025,-0.148071,0.617554,0.736328,508
23024479,9996,-0.148804,0.619995,0.738770,513
23034484,10005,-0.148071,0.615967,0.742920,514
23044465,9981,-0.149048,0.618042,0.743896,509
23054482,10017,-0.149170,0.620361,0.743164,507
23064468,9986,-0.149292,0.619629,0.741699,509
23074469,10001,-0.150635,0.617432,0.740479,506
23084481,10012,-0.149780,0.613892,0.739380,510
23094468,9987,-0.149780,0.611206,0.738159,513
23104467,9999,-0.150024,0.608765,0.739990,509
23114483,10016,-0.150269,0.606323,0.740601,506
23124484,10001,-0.150269,0.607422,0.739136,506
23134472,9988,-0.149902,0.608276,0.739014,500
23144466,9994,-0.145874,0.609497,0.734375,507
23154471,10005,-0.144409,0.611572,0.730469,506
23164481,10010,-0.141846,0.612671,0.728027,501
23174472,9991,-0.140503,0.614868,0.725952,508
23184472,10000,-0.139526,0.616943,0.726685,505
23194466,9994,-0.140015,0.620361,0.729980,508
23204458,9992,-0.144897,0.613525,0.733276,506
23214480,10022,-0.146484,0.610840,0.736694,509
23224481,10001,-0.148560,0.610107,0.740967,507
23234473,9992,-0.151001,0.613281,0.744019,508
23244481,10008,-0.152100,0.613281,0.742920,507
23254470,9989,-0.148682,0.609375,0.735474,502
23264460,9990,-0.146851,0.610229,0.731812,508
23274480,10020,-0.145630,0.612427,0.731323,511
23284462,9982,-0.146606,0.616455,0.734131,507
23294457,9995,-0.144531,0.618896,0.735474,508
23304472,10015,-0.145630,0.621460,0.738770,508
23314494,10022,-0.144287,0.618530,0.741455,508
23324462,9968,-0.145142,0.618652,0.739502,503
23334461,9999,-0.145996,0.617554,0.735718,511
23344460,9999,-0.146606,0.617187,0.733887,512
23354465,10005,-0.146606,0.616821,0.732300,515
23364460,9995,-0.150024,0.614868,0.737427,520
23374468,10008,-0.150513,0.616211,0.740723,517
23384473,10005,-0.152222,0.619019,0.742920,527
23394484,10011,-0.151489,0.619385,0.744873,530
23404458,9974,-0.150391,0.618408,0.743652,533
23414472,10014,-0.150635,0.618408,0.742920,534
23424486,10014,-0.146851,0.618652,0.739746,533
23434468,9982,-0.145996,0.617310,0.736328,526
23444465,9997,-0.145752,0.617920,0.735962,530
23454482,10017,-0.145386,0.619263,0.735962,525
23464464,9982,-0.144287,0.617187,0.734741,519
23474462,9998,-0.144897,0.616821,0.733521,518
23484463,10001,-0.146484,0.614502,0.732788,515
23494470,10007,-0.143677,0.610840,0.731689,510
23504477,10007,-0.144165,0.606689,0.730469,505
23514463,9986,-0.144531,0.606934,0.732178,505
23524469,10006,-0.146729,0.610962,0.736694,495
23534458,9989,-0.150146,0.613037,0.741821,501
23544484,10026,-0.148804,0.609009,0.740356,494
23554456,9972,-0.146484,0.608765,0.736450,493
23564460,10004,-0.144653,0.610718,0.733398,501
23574478,10018,-0.143677,0.612793,0.732544,500
23584477,9999,-0.140259,0.609619,0.723267,501
23594461,9984,-0.140381,0.610718,0.723633,495
23604490,10029,-0.140259,0.611084,0.723877,498
23614475,9985,-0.140747,0.613037,0.726562,502
23624472,9997,-0.144287,0.613403,0.733154,503
23634459,9987,-0.145752,0.613770,0.739990,507
23644476,10017,-0.150513,0.615234,0.748901,508
23654477,10001,-0.150757,0.613403,0.748169,511
23664485,10008,-0.149658,0.613159,0.746582,507
23674479,9994,-0.150391,0.615112,0.742065,505
23684469,9990,-0.147217,0.617676,0.738281,514
23694467,9998,-0.143677,0.615234,0.728882,510
23704462,9995,-0.142944,0.615845,0.727051,513
23714472,10010,-0.142212,0.614380,0.728149,512
23724461,9989,-0.142944,0.615723,0.731812,512
23734464,10003,-0.145386,0.616699,0.735107,514
23744467,10003,-0.146362,0.615845,0.739990,512
23754510,10043,-0.148437,0.615356,0.743408,511
23764460,9950,-0.149292,0.613159,0.745850,502
23774476,10016,-0.151489,0.609985,0.748047,506
23784457,9981,-0.151611,0.609497,0.747192,508
23794484,10027,-0.152344,0.608887,0.743408,508
23804465,9981,-0.147461,0.609131,0.736694,504
23814459,9994,-0.147339,0.609253,0.735840,508
23824483,10024,-0.146851,0.609619,0.734741,505
23834473,9990,-0.146606,0.609985,0.734985,506
23844477,10004,-0.147827,0.612793,0.734131,506
23854464,9987,-0.147461,0.614136,0.733887,508
23864456,9992,-0.149414,0.611938,0.743164,502
23874466,10010,-0.151855,0.613647,0.749146,507
23884456,9990,-0.153076,0.615967,0.751221,500
23894479,10023,-0.153076,0.616577,0.752808,506
23904483,10004,-0.152588,0.614258,0.748169,506
23914464,9981,-0.149536,0.610962,0.735718,506
23924457,9993,-0.145630,0.613159,0.734863,502
23934472,10015,-0.145386,0.615723,0.733887,508
23944480,10008,-0.145142,0.617432,0.737427,508
23954476,9996,-0.143555,0.614258,0.740723,507
23964459,9983,-0.143555,0.612793,0.741089,508
23974471,10012,-0.146240,0.612793,0.742065,508
23984467,9996,-0.147095,0.613770,0.741577,511
23994456,9989,-0.148560,0.610352,0.740845,514
24004473,10017,-0.149536,0.608032,0.741089,520
24014471,9998,-0.149658,0.607788,0.742920,518
24024497,10026,-0.151123,0.614136,0.746338,528
24034464,9967,-0.150757,0.612915,0.744873,526
24044459,9995,-0.149536,0.610107,0.744263,533
24054479,10020,-0.148193,0.607544,0.740112,536
24064467,9988,-0.146973,0.607422,0.737915,537
24074483,10016,-0.145508,0.609131,0.735352,534
24084469,9986,-0.149048,0.610107,0.739868,529
24094476,10007,-0.149170,0.609131,0.742554,529
24104471,9995,-0.151733,0.609497,0.743652,526
24114479,10008,-0.151855,0.607788,0.747559,521
24124460,9981,-0.153198,0.606323,0.749634,514
24134465,10005,-0.155396,0.605591,0.750488,509
24144481,10016,-0.150757,0.604736,0.746704,510
24154484,10003,-0.150269,0.604736,0.742065,506
24164476,9992,-0.150757,0.605347,0.741577,503
24174480,10004,-0.149292,0.606812,0.740723,502
24184469,9989,-0.148804,0.608398,0.737183,498
24194464,9995,-0.145142,0.610107,0.732422,499
24204480,10016,-0.143433,0.609985,0.730957,499
24214473,9993,-0.143433,0.609741,0.734741,493
24224466,9993,-0.144897,0.610474,0.736572,499
24234464,9998,-0.146118,0.609619,0.739136,500
24244463,9999,-0.146851,0.606934,0.746460,498
24254473,10010,-0.152100,0.606445,0.750854,499
24264481,10008,-0.152466,0.605347,0.752441,502
24274471,9990,-0.155151,0.608032,0.751831,499
24284461,9990,-0.154297,0.609741,0.750488,501
24294482,10021,-0.153198,0.609375,0.747559,509
24304473,9991,-0.152344,0.610107,0.743408,509
24314473,10000,-0.150269,0.611084,0.739624,511
24324460,9987,-0.149536,0.613281,0.736450,512
24334460,10000,-0.149414,0.610962,0.735352,511
24344485,10025,-0.148437,0.609253,0.736206,507
24354475,9990,-0.148804,0.610840,0.735962,513
24364463,9988,-0.151123,0.610962,0.739380,509
24374475,10012,-0.151611,0.610474,0.742798,513
24384471,9996,-0.154175,0.610474,0.746704,511
24394473,10002,-0.156494,0.608276,0.748169,512
24404464,9991,-0.155273,0.607666,0.749512,507
24414483,10019,-0.156250,0.606323,0.749878,510
24424478,9995,-0.155396,0.606323,0.748047,509
24434481,10003,-0.155029,0.608765,0.748413,509
24444463,9982,-0.155273,0.610229,0.747681,509
24454468,10005,-0.153076,0.607178,0.745483,503
24464475,10007,-0.151001,0.606812,0.742432,507
24474484,10009,-0.148071,0.606689,0.742310,505
24484486,10002,-0.150269,0.609375,0.742310,503
24494483,9997,-0.148071,0.609131,0.740845,506
24504480,9997,-0.148560,0.607666,0.739136,504
24514456,9976,-0.147949,0.603516,0.740112,500
24524486,10030,-0.147949,0.607544,0.745728,499
24534472,9986,-0.150391,0.612183,0.745850,506
24544475,10003,-0.150269,0.608398,0.747925,506
24554481,10006,-0.149414,0.604736,0.747070,506
24564467,9986,-0.149658,0.601929,0.740356,506
24574510,10043,-0.147827,0.602417,0.739624,500
24584483,9973,-0.146118,0.607300,0.743408,508
24594471,9988,-0.149902,0.613403,0.749878,503
24604482,10011,-0.149780,0.614258,0.752441,509
24614482,10000,-0.148071,0.609985,0.751953,508
24624466,9984,-0.146729,0.607666,0.747803,509
24634456,9990,-0.145874,0.609497,0.739624,509
24644478,10022,-0.143921,0.606934,0.738647,512
24654464,9986,-0.147339,0.607666,0.735718,514
24664482,10018,-0.148315,0.606812,0.739990,525
24674478,9996,-0.149536,0.608643,0.743164,528
24684462,9984,-0.151733,0.612671,0.750488,526
24694482,10020,-0.152832,0.609741,0.750610,530
24704475,9993,-0.152100,0.605835,0.748779,535
24714479,10004,-0.152588,0.602905,0.748047,532
24724499,10020,-0.152832,0.602295,0.746094,527
24734478,9979,-0.152344,0.601440,0.742920,530
24744456,9978,-0.151367,0.598877,0.739502,526
24754469,10013,-0.148804,0.597046,0.735596,520
24764470,10001,-0.147461,0.597778,0.733765,518
24774474,10004,-0.147095,0.598389,0.735718,516
24784456,9982,-0.148193,0.598267,0.739258,512
24794484,10028,-0.148437,0.600586,0.748169,505
24804471,9987,-0.150391,0.606567,0.750854,505
24814480,10009,-0.150635,0.608521,0.751465,498
24824467,9987,-0.150635,0.606689,0.751099,502
24834469,10002,-0.150146,0.608276,0.747803,498
24844481,10012,-0.148926,0.605957,0.743042,500
24854497,10016,-0.144287,0.600952,0.734131,495
24864482,9985,-0.142822,0.599854,0.728882,492
24874461,9979,-0.145264,0.597290,0.729858,497
24884474,10013,-0.148315,0.596313,0.734619,494
24894478,10004,-0.148071,0.596802,0.741943,494
24904473,9995,-0.150757,0.600342,0.749146,498
24914477,10004,-0.155884,0.609985,0.753174,502
24924459,9982,-0.156494,0.610474,0.755005,503
24934479,10020,-0.156494,0.612305,0.756592,507
24944462,9983,-0.156250,0.609497,0.754883,508
24954464,10002,-0.154175,0.608887,0.754395,510
24964475,10011,-0.154785,0.612427,0.750977,505
24974474,9999,-0.153931,0.612793,0.747070,507
24984474,10000,-0.152710,0.615479,0.743774,511
24994482,10008,-0.151123,0.616943,0.744385,521
25004501,10019,-0.151489,0.614136,0.745361,513
25014480,9979,-0.151855,0.612183,0.749878,507
25024483,10003,-0.153687,0.613525,0.749390,512
25034473,9990,-0.151001,0.613281,0.751465,511
25044462,9989,-0.152466,0.610840,0.750610,504
25054465,10003,-0.154907,0.607788,0.751953,505
25064471,10006,-0.156616,0.606445,0.753052,509
25074483,10012,-0.153931,0.603394,0.749878,508
25084470,9987,-0.155273,0.601440,0.747437,504
25094464,9994,-0.153564,0.598145,0.744629,510
25104472,10008,-0.149414,0.595825,0.740112,506
25114474,10002,-0.148560,0.594360,0.736572,502
25124474,10000,-0.147339,0.595825,0.734741,512
25134472,9998,-0.146606,0.599121,0.735107,502
25144508,10036,-0.146973,0.598389,0.739380,507
25154488,9980,-0.148315,0.596558,0.740723,505
25164460,9972,-0.148437,0.594238,0.739624,503
25174460,10000,-0.149902,0.593872,0.743530,507
25184484,10024,-0.150757,0.598145,0.752319,503
25194481,9997,-0.149048,0.601440,0.750732,500
25204481,10000,-0.148071,0.601440,0.748047,505
25214480,9999,-0.144165,0.600098,0.740601,503
25224458,9978,-0.142822,0.599609,0.734009,508
25234463,10005,-0.141235,0.597778,0.730957,505
25244457,9994,-0.146729,0.605957,0.738159,508
25254463,10006,-0.140991,0.606689,0.743164,508
25264477,10014,-0.141846,0.607178,0.751099,508
25274468,9991,-0.147949,0.608887,0.759644,508
25284467,9999,-0.150391,0.608154,0.761841,510
25294458,9991,-0.150757,0.602051,0.757324,507
25304469,10011,-0.156006,0.600098,0.756470,516
25314477,10008,-0.149902,0.596313,0.747437,521
25324458,9981,-0.151855,0.598022,0.746826,526
25334471,10013,-0.151855,0.603027,0.748291,524
25344469,9998,-0.152710,0.605957,0.780640,534
25354482,10013,-0.156860,0.607544,0.756714,531
25364472,9990,-0.156494,0.606079,0.760376,537
25374478,10006,-0.157227,0.606934,0.760498,535
25384482,10004,-0.155762,0.611328,0.756104,537
25394472,9990,-0.154541,0.615112,0.751587,527
25404478,10006,-0.150513,0.614868,0.746704,529
25414465,9987,-0.149292,0.612183,0.745728,519
25424474,10009,-0.150269,0.610962,0.744995,522
25434506,10032,-0.150146,0.608887,0.745850,518
25444495,9989,-0.152100,0.605713,0.746338,514
25454475,9980,-0.155029,0.606079,0.749512,508
25464473,9998,-0.154663,0.600342,0.757568,507
25474464,9991,-0.156494,0.600586,0.758301,504
25484461,9997,-0.156372,0.601318,0.758301,497
25494482,10021,-0.153687,0.601440,0.757080,497
25504469,9987,-0.151489,0.600342,0.751709,500
25514460,9991,-0.144775,0.597168,0.743286,497
25524467,10007,-0.143188,0.595337,0.741455,500
25534479,10012,-0.142334,0.595703,0.738403,496
25544480,10001,-0.141968,0.596680,0.736084,501
25554484,10004,-0.144775,0.597900,0.733521,497
25564472,9988,-0.142944,0.592896,0.738770,498
25574465,9993,-0.142578,0.597412,0.738403,501
25584470,10005,-0.144653,0.600464,0.739502,509
25594478,10008,-0.147339,0.602783,0.739990,505
25604488,10010,-0.149902,0.600342,0.742187,511
25614472,9984,-0.149292,0.597900,0.741699,510
25624470,9998,-0.153564,0.601807,0.744141,512
25634479,10009,-0.152710,0.603394,0.746216,514
25644462,9983,-0.153687,0.605347,0.746582,513
25654474,10012,-0.153564,0.604370,0.746094,507
25664457,9983,-0.154175,0.608521,0.746460,512
25674458,10001,-0.153687,0.610474,0.743530,513
25684476,10018,-0.153198,0.611206,0.744263,509
25694482,10006,-0.155029,0.611084,0.747192,512
25704462,9980,-0.156128,0.611084,0.747681,511
25714467,10005,-0.156860,0.607422,0.745728,509
25724492,10025,-0.154419,0.603271,0.746704,509
25734466,9974,-0.156128,0.601440,0.744141,509
25744472,10006,-0.154907,0.602173,0.743164,509
25754463,9991,-0.152344,0.602173,0.746216,508
25764479,10016,-0.152954,0.601807,0.748779,499
25774477,9998,-0.155762,0.605591,0.751465,500
25784463,9986,-0.154541,0.606079,0.755371,505
25794484,10021,-0.150757,0.608154,0.755005,502
25804477,9993,-0.148437,0.608765,0.752563,505
25814472,9995,-0.144287,0.610107,0.750122,504
25824469,9997,-0.142578,0.609009,0.745850,505
25834482,10013,-0.141846,0.607056,0.741699,506
25844462,9980,-0.141357,0.598145,0.739380,504
25854470,10008,-0.143677,0.601074,0.745972,505
25864460,9990,-0.148071,0.606079,0.752441,508
25874471,10011,-0.147949,0.606567,0.753906,501
25884485,10014,-0.145752,0.602539,0.752075,501
25894474,9989,-0.143555,0.601685,0.747559,507
25904466,9992,-0.145752,0.600830,0.744019,509
25914468,10002,-0.148804,0.605835,0.747559,510
25924485,10017,-0.146240,0.604614,0.748413,506
25934473,9988,-0.143555,0.602905,0.748657,508
25944461,9988,-0.143066,0.603638,0.746704,509
25954462,10001,-0.148804,0.602295,0.742187,509
25964480,10018,-0.150757,0.598267,0.741699,511
25974457,9977,-0.147705,0.593262,0.740601,515
25984473,10016,-0.147583,0.594971,0.738037,517
25994464,9991,-0.149658,0.602295,0.741089,524
26004482,10018,-0.153931,0.608765,0.748901,526
26014464,9982,-0.154907,0.610474,0.756470,533
26024506,10042,-0.157104,0.608765,0.755249,533
26034508,10002,-0.156616,0.605591,0.754028,536
26044482,9974,-0.155640,0.601318,0.750488,537
26054459,9977,-0.153076,0.598389,0.745972,534
26064474,10015,-0.152222,0.596191,0.740234,535
26074481,10007,-0.151001,0.598267,0.739746,530
26084477,9996,-0.148682,0.602417,0.739380,528
26094478,10001,-0.146851,0.604614,0.739624,523
26104485,10007,-0.147339,0.605347,0.741455,520
26114457,9972,-0.150146,0.605835,0.745728,516
26124485,10028,-0.149658,0.603394,0.748047,512
26134458,9973,-0.149048,0.604736,0.749268,508
26144474,10016,-0.150146,0.604248,0.752197,505
26154467,9993,-0.150879,0.605103,0.753784,495
26164481,10014,-0.151367,0.608643,0.752319,500
26174474,9993,-0.150024,0.610352,0.751465,500
26184459,9985,-0.148682,0.609741,0.747803,497
26194482,10023,-0.146240,0.608765,0.744507,499
26204476,9994,-0.147095,0.613037,0.741333,498
26214492,10016,-0.145508,0.613159,0.739502,493
26224468,9976,-0.147827,0.611084,0.739136,499
26234465,9997,-0.150635,0.607666,0.743164,499
26244464,9999,-0.152832,0.608032,0.745972,503
26254468,10004,-0.153198,0.610596,0.748047,506
26264467,9999,-0.155640,0.612671,0.748413,504
26274470,10003,-0.154419,0.612427,0.749634,504
26284475,10005,-0.153442,0.612549,0.749023,503
26294468,9993,-0.152222,0.610596,0.749146,510
26304469,10001,-0.153687,0.608398,0.748535,513
26314472,10003,-0.156494,0.604858,0.747803,507
26324458,9986,-0.156250,0.601196,0.749268,510
26334469,10011,-0.156494,0.597900,0.747559,511
26344494,10025,-0.153564,0.598267,0.745972,506
26354463,9969,-0.152832,0.602295,0.744629,513
26364473,10010,-0.150269,0.606812,0.744507,513
26374473,10000,-0.148682,0.610474,0.746216,512
26384467,9994,-0.146240,0.612061,0.743286,513
26394485,10018,-0.143555,0.617065,0.739014,511
26404462,9977,-0.141968,0.618042,0.737915,511
26414484,10022,-0.142090,0.617432,0.738037,510
26424456,9972,-0.143433,0.615479,0.736816,510
26434481,10025,-0.142212,0.616943,0.735718,510
26444457,9976,-0.143188,0.613281,0.734253,505
26454477,10020,-0.148560,0.603760,0.747559,503
26464465,9988,-0.150024,0.606201,0.746948,508
26474466,10001,-0.150024,0.609619,0.746704,507
26484461,9995,-0.149048,0.608276,0.744751,506
26494481,10020,-0.147827,0.606934,0.742798,507
26504481,10000,-0.146118,0.609741,0.737183,508
26514464,9983,-0.145264,0.611938,0.735596,504
26524464,10000,-0.145508,0.612183,0.735840,503
26534477,10013,-0.146851,0.610596,0.739624,504
26544464,9987,-0.148193,0.611938,0.744751,502
26554485,10021,-0.148682,0.611572,0.747314,508
26564463,9978,-0.148682,0.609619,0.739868,509
26574461,9998,-0.148804,0.604004,0.736938,505
26584472,10011,-0.146240,0.597290,0.736450,509
26594457,9985,-0.145386,0.605103,0.738647,508
26604475,10018,-0.147461,0.616333,0.741577,510
26614471,9996,-0.148437,0.616333,0.744385,511
26624496,10025,-0.148071,0.623413,0.746094,505
26634486,9990,-0.145508,0.614624,0.744019,512
26644481,9995,-0.145752,0.610962,0.738403,513
26654464,9983,-0.142700,0.612061,0.732300,514
26664467,10003,-0.142822,0.614014,0.729126,516
26674474,10007,-0.148315,0.615601,0.734985,518
26684481,10007,-0.150146,0.613525,0.738647,529
26694482,10001,-0.151001,0.613892,0.741333,531
26704464,9982,-0.151123,0.613770,0.742310,535
26714482,10018,-0.150024,0.612915,0.740479,537
26724483,10001,-0.149902,0.612183,0.738647,536
26734468,9985,-0.149536,0.615112,0.737549,532
26744474,10006,-0.148560,0.614136,0.738037,529
26754468,9994,-0.148804,0.607056,0.737793,531
26764465,9997,-0.147827,0.602661,0.737793,528
26774458,9993,-0.146973,0.603394,0.734863,523
26784479,10021,-0.146118,0.607422,0.732544,515
26794475,9996,-0.145508,0.607178,0.734985,515
26804498,10023,-0.146118,0.606934,0.737305,510
26814468,9970,-0.147217,0.609741,0.741333,501
26824485,10017,-0.147827,0.612793,0.741943,505
26834474,9989,-0.148071,0.613281,0.741455,505
26844469,9995,-0.145752,0.614014,0.742554,496
26854475,10006,-0.145142,0.614990,0.742798,499
26864472,9997,-0.142456,0.613647,0.738892,499
26874466,9994,-0.140991,0.611816,0.735107,497
26884479,10013,-0.139893,0.611694,0.731567,497
26894470,9991,-0.139526,0.612915,0.733154,498
26904466,9996,-0.140381,0.613403,0.733032,498
26914462,9996,-0.140747,0.612305,0.738892,502
26924502,10040,-0.144043,0.612061,0.739990,501
26934479,9977,-0.146240,0.614136,0.741089,506
26944467,9988,-0.148682,0.616455,0.738403,506
26954456,9989,-0.145508,0.617920,0.738037,503
26964477,10021,-0.146729,0.618408,0.735718,505
26974477,10000,-0.142090,0.621460,0.738892,511
26984480,10003,-0.141235,0.626343,0.744019,509
26994456,9976,-0.154053,0.637329,0.743286,507
27004460,10004,-0.148926,0.617798,0.754028,514
27014472,10012,-0.154175,0.620605,0.750244,516
27024470,9998,-0.154541,0.621216,0.751221,511
27034466,9996,-0.156494,0.622192,0.753174,508
27044467,10001,-0.158203,0.616455,0.751221,512
27054474,10007,-0.151978,0.613525,0.737305,512
27064462,9988,-0.149170,0.607300,0.735718,513
27074460,9998,-0.148926,0.606323,0.738159,503
27084480,10020,-0.150391,0.607422,0.739868,511
27094482,10002,-0.150635,0.610596,0.738281,503
27104470,9988,-0.149414,0.610718,0.737427,503
27114482,10012,-0.145752,0.609375,0.737671,502
27124475,9993,-0.145264,0.609619,0.736938,503
27134472,9997,-0.145142,0.610962,0.737793,502
27144477,10005,-0.143799,0.612183,0.737305,506
27154464,9987,-0.143921,0.614014,0.737549,508
27164478,10014,-0.144165,0.614868,0.738647,503
27174482,10004,-0.142212,0.616211,0.740112,506
27184472,9990,-0.141602,0.616455,0.743530,501
27194497,10025,-0.142456,0.618896,0.744141,507
27204466,9969,-0.142090,0.620972,0.742432,508
27214479,10013,-0.140503,0.621216,0.738403,503
27224472,9993,-0.136841,0.609131,0.726440,510
27234462,9990,-0.134277,0.604126,0.721436,506
27244478,10016,-0.137085,0.604858,0.721313,509
27254468,9990,-0.136475,0.605835,0.727295,510
27264471,10003,-0.138306,0.608276,0.733032,503
27274485,10014,-0.138672,0.609253,0.742920,503
27284467,9982,-0.144165,0.612305,0.741943,507
27294467,10000,-0.144653,0.609253,0.739746,510
27304466,9999,-0.144165,0.609009,0.736572,510
27314482,10016,-0.143555,0.609741,0.733398,515
27324456,9974,-0.144043,0.612671,0.731079,520
27334474,10018,-0.147949,0.620728,0.737305,515
27344458,9984,-0.149902,0.620972,0.739380,526
27354490,10032,-0.149048,0.619995,0.739258,531
27364470,9980,-0.150513,0.619873,0.739014,531
27374456,9986,-0.151123,0.616943,0.738770,532
27384480,10024,-0.150146,0.614380,0.737061,537
27394467,9987,-0.150269,0.613525,0.736206,527
27404467,10000,-0.149902,0.615601,0.737305,530
27414474,10007,-0.149902,0.616577,0.737671,527
27424468,9994,-0.147461,0.615723,0.738403,519
27434465,9997,-0.146484,0.614502,0.739136,518
27444462,9997,-0.145874,0.615479,0.740845,514
27454462,10000,-0.144531,0.612549,0.738159,514
27464479,10017,-0.142212,0.609375,0.734985,508
27474463,9984,-0.140869,0.606079,0.730591,506
27484465,10002,-0.140137,0.606934,0.728027,505
27494483,10018,-0.138672,0.606934,0.727173,494
27504478,9995,-0.137573,0.607178,0.731079,500
27514460,9982,-0.137329,0.609375,0.731323,500
27524482,10022,-0.137939,0.609741,0.734131,493
27534465,9983,-0.138550,0.610840,0.735596,499
27544468,10003,-0.138306,0.610596,0.739258,496
27554470,10002,-0.140991,0.613159,0.743652,500
27564480,10010,-0.143677,0.612061,0.745972,492
27574463,9983,-0.144775,0.613403,0.746216,502
27584470,10007,-0.144165,0.615601,0.746826,496
27594475,10005,-0.145386,0.619263,0.746094,499
27604483,10008,-0.146240,0.623901,0.746094,503
27614473,9990,-0.149414,0.624023,0.745605,512
27624479,10006,-0.151489,0.624023,0.744751,512
27634482,10003,-0.152222,0.622070,0.743652,511
27644473,9991,-0.152344,0.618530,0.739868,513
27654483,10010,-0.149048,0.614746,0.736694,510
27664486,10003,-0.148926,0.616943,0.735596,515
27674476,9990,-0.149292,0.618164,0.738159,513
27684483,10007,-0.149902,0.620605,0.741089,514
27694472,9989,-0.151855,0.618896,0.743286,512
27704459,9987,-0.152710,0.616089,0.747192,512
27714479,10020,-0.151611,0.613159,0.748657,511
27724465,9986,-0.151367,0.614990,0.747192,511
27734478,10013,-0.149292,0.615845,0.746826,509
27744465,9987,-0.147705,0.617065,0.742920,502
27754459,9994,-0.145996,0.615723,0.737671,507
27764481,10022,-0.144775,0.612671,0.732422,501
27774474,9993,-0.141113,0.606812,0.724731,507
27784469,9995,-0.140015,0.605957,0.724121,507
27794501,10032,-0.139160,0.605957,0.725220,505
27804483,9982,-0.141602,0.605103,0.727539,501
27814458,9975,-0.143311,0.603149,0.729004,503
27824457,9999,-0.143555,0.600830,0.731934,504
27834475,10018,-0.147461,0.605469,0.742187,505
27844475,10000,-0.148560,0.606689,0.745117,507
27854479,10004,-0.150391,0.607056,0.744263,506
27864474,9995,-0.150146,0.606201,0.739746,500
27874470,9996,-0.148437,0.604858,0.737061,505
27884471,10001,-0.145508,0.605957,0.735840,506
27894480,10009,-0.145996,0.612549,0.738647,501
27904467,9987,-0.145020,0.617310,0.741943,506
27914464,9997,-0.143799,0.620850,0.745972,501
27924460,9996,-0.144531,0.622559,0.747803,499
27934468,10008,-0.145386,0.624634,0.745850,509
27944474,10006,-0.145020,0.621216,0.742676,512
27954460,9986,-0.145142,0.619507,0.740601,513
27964464,10004,-0.147949,0.619629,0.741333,519
27974480,10016,-0.149414,0.620117,0.743042,523
27984456,9976,-0.149902,0.618530,0.743530,524
27994466,10010,-0.150146,0.614502,0.746216,530
28004495,10029,-0.150024,0.613770,0.746826,535
28014483,9988,-0.151245,0.613403,0.748413,535
28024461,9978,-0.151245,0.614624,0.747070,538
28034468,10007,-0.151611,0.614502,0.746582,535
28044461,9993,-0.151367,0.614624,0.746704,535
28054482,10021,-0.148926,0.613525,0.742676,529
28064470,9988,-0.147705,0.612549,0.739746,521
28074476,10006,-0.146851,0.609131,0.737061,521
28084468,9992,-0.145386,0.608032,0.734497,513
28094456,9988,-0.146240,0.605591,0.734863,512
28104459,10003,-0.145386,0.605835,0.737915,511
28114477,10018,-0.146484,0.604736,0.738037,510
28124483,10006,-0.147949,0.605225,0.740601,499
28134488,10005,-0.149780,0.607422,0.743408,495
28144476,9988,-0.151978,0.609863,0.744019,496
28154478,10002,-0.149536,0.609375,0.742798,498
28164473,9995,-0.145386,0.605469,0.738403,492
28174466,9993,-0.144165,0.606079,0.735107,493
28184458,9992,-0.144165,0.606567,0.734375,497
28194475,10017,-0.143921,0.607544,0.734009,502
28204461,9986,-0.140747,0.606934,0.733276,501
28214467,10006,-0.141724,0.614136,0.739014,499
28224458,9991,-0.147217,0.619263,0.743530,506
28234473,10015,-0.149292,0.619141,0.746338,505
28244468,9995,-0.150269,0.616943,0.747803,503
28254465,9997,-0.150146,0.613159,0.748413,509
28264463,9998,-0.150269,0.612183,0.746948,512
28274467,10004,-0.147949,0.613525,0.741821,512
28284467,10000,-0.145264,0.612915,0.739380,506
28294456,9989,-0.145508,0.613892,0.739868,507
28304471,10015,-0.146851,0.617065,0.740234,512
28314461,9990,-0.146729,0.616699,0.739502,512
28324479,10018,-0.147095,0.616455,0.740723,508
28334485,10006,-0.148193,0.615723,0.740112,512
28344458,9973,-0.148682,0.613037,0.741333,512
28354484,10026,-0.151489,0.612671,0.743774,504
28364461,9977,-0.151733,0.611450,0.743896,508
28374474,10013,-0.152222,0.609375,0.742065,507
28384473,9999,-0.149414,0.601929,0.739990,508
28394458,9985,-0.151978,0.602783,0.739990,508
28404470,10012,-0.151978,0.605591,0.739136,506
28414468,9998,-0.148560,0.602905,0.736816,508
28424481,10013,-0.146240,0.600952,0.732666,505
28434467,9986,-0.146484,0.599731,0.734253,505
28444511,10044,-0.148071,0.603760,0.737183,506
28454456,9945,-0.147339,0.605347,0.739868,505
28464476,10020,-0.148437,0.609131,0.744385,506
28474484,10008,-0.149536,0.613281,0.750244,504
28484458,9974,-0.149780,0.615723,0.754028,502
28494482,10024,-0.150391,0.615601,0.749878,506
28504460,9978,-0.146729,0.611938,0.744141,508
28514475,10015,-0.143555,0.607300,0.738281,506
28524472,9997,-0.142822,0.606079,0.735107,506
28534463,9991,-0.141846,0.610474,0.735840,506
28544457,9994,-0.142212,0.616821,0.737793,506
28554485,10028,-0.143677,0.621582,0.749023,507
28564459,9974,-0.145630,0.616577,0.750854,507
28574461,10002,-0.145142,0.613770,0.751221,510
28584463,10002,-0.148071,0.612671,0.747681,511
28594465,10002,-0.148926,0.608887,0.744507,514
28604474,10009,-0.150269,0.606934,0.741943,519
28614470,9996,-0.151123,0.605835,0.742310,524
28624477,10007,-0.151123,0.607056,0.743652,528
28634456,9979,-0.151001,0.607178,0.747925,531
28644498,10042,-0.153564,0.609863,0.750122,535
28654482,9984,-0.153076,0.612671,0.751465,537
28664456,9974,-0.149658,0.615356,0.746826,537
28674474,10018,-0.147949,0.615845,0.744873,536
28684478,10004,-0.146240,0.613647,0.743164,533
28694458,9980,-0.145752,0.612549,0.740112,531
28704483,10025,-0.146362,0.614014,0.738770,524
28714474,9991,-0.145630,0.614624,0.742798,523
28724481,10007,-0.148315,0.612183,0.745483,518
28734461,9980,-0.149780,0.611572,0.743774,514
28744486,10025,-0.150879,0.606079,0.745361,511
28754469,9983,-0.150269,0.600708,0.747070,505
28764503,10034,-0.148926,0.600220,0.741821,503
28774481,9978,-0.144653,0.602783,0.734863,499
28784479,9998,-0.143921,0.604492,0.732056,502
28794478,9999,-0.141113,0.604370,0.732178,504
28804469,9991,-0.141846,0.601807,0.730591,500
28814460,9991,-0.140991,0.600220,0.732422,499
28824457,9997,-0.143799,0.603394,0.735352,501
28834462,10005,-0.145264,0.602295,0.739014,502
28844466,10004,-0.146606,0.601685,0.740112,502
28854456,9990,-0.146851,0.601440,0.741577,504
28864470,10014,-0.150024,0.602661,0.743042,499
28874476,10006,-0.150024,0.602661,0.747192,507
28884465,9989,-0.147827,0.611206,0.745972,507
28894479,10014,-0.146240,0.613892,0.741821,509
28904461,9982,-0.145630,0.617187,0.739990,510
28914458,9997,-0.146729,0.619873,0.740356,512
28924459,10001,-0.146851,0.620117,0.741211,507
28934464,10005,-0.152832,0.615234,0.747314,507
28944471,10007,-0.153442,0.614624,0.748535,513
28954475,10004,-0.152344,0.614624,0.749390,507
28964484,10009,-0.150879,0.615845,0.746948,512
28974474,9990,-0.153442,0.615601,0.748291,514
28984479,10005,-0.153687,0.613647,0.748657,509
28994469,9990,-0.154663,0.610718,0.746216,512
29004476,10007,-0.154907,0.608276,0.744019,511
29014467,9991,-0.152710,0.606689,0.743286,510
29024466,9999,-0.153320,0.606323,0.741333,509
29034470,10004,-0.151855,0.605347,0.742798,508
29044482,10012,-0.153198,0.603149,0.744629,508
29054458,9976,-0.152710,0.600952,0.746460,501
29064470,10012,-0.154053,0.602417,0.750366,506
29074477,10007,-0.152710,0.604248,0.751465,506
29084463,9986,-0.151245,0.607178,0.749512,499
29094481,10018,-0.150635,0.609985,0.755737,505
29104470,9989,-0.140747,0.599609,0.745605,497
29114485,10015,-0.142456,0.603516,0.742187,502
29124481,9996,-0.138428,0.606201,0.742798,501
29134478,9997,-0.139282,0.608398,0.741333,504
29144458,9980,-0.139526,0.606812,0.740112,497
29154463,10005,-0.143555,0.600098,0.739380,504
29164482,10019,-0.142456,0.595703,0.739380,504
29174482,10000,-0.141724,0.593872,0.741089,506
29184476,9994,-0.144043,0.598145,0.747437,501
29194457,9981,-0.146240,0.603027,0.753906,507
29204465,10008,-0.146118,0.605835,0.758667,507
29214457,9992,-0.145142,0.606323,0.756958,506
29224464,10007,-0.143066,0.603394,0.751587,507
29234467,10003,-0.142700,0.600220,0.745483,513
29244474,10007,-0.142944,0.600952,0.742676,515
29254461,9987,-0.145752,0.602417,0.740967,513
29264481,10020,-0.145508,0.604492,0.743530,523
29274459,9978,-0.147583,0.601807,0.746460,528
29284474,10015,-0.149414,0.604126,0.750366,530
29294474,10000,-0.151733,0.604980,0.754639,535
29304465,9991,-0.154175,0.605103,0.756958,537
29314462,9997,-0.154175,0.604736,0.758057,529
29324463,10001,-0.150879,0.605591,0.754395,534
29334476,10013,-0.148926,0.606812,0.750977,529
29344511,10035,-0.147827,0.606689,0.748169,528
29354502,9991,-0.147461,0.605225,0.747925,525
29364484,9982,-0.145996,0.603516,0.746826,520
29374466,9982,-0.148315,0.602905,0.750000,514
29384479,10013,-0.147461,0.602905,0.750610,511
29394465,9986,-0.146851,0.602173,0.748901,506
29404458,9993,-0.144287,0.600098,0.747437,502
29414469,10011,-0.139526,0.604492,0.745483,498
29424484,10015,-0.142578,0.605469,0.745117,497
29434469,9985,-0.145630,0.603760,0.745972,497
29444476,10007,-0.144043,0.599609,0.745361,498
29454470,9994,-0.142700,0.596680,0.740356,498
29464458,9988,-0.141479,0.593018,0.740234,496
29474462,10004,-0.141235,0.591064,0.742187,496
29484461,9999,-0.142456,0.600708,0.746460,500
29494476,10015,-0.146362,0.600952,0.749268,493
29504460,9984,-0.146729,0.601807,0.749756,502
29514467,10007,-0.145752,0.601807,0.750122,503
29524483,10016,-0.145752,0.601562,0.749634,506
29534481,9998,-0.146973,0.604004,0.746460,515
29544468,9987,-0.145630,0.605347,0.743896,511
29554459,9991,-0.146362,0.604736,0.745361,506
29564474,10015,-0.147949,0.605347,0.745972,511
29574461,9987,-0.151367,0.606934,0.747803,512
29584484,10023,-0.153931,0.609009,0.749878,513
29594475,9991,-0.153442,0.603027,0.750610,509
29604475,10000,-0.156372,0.602051,0.750244,513
29614485,10010,-0.154175,0.602661,0.750244,513
29624479,9994,-0.153198,0.605957,0.748657,509
29634496,10017,-0.151489,0.607056,0.747925,508
29644464,9968,-0.150879,0.607544,0.749756,508
29654464,10000,-0.150269,0.608154,0.750610,507
29664485,10021,-0.150269,0.608887,0.750854,510
29674472,9987,-0.150879,0.608643,0.751831,509
29684465,9993,-0.149536,0.606323,0.753418,500
29694476,10011,-0.147461,0.606079,0.753662,507
29704484,10008,-0.147461,0.604370,0.753174,504
29714465,9981,-0.146362,0.601440,0.753540,505
29724476,10011,-0.145752,0.600220,0.754395,498
29734466,9990,-0.146240,0.598389,0.755249,503
29744459,9993,-0.145996,0.594360,0.751953,505
29754478,10019,-0.142700,0.593262,0.748657,506
29764470,9992,-0.136108,0.599243,0.742310,506
29774481,10011,-0.135620,0.605591,0.745117,505
29784466,9985,-0.137573,0.608887,0.748413,506
29794466,10000,-0.137085,0.605591,0.750610,501
29804485,10019,-0.138916,0.601196,0.748657,506
29814484,9999,-0.136230,0.593506,0.741699,501
29824501,10017,-0.137573,0.597046,0.741821,509
29834484,9983,-0.139771,0.599487,0.746460,510
29844485,10001,-0.141846,0.602417,0.751343,508
29854462,9977,-0.142700,0.601074,0.754272,508
29864470,10008,-0.144287,0.598877,0.755615,511
29874469,9999,-0.145508,0.599243,0.750244,509
29884461,9992,-0.144897,0.594849,0.746582,510
29894486,10025,-0.146851,0.596680,0.742920,515
29904463,9977,-0.147095,0.598755,0.741577,520
29914460,9997,-0.147827,0.601074,0.744263,522
29924470,10010,-0.149780,0.603760,0.754761,527
29934485,10015,-0.154541,0.613281,0.756714,532
29944464,9979,-0.155518,0.612915,0.757690,529
29954485,10021,-0.154297,0.612427,0.755249,534
29964466,9981,-0.152222,0.609253,0.753662,536
29974470,10004,-0.151123,0.607788,0.752197,530
29984474,10004,-0.153320,0.609009,0.750732,529
29994473,9999,-0.153076,0.608643,0.751953,531
30004465,9992,-0.152588,0.605835,0.751343,526
30014463,9998,-0.152222,0.603394,0.748779,522
30024482,10019,-0.150513,0.601685,0.749268,517
30034469,9987,-0.150757,0.598877,0.746216,513
30044478,10009,-0.145874,0.594360,0.744385,511
30054470,9992,-0.143921,0.595337,0.744629,501
30064473,10003,-0.143188,0.597290,0.747559,505
30074470,9997,-0.143311,0.601562,0.749023,502
30084457,9987,-0.144409,0.604736,0.749878,502
30094462,10005,-0.140503,0.602905,0.750366,501
30104473,10011,-0.140869,0.601562,0.745728,498
30114478,10005,-0.138306,0.598999,0.742798,495
30124479,10001,-0.138916,0.599854,0.739868,500
30134478,9999,-0.139038,0.598755,0.740112,497
30144483,10005,-0.140259,0.600830,0.746338,502
30154464,9981,-0.143433,0.603149,0.750366,506
30164476,10012,-0.144775,0.602417,0.752563,506
30174486,10010,-0.144897,0.601440,0.755737,508
30184480,9994,-0.147583,0.603149,0.756958,505
30194459,9979,-0.147461,0.606689,0.755493,509
30204478,10019,-0.145020,0.609009,0.749023,511
30214470,9992,-0.143555,0.610718,0.746948,512
30224481,10011,-0.141479,0.612061,0.743530,513
30234457,9976,-0.139893,0.612549,0.745117,509
30244478,10021,-0.143311,0.613037,0.747681,515
30254472,9994,-0.145874,0.610962,0.781128,514
30264473,10001,-0.146118,0.608521,0.750122,514
30274470,9997,-0.148804,0.605591,0.751099,512
30284466,9996,-0.148071,0.601685,0.750366,512
30294460,9994,-0.149414,0.598999,0.748901,511
30304461,10001,-0.148926,0.597168,0.748413,511
30314472,10011,-0.148315,0.590088,0.745728,512
30324474,10002,-0.145874,0.587036,0.746338,505
30334459,9985,-0.143433,0.588867,0.748169,508
30344467,10008,-0.143677,0.593506,0.750122,505
30354483,10016,-0.142456,0.596802,0.751831,505
30364460,9977,-0.140991,0.599609,0.749512,501
30374473,10013,-0.135620,0.602905,0.745728,507
30384473,10000,-0.135864,0.607056,0.744141,508
30394463,9990,-0.135986,0.611206,0.744629,502
30404463,10000,-0.137085,0.614258,0.744629,506
30414467,10004,-0.136475,0.613525,0.745728,506
30424457,9990,-0.141235,0.611694,0.750000,501
30434459,10002,-0.143555,0.613159,0.751709,507
30444467,10008,-0.145874,0.609619,0.751221,503
30454474,10007,-0.143188,0.602417,0.748047,507
30464482,10008,-0.141113,0.598267,0.742676,507
30474462,9980,-0.139526,0.599854,0.738159,501
30484476,10014,-0.137939,0.606079,0.738892,507
30494472,9996,-0.138794,0.607056,0.740845,507
30504471,9999,-0.137939,0.606201,0.744873,508
30514467,9996,-0.137573,0.604980,0.745850,506
30524482,10015,-0.140015,0.604614,0.744873,507
30534474,9992,-0.141602,0.601562,0.743652,511
30544479,10005,-0.143066,0.601440,0.742432,516
30554458,9979,-0.145142,0.602417,0.744751,518
30564465,10007,-0.146362,0.604858,0.745850,521
30574475,10010,-0.148071,0.604736,0.748047,524
30584479,10004,-0.149658,0.606201,0.751465,523
30594465,9986,-0.151978,0.607300,0.750854,531
30604472,10007,-0.149292,0.606201,0.752197,531
30614463,9991,-0.148437,0.605591,0.750854,533
30624471,10008,-0.147217,0.608032,0.749023,533
30634485,10014,-0.147583,0.608398,0.744263,525
30644482,9997,-0.146118,0.609741,0.746582,530
30654475,9993,-0.146606,0.606445,0.748535,521
30664464,9989,-0.147827,0.605835,0.750977,521
30674482,10018,-0.149170,0.606689,0.750366,518
30684473,9991,-0.148682,0.604370,0.746826,510
30694479,10006,-0.146729,0.601929,0.743164,512
30704457,9978,-0.142212,0.598877,0.739136,508
30714477,10020,-0.142822,0.600586,0.741455,505
30724478,10001,-0.142822,0.605225,0.743286,504
30734484,10006,-0.141479,0.604980,0.744263,500
30744461,9977,-0.141724,0.605957,0.746216,501
30754459,9998,-0.141602,0.607666,0.750366,494
30764466,10007,-0.142212,0.606689,0.748901,497
30774458,9992,-0.139526,0.605103,0.748291,499
30784484,10026,-0.138672,0.603638,0.746094,501
30794460,9976,-0.139282,0.604980,0.743896,503
30804485,10025,-0.139404,0.607544,0.744751,501
30814465,9980,-0.141724,0.608276,0.744507,503
30824467,10002,-0.142212,0.604858,0.744385,506
30834484,10017,-0.144287,0.603027,0.744263,508
30844477,9993,-0.143555,0.601074,0.743530,510
30854469,9992,-0.143433,0.600464,0.741577,512
30864464,9995,-0.145020,0.604004,0.744873,511
30874460,9996,-0.146484,0.604370,0.746704,512
30884463,10003,-0.145874,0.606323,0.749512,515
30894483,10020,-0.145752,0.608521,0.750122,514
30904471,9988,-0.145142,0.613770,0.751221,514
30914484,10013,-0.145996,0.616577,0.751343,515
30924485,10001,-0.145020,0.610229,0.748535,514
30934477,9992,-0.144409,0.605713,0.744995,511
30944469,9992,-0.142700,0.603882,0.744385,511
30954460,9991,-0.144165,0.603638,0.744019,509
30964458,9998,-0.145630,0.604736,0.744507,506
30974472,10014,-0.143555,0.602051,0.747192,508
30984463,9991,-0.144775,0.599854,0.747437,495
30994485,10022,-0.145264,0.598999,0.748169,501
31004473,9988,-0.144531,0.598511,0.750122,503
31014461,9988,-0.143555,0.600464,0.750244,505
31024485,10024,-0.143799,0.603027,0.748413,498
31034485,10000,-0.140381,0.602417,0.744019,501
31044473,9988,-0.138672,0.603149,0.744751,504
31054471,9998,-0.137451,0.607178,0.747437,502
31064467,9996,-0.138428,0.611084,0.748291,506
31074482,10015,-0.139160,0.613037,0.747314,507
31084472,9990,-0.139282,0.600708,0.740112,508
31094502,10030,-0.137817,0.594971,0.736206,501
31104469,9967,-0.137695,0.591675,0.735107,508
31114462,9993,-0.139282,0.597412,0.738647,508
31124475,10013,-0.139526,0.601562,0.742920,508
31134463,9988,-0.138550,0.602417,0.749390,507
31144469,10006,-0.143188,0.602539,0.759888,508
31154470,10001,-0.144287,0.605957,0.760986,510
31164474,10004,-0.145630,0.606201,0.757568,506
31174475,10001,-0.144287,0.603516,0.755981,513
31184476,10001,-0.142578,0.603149,0.752319,513
31194474,9998,-0.140503,0.617676,0.747070,522
31204463,9989,-0.140137,0.619507,0.745972,525
31214461,9998,-0.139404,0.616943,0.743530,530
31224477,10016,-0.139282,0.610840,0.743652,532
31234457,9980,-0.140259,0.608276,0.745972,530
31244475,10018,-0.141724,0.606201,0.746460,536
31254469,9994,-0.144165,0.599854,0.750732,533
31264463,9994,-0.146118,0.598511,0.752808,533
31274467,10004,-0.149414,0.597656,0.753906,532
31284492,10025,-0.148560,0.596924,0.754272,527
31294464,9972,-0.147705,0.595581,0.751099,521
31304478,10014,-0.146606,0.591675,0.744263,516
31314471,9993,-0.147339,0.589722,0.742920,515
31324480,10009,-0.148437,0.590820,0.741943,512
31334470,9990,-0.147949,0.587891,0.741577,507
31344478,10008,-0.146362,0.582886,0.741943,500
31354475,9997,-0.145996,0.583862,0.741455,499
31364482,10007,-0.143799,0.591431,0.744263,501
31374467,9985,-0.140869,0.595093,0.744629,500
31384476,10009,-0.138794,0.597778,0.742065,497
31394478,10002,-0.137573,0.601807,0.742798,498
31404470,9992,-0.135498,0.606445,0.743774,491
31414476,10006,-0.137207,0.612427,0.747314,499
31424485,10009,-0.138306,0.613647,0.752075,500
31434459,9974,-0.144165,0.616577,0.759033,495
31444472,10013,-0.146851,0.615723,0.763184,503
31454472,10000,-0.147949,0.614624,0.765747,504
31464474,10002,-0.149414,0.613281,0.765015,507
31474471,9997,-0.150024,0.605713,0.757812,506
31484480,10009,-0.147461,0.604004,0.754639,509
31494469,9989,-0.145630,0.606812,0.749756,504
31504465,9996,-0.144531,0.609009,0.745728,510
31514472,10007,-0.143188,0.611694,0.747314,511
31524458,9986,-0.147705,0.610596,0.754517,513
31534456,9998,-0.148804,0.611084,0.755493,507
31544474,10018,-0.148804,0.610718,0.757812,509
31554484,10010,-0.149902,0.607056,0.758179,507
31564463,9979,-0.151367,0.603394,0.757202,511
31574485,10022,-0.152832,0.601685,0.754883,509
31584461,9976,-0.151489,0.597046,0.748291,509
31594461,10000,-0.149536,0.592407,0.747559,510
31604458,9997,-0.148315,0.592896,0.746094,504
31614483,10025,-0.146606,0.591675,0.746704,506
31624464,9981,-0.147339,0.595215,0.747192,500
31634480,10016,-0.148071,0.598389,0.750854,506
31644465,9985,-0.148560,0.599854,0.750488,506
31654465,10000,-0.145264,0.597778,0.747559,506
31664474,10009,-0.142944,0.597900,0.746094,507
31674460,9986,-0.143311,0.601929,0.744873,506
31684456,9996,-0.142822,0.604736,0.746826,505
31694481,10025,-0.142212,0.600464,0.742310,506
31704467,9986,-0.139771,0.596069,0.737305,505
31714479,10012,-0.139282,0.593872,0.734985,499
31724465,9986,-0.139282,0.592529,0.737549,505
31734474,10009,-0.142090,0.597290,0.741699,505
31744482,10008,-0.142090,0.600586,0.752686,506
31754485,10003,-0.140381,0.602417,0.755737,503
31764459,9974,-0.142334,0.603760,0.757690,503
31774459,10000,-0.145142,0.605713,0.755981,508
31784475,10016,-0.145142,0.603394,0.755859,506
31794481,10006,-0.144287,0.602051,0.754395,511
31804457,9976,-0.145142,0.603882,0.746826,519
31814477,10020,-0.145752,0.605469,0.746338,523
31824484,10007,-0.146362,0.605713,0.747681,527
31834490,10006,-0.145996,0.604248,0.746826,531
31844481,9991,-0.145752,0.601562,0.744385,535
31854480,9999,-0.145142,0.601440,0.742676,536
31864471,9991,-0.143799,0.598511,0.745972,536
31874484,10013,-0.144653,0.599121,0.750977,531
31884461,9977,-0.146851,0.602417,0.755127,534
31894479,10018,-0.146851,0.606689,0.757568,532
31904456,9977,-0.148682,0.607788,0.759644,525
31914469,10013,-0.147705,0.600220,0.758545,521
31924462,9993,-0.147583,0.599976,0.754639,519
31934481,10019,-0.147217,0.601196,0.749634,513
31944474,9993,-0.144897,0.602417,0.746460,504
31954466,9992,-0.144409,0.603271,0.744995,506
31964456,9990,-0.142822,0.603394,0.747437,500
31974481,10025,-0.145752,0.605469,0.748535,497
31984461,9980,-0.145142,0.603882,0.750244,501
31994482,10021,-0.143677,0.600586,0.747559,496
32004471,9989,-0.143188,0.595581,0.747192,497
32014467,9996,-0.141724,0.594482,0.746582,499
32024480,10013,-0.143066,0.598022,0.747437,497
32034456,9976,-0.142822,0.598999,0.747437,501
32044469,10013,-0.141479,0.602417,0.748901,501
32054459,9990,-0.142456,0.602417,0.750732,493
32064471,10012,-0.143677,0.603149,0.753906,504
32074475,10004,-0.146606,0.606323,0.755493,506
32084464,9989,-0.146118,0.601196,0.755127,508
32094472,10008,-0.145142,0.600342,0.753662,509
32104475,10003,-0.145508,0.602539,0.751343,506
32114472,9997,-0.145142,0.604492,0.748413,508
32124483,10011,-0.142822,0.604248,0.745728,512
32134483,10000,-0.141479,0.603271,0.742432,512
32144486,10003,-0.142334,0.600586,0.741943,512
32154463,9977,-0.144287,0.599731,0.744507,513
32164468,10005,-0.144531,0.599365,0.747437,512
32174462,9994,-0.147583,0.598877,0.749878,511
32184457,9995,-0.148804,0.599976,0.757080,510
32194484,10027,-0.151001,0.600098,0.756226,507
32204485,10001,-0.150635,0.599487,0.753540,508
32214458,9973,-0.148071,0.601440,0.751831,509
32224500,10042,-0.147949,0.601562,0.752197,507
32234467,9967,-0.146484,0.601318,0.750732,507
32244467,10000,-0.145020,0.603516,0.747925,504
32254463,9996,-0.144287,0.606934,0.749512,503
32264482,10019,-0.144653,0.606445,0.749023,507
32274466,9984,-0.144043,0.603394,0.747070,504
32284465,9999,-0.144531,0.603760,0.748535,506
32294467,10002,-0.145020,0.608643,0.754639,505
32304478,10011,-0.145264,0.608643,0.754761,505
32314461,9983,-0.144775,0.606567,0.751465,506
32324481,10020,-0.144287,0.602173,0.748779,507
32334469,9988,-0.143677,0.598633,0.742798,505
32344485,10016,-0.142700,0.595703,0.743042,506
32354461,9976,-0.144531,0.598755,0.748413,499
32364471,10010,-0.142944,0.603394,0.750977,505
32374478,10007,-0.141479,0.605347,0.753906,506
32384460,9982,-0.141968,0.606689,0.753418,506
32394461,10001,-0.140625,0.604980,0.751709,508
32404483,10022,-0.142700,0.601685,0.742676,512
32414500,10017,-0.141968,0.598022,0.740479,511
32424480,9980,-0.141846,0.596069,0.739624,518
32434463,9983,-0.143677,0.597534,0.742310,523
32444479,10016,-0.145386,0.601196,0.744995,521
32454473,9994,-0.148682,0.605835,0.749390,529
32464466,9993,-0.151367,0.607300,0.757812,536
32474465,9999,-0.152954,0.605225,0.759399,535
32484461,9996,-0.152466,0.603516,0.758545,532
32494468,10007,-0.149414,0.603027,0.756104,535
32504492,10024,-0.148804,0.606201,0.754517,531
32514473,9981,-0.146973,0.609131,0.748169,528
32524459,9986,-0.145386,0.610352,0.745361,521
32534483,10024,-0.143555,0.607544,0.741943,521
32544482,9999,-0.142944,0.605225,0.739502,512
32554464,9982,-0.141602,0.600098,0.740112,513
32564459,9995,-0.143188,0.598999,0.742676,510
32574473,10014,-0.143555,0.599976,0.749878,502
32584467,9994,-0.146606,0.601929,0.754272,504
32594474,10007,-0.145142,0.600586,0.755859,500
32604465,9991,-0.143433,0.598877,0.756104,495
32614474,10009,-0.141479,0.599487,0.754272,492
32624470,9996,-0.141479,0.601929,0.747925,498
32634471,10001,-0.137573,0.604614,0.746704,497
32644477,10006,-0.136719,0.603394,0.746704,498
32654463,9986,-0.136597,0.605957,0.745117,496
32664469,10006,-0.137085,0.608276,0.743042,500
32674485,10016,-0.136963,0.607910,0.742920,500
32684482,9997,-0.140015,0.602295,0.744873,503
32694470,9988,-0.140137,0.601074,0.744751,499
32704475,10005,-0.143066,0.600952,0.745728,502
32714477,10002,-0.145508,0.601562,0.746338,507
32724464,9987,-0.146729,0.602051,0.747314,506
32734483,10019,-0.147339,0.603027,0.748413,507
32744482,9999,-0.148193,0.606567,0.749390,509
32754466,9984,-0.147217,0.608154,0.750732,515
32764461,9995,-0.148804,0.606445,0.747925,508
32774478,10017,-0.145020,0.604370,0.747070,508
32784456,9978,-0.143433,0.604004,0.742432,513
32794462,10006,-0.146973,0.609863,0.741699,512
32804466,10004,-0.147583,0.606201,0.743530,513
32814493,10027,-0.149902,0.602051,0.746338,510
32824479,9986,-0.150269,0.600464,0.749146,510
32834467,9988,-0.150635,0.601196,0.750854,511
32844467,10000,-0.150757,0.600464,0.752686,510
32854473,10006,-0.148315,0.601318,0.751587,508
32864462,9989,-0.147095,0.604858,0.750244,503
32874479,10017,-0.145142,0.607056,0.746460,500
32884459,9980,-0.144165,0.608032,0.744629,502
32894483,10024,-0.144043,0.608276,0.742676,503
32904484,10001,-0.141235,0.604614,0.740967,506
32914467,9983,-0.140747,0.604126,0.741699,505
32924463,9996,-0.141235,0.606079,0.745239,506
32934461,9998,-0.142334,0.606934,0.747070,503
32944478,10017,-0.143311,0.605591,0.747192,502
32954466,9988,-0.143188,0.603027,0.744995,506
32964461,9995,-0.145264,0.597168,0.739868,507
32974467,10006,-0.143921,0.597168,0.745728,505
32984468,10001,-0.146484,0.601929,0.750854,506
32994461,9993,-0.146973,0.609253,0.756104,504
33004473,10012,-0.145386,0.614868,0.757812,502
33014460,9987,-0.140991,0.613770,0.750122,508
33024459,9999,-0.139893,0.607788,0.742798,509
33034467,10008,-0.137329,0.604370,0.738647,511
33044486,10019,-0.137939,0.604370,0.736938,516
33054457,9971,-0.140381,0.603516,0.738037,513
33064479,10022,-0.145264,0.601929,0.745361,520
33074480,10001,-0.149048,0.605347,0.757935,528
33084470,9990,-0.148804,0.606201,0.758911,529
33094464,9994,-0.147949,0.606201,0.756226,536
33104457,9993,-0.145020,0.605347,0.752808,538
33114472,10015,-0.143555,0.604858,0.750366,536
33124459,9987,-0.141968,0.606323,0.748291,539
33134502,10043,-0.141113,0.607788,0.748047,533
33144479,9977,-0.140503,0.608032,0.748169,532
33154464,9985,-0.140259,0.607788,0.745850,529
33164462,9998,-0.139771,0.606934,0.742920,523
33174465,10003,-0.140015,0.608154,0.742310,520
33184462,9997,-0.139648,0.598999,0.742187,517
33194472,10010,-0.140137,0.597290,0.741943,507
33204476,10004,-0.140503,0.596558,0.742187,502
33214469,9993,-0.141113,0.599487,0.744873,502
33224481,10012,-0.142456,0.602783,0.747314,502
33234477,9996,-0.142090,0.603638,0.750610,499
33244464,9987,-0.143555,0.601562,0.751221,499
33254485,10021,-0.140747,0.594238,0.742187,493
33264458,9973,-0.137329,0.591797,0.738037,489
33274468,10010,-0.136108,0.596558,0.735474,492
33284460,9992,-0.135254,0.600098,0.734863,498
33294465,10005,-0.140503,0.600464,0.742676,499
33304477,10012,-0.141479,0.597290,0.748779,499
33314460,9983,-0.144043,0.599854,0.753906,497
33324473,10013,-0.147827,0.606323,0.755127,504
33334466,9993,-0.149414,0.608643,0.755615,502
33344465,9999,-0.147949,0.599731,0.760010,508
33354475,10010,-0.147583,0.598633,0.755737,509
33364461,9986,-0.147705,0.607910,0.749146,509
33374470,10009,-0.146240,0.612061,0.750977,512
33384458,9988,-0.147705,0.613892,0.751587,509
33394501,10043,-0.145020,0.611450,0.745605,509
33404469,9968,-0.142944,0.615601,0.746582,512
33414464,9995,-0.141968,0.616699,0.747437,513
33424480,10016,-0.141724,0.615723,0.745483,511
33434458,9978,-0.141479,0.614502,0.743164,512
33444456,9998,-0.142212,0.613770,0.743408,512
33454462,10006,-0.145386,0.606934,0.744141,512
33464464,10002,-0.148071,0.604980,0.747925,507
33474459,9995,-0.149414,0.604370,0.749390,507
33484480,10021,-0.149658,0.604492,0.752930,508
33494481,10001,-0.149414,0.604736,0.755005,504
33504469,9988,-0.150879,0.609253,0.756104,501
33514463,9994,-0.148682,0.609619,0.751343,507
33524469,10006,-0.148437,0.609985,0.748047,505
33534464,9995,-0.147461,0.605957,0.745850,507
33544477,10013,-0.146729,0.603882,0.739868,506
33554485,10008,-0.147583,0.602173,0.736206,505
33564458,9973,-0.143066,0.595459,0.735474,500
33574477,10019,-0.142700,0.598022,0.738770,505
33584489,10012,-0.142212,0.602295,0.741333,500
33594478,9989,-0.140991,0.605347,0.745117,503
33604474,9996,-0.154297,0.607056,0.744507,505
33614469,9995,-0.136353,0.603394,0.733398,505
33624461,9992,-0.131226,0.607422,0.734741,499
33634469,10008,-0.134766,0.616089,0.749878,506
33644483,10014,-0.144043,0.620605,0.770142,505
33654466,9983,-0.149414,0.613403,0.780396,507
33664474,10008,-0.142578,0.607178,0.774292,507
33674482,10008,-0.136475,0.606689,0.755981,511
33684470,9988,-0.134888,0.606445,0.749146,506
33694478,10008,-0.134644,0.603638,0.743408,514
33704459,9981,-0.136353,0.599243,0.739990,519
33714484,10025,-0.137573,0.596436,0.742798,525
33724475,9991,-0.140991,0.596313,0.742798,530
33734461,9986,-0.144043,0.601440,0.744751,527
33744464,10003,-0.142090,0.600342,0.744629,539
33754466,10002,-0.142822,0.602173,0.746094,542
33764477,10011,-0.141602,0.601562,0.745850,541
33774474,9997,-0.141357,0.599609,0.748291,543
33784464,9990,-0.141479,0.613525,0.742432,535
33794458,9994,-0.144043,0.618896,0.744263,538
33804481,10023,-0.146362,0.620239,0.748047,536
33814485,10004,-0.145996,0.614258,0.748901,525
33824479,9994,-0.147339,0.610718,0.748291,523
33834467,9988,-0.146973,0.610596,0.746460,517
33844485,10018,-0.145508,0.611328,0.743652,515
33854474,9989,-0.145996,0.608521,0.742920,510
33864459,9985,-0.146240,0.606934,0.746582,508
33874480,10021,-0.146240,0.607910,0.747681,502
33884482,10002,-0.145386,0.610962,0.749756,502
33894471,9989,-0.143311,0.612183,0.750244,493
33904478,10007,-0.142334,0.610718,0.748657,498
33914476,9998,-0.140503,0.613159,0.747559,497
33924474,9998,-0.139404,0.613037,0.743774,497
33934463,9989,-0.138062,0.612549,0.740234,499
33944494,10031,-0.136353,0.613525,0.739136,493
33954486,9992,-0.138550,0.613403,0.743530,501
33964472,9986,-0.140259,0.613770,0.746216,504
33974459,9987,-0.141357,0.614258,0.747192,503
33984468,10009,-0.142456,0.612183,0.746094,498
33994483,10015,-0.142822,0.611206,0.747192,510
34004480,9997,-0.136475,0.610962,0.737915,509
34014471,9991,-0.136963,0.611938,0.732910,511
34024471,10000,-0.134644,0.613403,0.734985,512
34034463,9992,-0.139893,0.614990,0.741943,511
34044477,10014,-0.143066,0.615112,0.750366,513
34054483,10006,-0.146240,0.614502,0.752441,512
34064478,9995,-0.145142,0.610840,0.751099,514
34074478,10000,-0.141968,0.609985,0.745728,513
34084471,9993,-0.141357,0.610718,0.743896,512
34094475,10004,-0.142334,0.611572,0.739624,512
34104471,9996,-0.141968,0.609497,0.736694,511
34114475,10004,-0.138428,0.607666,0.732910,510
34124469,9994,-0.140015,0.609619,0.732178,511
34134484,10015,-0.140381,0.612183,0.732544,509
34144459,9975,-0.140015,0.612915,0.734619,509
34154487,10028,-0.140381,0.613159,0.736938,503
34164457,9970,-0.142212,0.612183,0.739502,509
34174470,10013,-0.141846,0.608154,0.743164,508
34184457,9987,-0.140503,0.607300,0.743286,504
34194459,10002,-0.141113,0.609253,0.740845,504
34204465,10006,-0.140259,0.609619,0.738647,502
34214479,10014,-0.139282,0.610840,0.738525,506
34224469,9990,-0.138306,0.612183,0.740479,504
34234466,9997,-0.139038,0.612915,0.745850,503
34244461,9995,-0.139771,0.616333,0.747803,506
34254463,10002,-0.137939,0.619873,0.744019,506
34264470,10007,-0.134033,0.619995,0.738525,506
34274485,10015,-0.130615,0.616699,0.731567,507
34284474,9989,-0.129272,0.613403,0.725098,509
34294476,10002,-0.128174,0.612793,0.729858,507
34304462,9986,-0.129761,0.617920,0.735107,504
34314459,9997,-0.130005,0.617798,0.740967,503
34324457,9998,-0.131348,0.616699,0.747070,508
34334458,10001,-0.133179,0.614380,0.751099,502
34344466,10008,-0.135376,0.614746,0.747314,512
34354474,10008,-0.134277,0.615967,0.743530,514
34364476,10002,-0.133179,0.616821,0.740234,517
34374483,10007,-0.132935,0.616821,0.737915,524
34384462,9979,-0.134888,0.617920,0.735962,527
34394471,10009,-0.137207,0.615479,0.735596,532
34404465,9994,-0.137329,0.613037,0.734497,537
34414469,10004,-0.137695,0.608765,0.732300,536
34424469,10000,-0.137451,0.606812,0.732056,543
34434475,10006,-0.138184,0.606201,0.734009,543
34444474,9999,-0.138794,0.611572,0.737549,542
34454482,10008,-0.140869,0.613770,0.739258,538
34464457,9975,-0.138672,0.615723,0.739136,535
34474456,9999,-0.137939,0.617065,0.737915,527
34484482,10026,-0.138550,0.615845,0.737305,525
34494483,10001,-0.138428,0.614380,0.735229,518
34504468,9985,-0.147705,0.609253,0.721558,517
34514477,10009,-0.126953,0.612793,0.718628,512
34524511,10034,-0.123169,0.601929,0.711060,510
34534483,9972,-0.126587,0.608643,0.711182,505
34544472,9989,-0.130249,0.611572,0.727539,497
34554475,10003,-0.137817,0.618164,0.752075,497
34564459,9984,-0.136719,0.611450,0.753052,493
34574464,10005,-0.141968,0.610107,0.756104,494
34584457,9993,-0.144043,0.621338,0.766235,492
34594468,10011,-0.135498,0.613159,0.761475,486
34604474,10006,-0.135986,0.610229,0.756836,496
34614468,9994,-0.132935,0.619263,0.747681,496
34624460,9992,-0.132812,0.621948,0.741455,494
34634481,10021,-0.130981,0.620361,0.738770,497
34644464,9983,-0.131348,0.618408,0.738647,504
34654479,10015,-0.130371,0.617676,0.737183,499
34664459,9980,-0.132690,0.622681,0.736816,509
34674463,10004,-0.133911,0.621216,0.735840,509
34684470,10007,-0.136841,0.620117,0.736206,503
34694475,10005,-0.137085,0.618408,0.739014,508
34704482,10007,-0.138062,0.618042,0.744385,511
34714469,9987,-0.140259,0.621338,0.747192,513
34724469,10000,-0.146240,0.622559,0.754517,512
34734458,9989,-0.148193,0.620361,0.757202,512
34744460,10002,-0.148193,0.617676,0.756348,514
34754470,10010,-0.148804,0.621338,0.752441,514
34764481,10011,-0.145386,0.622314,0.748047,507
34774478,9997,-0.141235,0.620117,0.735962,513
34784480,10002,-0.136841,0.616699,0.731201,510
34794494,10014,-0.136108,0.615967,0.729126,506
34804473,9979,-0.134033,0.615967,0.728027,508
34814460,9987,-0.136353,0.617432,0.728027,507
34824483,10023,-0.136353,0.615356,0.731934,507
34834472,9989,-0.137817,0.611084,0.743896,500
34844483,10011,-0.140259,0.613037,0.748291,500
34854475,9992,-0.140503,0.614014,0.747559,505
34864471,9996,-0.137817,0.610962,0.744263,499
34874462,9991,-0.136353,0.610718,0.742310,501
34884456,9994,-0.136597,0.613525,0.743530,505
34894481,10025,-0.135620,0.614380,0.741333,503
34904481,10000,-0.132568,0.612305,0.735352,502
34914476,9995,-0.128296,0.609131,0.728271,506
34924479,10003,-0.126465,0.606079,0.723877,503
34934462,9983,-0.124756,0.602539,0.722046,504
34944458,9996,-0.126343,0.608643,0.729980,506
34954463,10005,-0.126343,0.612793,0.736572,504
34964479,10016,-0.128418,0.614258,0.743896,500
34974460,9981,-0.131836,0.616089,0.747437,507
34984485,10025,-0.132812,0.614258,0.746948,508
34994473,9988,-0.133545,0.615845,0.741455,505
35004502,10029,-0.135376,0.612793,0.739258,509
35014471,9969,-0.134644,0.614014,0.738281,512
35024472,10001,-0.135864,0.613525,0.737061,523
35034469,9997,-0.135254,0.612061,0.736938,530
35044485,10016,-0.136963,0.611450,0.736694,530
35054456,9971,-0.135986,0.610718,0.738525,537
35064477,10021,-0.137329,0.615479,0.739014,542
35074465,9988,-0.137085,0.617798,0.739990,547
35084459,9994,-0.136963,0.619995,0.744385,547
35094486,10027,-0.137573,0.623657,0.745850,542
35104477,9991,-0.136108,0.623657,0.743896,539
35114462,9985,-0.134644,0.618042,0.740234,540
35124461,9999,-0.135620,0.615234,0.738892,534
35134473,10012,-0.135986,0.612061,0.737427,529
35144466,9993,-0.135742,0.605713,0.735962,521
35154458,9992,-0.136353,0.603638,0.733521,515
35164465,10007,-0.136963,0.604614,0.734741,512
35174485,10020,-0.138794,0.605469,0.740112,507
35184463,9978,-0.140991,0.611084,0.743896,502
35194460,9997,-0.141357,0.613770,0.744507,500
35204469,10009,-0.140015,0.611938,0.743408,496
35214464,9995,-0.137695,0.609863,0.741943,490
35224474,10010,-0.135376,0.610474,0.741821,490
35234462,9988,-0.135498,0.614014,0.740356,494
35244478,10016,-0.136963,0.618164,0.740845,494
35254479,10001,-0.136841,0.617676,0.741821,496
35264483,10004,-0.137695,0.618774,0.743774,492
35274467,9984,-0.138306,0.621582,0.747681,498
35284481,10014,-0.137817,0.623779,0.743652,502
35294460,9979,-0.135742,0.622192,0.741455,498
35304486,10026,-0.135864,0.620972,0.740356,505
35314477,9991,-0.137085,0.619019,0.739380,508
35324473,9996,-0.139893,0.615356,0.741211,502
35334469,9996,-0.144287,0.616211,0.746094,508
35344474,10005,-0.144531,0.617920,0.746094,512
35354464,9990,-0.143677,0.616699,0.748413,512
35364475,10011,-0.141235,0.617310,0.746094,512
35374456,9981,-0.138794,0.619019,0.743530,514
35384461,10005,-0.131958,0.622803,0.738525,510
35394484,10023,-0.132446,0.624023,0.739014,511
35404486,10002,-0.134033,0.619995,0.740479,512
35414468,9982,-0.135620,0.613037,0.741333,509
35424483,10015,-0.137939,0.609009,0.743164,510
35434482,9999,-0.140137,0.605591,0.744385,508
35444461,9979,-0.139526,0.605469,0.744141,509
35454463,10002,-0.137207,0.608154,0.742310,501
35464475,10012,-0.135132,0.609863,0.739136,505
35474473,9998,-0.135010,0.610718,0.736206,504
35484465,9992,-0.133301,0.608154,0.735596,505
35494480,10015,-0.132690,0.605103,0.732056,505
35504475,9995,-0.134644,0.605347,0.733643,497
35514485,10010,-0.135864,0.606689,0.738525,497
35524465,9980,-0.137695,0.607788,0.741211,503
35534473,10008,-0.137207,0.606934,0.743286,499
35544468,9995,-0.135742,0.609497,0.744385,504
35554476,10008,-0.134277,0.609253,0.738037,506
35564483,10007,-0.133789,0.607910,0.732300,501
35574460,9977,-0.133667,0.606812,0.732666,503
35584472,10012,-0.132446,0.609741,0.738892,507
35594462,9990,-0.137085,0.616943,0.745117,504
35604478,10016,-0.135376,0.615356,0.748657,506
35614466,9988,-0.136719,0.613037,0.748901,508
35624466,10000,-0.135620,0.613770,0.742432,507
35634468,10002,-0.135376,0.612305,0.738159,514
35644483,10015,-0.134644,0.609985,0.738647,515
35654459,9976,-0.137085,0.610107,0.740723,520
35664457,9998,-0.139648,0.617920,0.744873,525
35674468,10011,-0.139771,0.622192,0.745850,533
35684466,9998,-0.140137,0.624268,0.746826,536
35694483,10017,-0.139893,0.620605,0.747925,542
35704459,9976,-0.139771,0.617065,0.746216,541
35714474,10015,-0.139160,0.616577,0.743164,548
35724465,9991,-0.140381,0.618774,0.745605,551
35734458,9993,-0.141968,0.619019,0.746948,548
35744464,10006,-0.142212,0.617676,0.747070,542
35754458,9994,-0.142578,0.617554,0.746094,540
35764460,10002,-0.142334,0.614502,0.744141,535
35774483,10023,-0.141357,0.609863,0.743896,528
35784459,9976,-0.140991,0.608398,0.741577,522
35794473,10014,-0.138306,0.605469,0.739136,510
35804476,10003,-0.134766,0.605713,0.735229,511
35814474,9998,-0.132568,0.609009,0.735840,508
35824481,10007,-0.132935,0.620361,0.741943,503
35834473,9992,-0.134033,0.620972,0.742065,499
35844459,9986,-0.134033,0.617920,0.740967,497
35854482,10023,-0.133423,0.613403,0.741089,495
35864482,10000,-0.132446,0.609741,0.740723,493
35874471,9989,-0.133545,0.607178,0.740112,494
35884458,9987,-0.135132,0.604736,0.742432,493
35894479,10021,-0.134277,0.604980,0.741943,497
35904466,9987,-0.134521,0.605713,0.739136,493
35914460,9994,-0.132690,0.607300,0.738403,498
35924469,10009,-0.133911,0.612549,0.741333,500
35934482,10013,-0.135986,0.618652,0.747803,502
35944486,10004,-0.137207,0.618530,0.747314,506
35954476,9990,-0.136475,0.619263,0.744141,507
35964499,10023,-0.136841,0.615967,0.742187,509
35974460,9961,-0.137451,0.611450,0.740967,510
35984481,10021,-0.137939,0.609375,0.738037,508
35994482,10001,-0.139160,0.605469,0.737061,512
36004480,9998,-0.139526,0.610107,0.739380,512
36014467,9987,-0.140503,0.613403,0.742798,514
36024480,10013,-0.138916,0.613159,0.748047,508
36034458,9978,-0.140747,0.614624,0.750854,512
36044462,10004,-0.138062,0.620239,0.744751,511
36054482,10020,-0.137939,0.618164,0.744019,507
36064475,9993,-0.138550,0.615601,0.742065,510
36074483,10008,-0.139648,0.612793,0.739868,508
36084476,9993,-0.140625,0.610352,0.739258,507
36094468,9992,-0.139648,0.607544,0.735840,507
36104470,10002,-0.138428,0.607056,0.736816,501
36114474,10004,-0.135376,0.606689,0.736328,499
36124471,9997,-0.135254,0.610107,0.736206,501
36134458,9987,-0.135498,0.610840,0.738159,506
36144466,10008,-0.136108,0.610962,0.739136,500
36154472,10006,-0.138306,0.605225,0.743408,503
36164483,10011,-0.139160,0.605957,0.748047,503
36174474,9991,-0.140503,0.607666,0.749878,505
36184458,9984,-0.139771,0.608887,0.751343,503
36194475,10017,-0.139282,0.609253,0.747192,506
36204463,9988,-0.137451,0.606079,0.742187,506
36214462,9999,-0.134277,0.604248,0.728638,505
36224478,10016,-0.129395,0.605347,0.730957,507
36234458,9980,-0.130127,0.610229,0.736206,499
36244468,10010,-0.129517,0.616333,0.739624,499
36254469,10001,-0.128906,0.624268,0.744507,504
36264475,10006,-0.131470,0.626099,0.750610,507
36274484,10009,-0.130981,0.617310,0.747437,508
36284484,10000,-0.133423,0.613159,0.743896,509
36294459,9975,-0.135254,0.610596,0.741089,518
36304467,10008,-0.137329,0.613281,0.741333,523
36314467,10000,-0.141235,0.617310,0.743774,529
36324465,9998,-0.143555,0.612793,0.748047,530
36334478,10013,-0.144165,0.611938,0.744629,539
36344463,9985,-0.143677,0.612549,0.742187,546
36354479,10016,-0.141846,0.612793,0.742187,549
36364457,9978,-0.140259,0.614380,0.740234,552
36374464,10007,-0.140503,0.618164,0.741699,549
36384472,10008,-0.140381,0.618896,0.743774,550
36394463,9991,-0.142090,0.620605,0.746338,543
36404465,10002,-0.143555,0.620361,0.749146,537
36414464,9999,-0.143921,0.616943,0.749878,530
36424468,10004,-0.143311,0.612305,0.750366,522
36434485,10017,-0.141113,0.607422,0.746948,518
36444480,9995,-0.138306,0.609863,0.743652,507
36454484,10004,-0.135010,0.612793,0.742187,508
36464479,9995,-0.133179,0.614990,0.741699,505
36474497,10018,-0.132080,0.618042,0.740967,500
36484485,9988,-0.129272,0.619263,0.734985,495
36494465,9980,-0.128418,0.612915,0.734863,493
36504483,10018,-0.128174,0.606689,0.734497,493
36514465,9982,-0.129395,0.602417,0.734497,488
36524477,10012,-0.130981,0.601440,0.734619,487
36534506,10029,-0.133179,0.601929,0.737915,491
36544469,9963,-0.135376,0.605713,0.743408,487
36554458,9989,-0.137085,0.607422,0.745972,491
36564463,10005,-0.137817,0.610107,0.747559,499
36574462,9999,-0.139648,0.610718,0.748535,498
36584479,10017,-0.140015,0.608643,0.746460,504
36594456,9977,-0.136963,0.610962,0.742187,507
36604482,10026,-0.137451,0.615601,0.739990,503
36614482,10000,-0.136597,0.617310,0.738770,511
36624474,9992,-0.136841,0.618164,0.738403,512
36634479,10005,-0.136841,0.617798,0.737061,509
36644458,9979,-0.136963,0.617676,0.739258,513
36654475,10017,-0.142334,0.618530,0.746460,510
36664471,9996,-0.143066,0.619385,0.747681,516
36674463,9992,-0.143799,0.618042,0.748169,511
36684472,10009,-0.144897,0.617065,0.750244,512
36694460,9988,-0.145020,0.616211,0.748901,505
36704471,10011,-0.141724,0.613403,0.746216,510
36714486,10015,-0.140503,0.613403,0.740845,510
36724484,9998,-0.137573,0.613647,0.737915,508
36734481,9997,-0.136597,0.614624,0.735352,507
36744475,9994,-0.137939,0.614258,0.736816,500
36754491,10016,-0.137207,0.612793,0.739502,504
36764459,9968,-0.138184,0.613159,0.741577,503
36774483,10024,-0.138794,0.612305,0.743408,504
36784464,9981,-0.139404,0.613525,0.745605,498
36794482,10018,-0.139160,0.612793,0.746338,500
36804467,9985,-0.138916,0.610474,0.746216,500
36814487,10020,-0.136230,0.609009,0.739746,502
36824456,9969,-0.134033,0.608643,0.738037,498
36834471,10015,-0.132568,0.609009,0.739502,504
36844483,10012,-0.133545,0.610229,0.743286,504
36854475,9992,-0.136230,0.612305,0.744629,498
36864457,9982,-0.138916,0.613770,0.742920,499
36874467,10010,-0.133789,0.607056,0.732666,508
36884482,10015,-0.132690,0.602295,0.729126,503
36894476,9994,-0.133057,0.603394,0.729858,500
36904467,9991,-0.134033,0.608154,0.736328,502
36914485,10018,-0.135010,0.612549,0.740601,507
36924472,9987,-0.133301,0.615479,0.748291,502
36934481,10009,-0.133789,0.616211,0.747437,508
36944471,9990,-0.134644,0.614624,0.744141,510
36954482,10011,-0.135132,0.613525,0.742798,508
36964478,9996,-0.137085,0.613159,0.742920,513
36974483,10005,-0.139771,0.612305,0.742920,522
36984456,9973,-0.141724,0.614502,0.746460,531
36994459,10003,-0.141113,0.614380,0.745361,531
37004480,10021,-0.138916,0.612793,0.743408,535
37014458,9978,-0.139038,0.613892,0.741333,540
37024483,10025,-0.137451,0.614990,0.740601,549
37034473,9990,-0.137939,0.616211,0.740967,546
37044464,9991,-0.139282,0.615112,0.742920,550
37054470,10006,-0.138916,0.617676,0.744385,546
37064471,10001,-0.139648,0.619995,0.746338,541
37074457,9986,-0.140137,0.619995,0.746948,533
37084471,10014,-0.138306,0.618286,0.747925,530
37094513,10042,-0.139282,0.617065,0.744263,520
37104488,9975,-0.138428,0.614014,0.742554,518
37114480,9992,-0.135864,0.609253,0.741333,515
37124483,10003,-0.137329,0.608521,0.740112,509
37134464,9981,-0.137573,0.609375,0.742798,503
37144463,9999,-0.138550,0.611328,0.743530,498
37154462,9999,-0.135620,0.610596,0.741577,491
37164481,10019,-0.134766,0.609131,0.738647,495
37174476,9995,-0.131836,0.607544,0.736084,495
37184471,9995,-0.131958,0.605957,0.734253,493
37194468,9997,-0.129883,0.602905,0.731445,493
37204476,10008,-0.132446,0.605957,0.736206,495
37214460,9984,-0.134155,0.608765,0.742187,496
37224462,10002,-0.137207,0.611694,0.746826,495
37234468,10006,-0.139282,0.615234,0.749878,499
37244475,10007,-0.139771,0.618896,0.750244,502
37254461,9986,-0.139648,0.619629,0.746094,504
37264460,9999,-0.138550,0.614868,0.740479,505
37274481,10021,-0.135742,0.611694,0.734253,507
37284470,9989,-0.135376,0.614136,0.734009,508
37294473,10003,-0.136353,0.617065,0.735962,512
37304472,9999,-0.136841,0.617310,0.737305,512
37314483,10011,-0.140991,0.614624,0.740112,512
37324473,9990,-0.139771,0.614258,0.743164,509
37334464,9991,-0.141113,0.614502,0.742554,513
37344493,10029,-0.141113,0.613159,0.741821,512
37354467,9974,-0.142212,0.612793,0.742187,512
37364463,9996,-0.142944,0.610229,0.743408,505
37374473,10010,-0.142700,0.611572,0.747925,510
37384469,9996,-0.142700,0.617065,0.749390,508
37394457,9988,-0.142090,0.621826,0.748047,503
37404457,10000,-0.141357,0.621704,0.747192,502
37414496,10039,-0.138428,0.616821,0.745728,504
37424464,9968,-0.135986,0.614624,0.739746,506
37434462,9998,-0.134888,0.614502,0.737183,502
37444478,10016,-0.133667,0.614258,0.736328,496
37454464,9986,-0.133789,0.613281,0.737183,501
37464459,9995,-0.134033,0.615234,0.739868,499
37474459,10000,-0.134155,0.614258,0.741333,496
37484456,9997,-0.136719,0.612793,0.742798,502
37494466,10010,-0.136230,0.610596,0.742676,496
37504458,9992,-0.135620,0.609009,0.739990,496
37514471,10013,-0.134277,0.609375,0.736816,503
37524477,10006,-0.134277,0.609741,0.738281,503
37534464,9987,-0.132324,0.614136,0.740112,501
37544457,9993,-0.131958,0.614014,0.739380,505
37554458,10001,-0.131348,0.614746,0.736938,502
37564480,10022,-0.130737,0.612671,0.729980,503
37574478,9998,-0.129883,0.606079,0.726929,506
37584481,10003,-0.131470,0.606079,0.737183,504
37594465,9984,-0.139038,0.616699,0.743164,504
37604464,9999,-0.140259,0.619385,0.748657,504
37614474,10010,-0.140381,0.616821,0.751221,506
37624465,9991,-0.141235,0.616455,0.749878,503
37634490,10025,-0.140869,0.614014,0.742554,510
37644481,9991,-0.139282,0.609009,0.734009,506
37654476,9995,-0.139160,0.610840,0.733643,518
37664466,9990,-0.142090,0.611816,0.735107,524
37674483,10017,-0.142700,0.614990,0.738647,529
37684457,9974,-0.140381,0.616089,0.739624,533
37694457,10000,-0.140503,0.619507,0.739868,538
37704492,10035,-0.142090,0.622681,0.742187,546
37714483,9991,-0.141479,0.622803,0.744629,542
37724479,9996,-0.141846,0.618408,0.746704,547
37734485,10006,-0.141968,0.617432,0.746216,542
37744481,9996,-0.140381,0.618774,0.745117,545
37754472,9991,-0.141113,0.617310,0.747803,542
37764461,9989,-0.138550,0.616577,0.746582,533
37774484,10023,-0.137695,0.615234,0.742065,528
37784475,9991,-0.135376,0.613281,0.738770,522
37794462,9987,-0.134155,0.614136,0.739502,516
37804483,10021,-0.134277,0.613403,0.739136,506
37814465,9982,-0.131470,0.610840,0.743774,507
37824475,10010,-0.132446,0.613281,0.745361,502
37834456,9981,-0.133423,0.616333,0.745361,495
37844464,10008,-0.132202,0.618896,0.744385,495
37854476,10012,-0.128662,0.616455,0.738770,496
37864466,9990,-0.127441,0.607666,0.731812,490
37874467,10001,-0.129761,0.609131,0.730957,491
37884478,10011,-0.130127,0.608643,0.733765,494
37894472,9994,-0.134644,0.609131,0.735596,494
37904484,10012,-0.136841,0.607544,0.737793,495
37914475,9991,-0.137695,0.606934,0.739380,496
37924479,10004,-0.138794,0.609497,0.738770,496
37934467,9988,-0.140503,0.612671,0.740112,502
37944481,10014,-0.141479,0.617920,0.742554,505
37954466,9985,-0.143188,0.621094,0.743408,505
37964461,9995,-0.142700,0.620728,0.743042,505
37974459,9998,-0.142334,0.613525,0.735718,507
37984473,10014,-0.140137,0.612061,0.730957,504
37994482,10009,-0.140503,0.613403,0.728394,512
38004475,9993,-0.140137,0.613037,0.726562,513
38014457,9982,-0.140137,0.610840,0.727661,513
38024507,10050,-0.140381,0.608276,0.731934,511
38034460,9953,-0.144043,0.617554,0.744995,510
38044483,10023,-0.147461,0.622192,0.750366,509
38054478,9995,-0.148804,0.621460,0.753906,508
38064469,9991,-0.148315,0.620239,0.754517,507
38074460,9991,-0.145874,0.616821,0.751099,506
38084462,10002,-0.140381,0.616211,0.742187,506
38094480,10018,-0.140625,0.615479,0.737305,506
38104467,9987,-0.136841,0.612427,0.737793,506
38114471,10004,-0.133911,0.614136,0.735229,505
38124482,10011,-0.133179,0.614380,0.733765,503
38134459,9977,-0.133057,0.615356,0.734985,503
38144478,10019,-0.133667,0.620728,0.741577,502
38154482,10004,-0.135864,0.623413,0.743774,499
38164471,9989,-0.136230,0.622437,0.744873,502
38174479,10008,-0.139282,0.621094,0.743652,497
38184457,9978,-0.139771,0.614746,0.742676,502
38194480,10023,-0.138428,0.604492,0.736572,496
38204479,9999,-0.138550,0.606445,0.739624,502
38214476,9997,-0.139893,0.612305,0.744873,503
38224458,9982,-0.141235,0.616699,0.750000,499
38234471,10013,-0.141968,0.619751,0.751587,499
38244461,9990,-0.141968,0.618286,0.751221,501
38254456,9995,-0.139893,0.613892,0.735962,505
38264460,10004,-0.137329,0.612061,0.731567,503
38274486,10026,-0.137085,0.610718,0.732056,506
38284476,9990,-0.137451,0.611938,0.734741,504
38294460,9984,-0.137329,0.616211,0.737183,507
38304464,10004,-0.133789,0.615479,0.740112,505
38314481,10017,-0.133911,0.614502,0.739624,508
38324458,9977,-0.135254,0.611694,0.737793,508
38334480,10022,-0.134888,0.608276,0.734497,505
38344461,9981,-0.138184,0.607422,0.734985,513
38354466,10005,-0.140137,0.607056,0.739990,519
38364485,10019,-0.144409,0.613892,0.747192,527
38374484,9999,-0.143555,0.615967,0.749512,529
38384481,9997,-0.142090,0.620239,0.750122,536
38394480,9999,-0.139282,0.621582,0.745972,549
38404469,9989,-0.136597,0.621948,0.742676,548
38414469,10000,-0.136230,0.620728,0.737061,546
38424485,10016,-0.135010,0.619507,0.737183,544
38434467,9982,-0.135986,0.617310,0.740234,550
38444481,10014,-0.137329,0.618164,0.740356,544
38454466,9985,-0.137451,0.618164,0.742310,542
38464477,10011,-0.137817,0.619263,0.744385,535
38474463,9986,-0.138550,0.618774,0.745605,530
38484463,10000,-0.137207,0.614380,0.740356,523
38494469,10006,-0.135986,0.608276,0.737183,518
38504464,9995,-0.136719,0.603882,0.738403,511
38514471,10007,-0.138916,0.603638,0.737915,508
38524463,9992,-0.138672,0.604858,0.737183,501
38534475,10012,-0.136475,0.603638,0.737671,494
38544479,10004,-0.135132,0.604370,0.736938,495
38554476,9997,-0.134766,0.609009,0.737671,488
38564462,9986,-0.136353,0.616821,0.739502,491
38574476,10014,-0.138062,0.619629,0.738037,491
38584496,10020,-0.137329,0.614990,0.740845,487
38594482,9986,-0.137573,0.615845,0.742310,493
38604463,9981,-0.139893,0.618896,0.741455,495
38614477,10014,-0.140381,0.620483,0.742432,498
38624457,9980,-0.141235,0.617432,0.739502,499
38634482,10025,-0.141357,0.614014,0.741211,496
38644498,10016,-0.142212,0.610840,0.739746,504
38654460,9962,-0.140869,0.613647,0.739380,507
38664457,9997,-0.142700,0.618286,0.738281,507
38674456,9999,-0.141479,0.618896,0.736572,507
38684473,10017,-0.139893,0.619507,0.735962,512
38694483,10010,-0.139038,0.616821,0.737427,508
38704470,9987,-0.140503,0.618164,0.740234,513
38714473,10003,-0.141724,0.620117,0.742065,514
38724459,9986,-0.141602,0.620972,0.743896,513
38734457,9998,-0.141724,0.619507,0.744507,514
38744463,10006,-0.141235,0.617310,0.741699,511
38754484,10021,-0.141235,0.613647,0.739258,510
38764480,9996,-0.140137,0.611328,0.735229,506
38774475,9995,-0.138672,0.610229,0.736084,502
38784474,9999,-0.138306,0.610229,0.739258,504
38794476,10002,-0.138916,0.612671,0.739136,502
38804476,10000,-0.134155,0.613770,0.735474,505
38814456,9980,-0.132446,0.613159,0.734741,503
38824460,10004,-0.134033,0.615479,0.738403,503
38834472,10012,-0.135742,0.617310,0.742432,504
38844465,9993,-0.138916,0.618774,0.743286,502
38854484,10019,-0.136108,0.617676,0.740967,499
38864481,9997,-0.133179,0.614746,0.734497,501
38874473,9992,-0.134644,0.617554,0.739502,498
38884469,9996,-0.138672,0.618896,0.744019,503
38894475,10006,-0.138916,0.617920,0.746338,502
38904490,10015,-0.139160,0.616455,0.744751,503
38914477,9987,-0.134888,0.612915,0.735352,494
38924474,9997,-0.134521,0.612061,0.732788,503
38934462,9988,-0.135254,0.610229,0.734497,504
38944457,9995,-0.135742,0.614014,0.738525,499
38954469,10012,-0.135132,0.617065,0.739502,505
38964467,9998,-0.135376,0.620361,0.740845,504
38974507,10040,-0.134644,0.617554,0.742554,504
38984467,9960,-0.136963,0.615845,0.738403,502
38994462,9995,-0.136963,0.614868,0.735840,502
39004466,10004,-0.136719,0.613770,0.735107,504
39014458,9992,-0.137573,0.614014,0.732422,514
39024478,10020,-0.140991,0.613159,0.738403,521
39034475,9997,-0.142700,0.617065,0.740845,528
39044475,10000,-0.143677,0.620117,0.742310,528
39054481,10006,-0.143433,0.621460,0.744141,540
39064469,9988,-0.142578,0.620483,0.743652,539
39074463,9994,-0.140015,0.620972,0.741821,549
39084486,10023,-0.139038,0.624023,0.741699,552
39094471,9985,-0.137817,0.624878,0.741333,546
39104479,10008,-0.137695,0.621460,0.739014,543
39114467,9988,-0.136108,0.617920,0.739380,548
39124462,9995,-0.135620,0.617554,0.737061,537
39134467,10005,-0.138062,0.613403,0.739014,536
39144476,10009,-0.139893,0.610229,0.738892,531
39154460,9984,-0.137695,0.609253,0.738892,522
39164475,10015,-0.137451,0.612427,0.738403,516
39174481,10006,-0.136230,0.613525,0.738525,506
39184462,9981,-0.137817,0.615845,0.738770,504
39194463,10001,-0.136475,0.616333,0.738892,502
39204457,9994,-0.133179,0.614746,0.737793,495
39214485,10028,-0.129639,0.612549,0.734009,495
39224468,9983,-0.128296,0.613770,0.731201,491
39234459,9991,-0.127075,0.615234,0.731323,489
39244486,10027,-0.129639,0.617065,0.734741,486
39254459,9973,-0.132935,0.617432,0.735840,491
39264470,10011,-0.133057,0.615967,0.739746,490
39274470,10000,-0.134399,0.612915,0.740234,494
39284507,10037,-0.133911,0.614624,0.742187,491
39294486,9979,-0.134399,0.618896,0.740356,497
39304487,10001,-0.134644,0.622192,0.738403,503
39314457,9970,-0.134644,0.621582,0.735474,501
39324464,10007,-0.133911,0.620483,0.733398,500
39334466,10002,-0.134521,0.619751,0.733521,508
39344465,9999,-0.136230,0.616577,0.732056,506
39354465,10000,-0.134888,0.613892,0.731689,511
39364462,9997,-0.137085,0.614624,0.732666,511
39374469,10007,-0.136841,0.613159,0.734009,512
39384480,10011,-0.138062,0.614380,0.737427,513
39394459,9979,-0.142090,0.616333,0.739746,509
39404465,10006,-0.144653,0.614624,0.742798,512
39414470,10005,-0.142700,0.610718,0.743774,511
39424473,10003,-0.140381,0.609131,0.742187,511
39434474,10001,-0.138550,0.610596,0.740112,510
39444480,10006,-0.137939,0.614136,0.738770,507
39454466,9986,-0.136597,0.617310,0.736694,506
39464459,9993,-0.134155,0.618408,0.732544,503
39474479,10020,-0.134521,0.616943,0.732056,506
39484459,9980,-0.133789,0.616089,0.733887,502
39494470,10011,-0.135742,0.616943,0.736206,496
39504463,9993,-0.138306,0.617554,0.739014,503
39514457,9994,-0.137939,0.618042,0.739624,510
39524458,10001,-0.138550,0.618530,0.747192,499
39534460,10002,-0.138062,0.620117,0.751099,503
39544474,10014,-0.138794,0.621826,0.750366,497
39554468,9994,-0.138550,0.624023,0.744873,495
39564480,10012,-0.135254,0.621460,0.739502,501
39574458,9978,-0.134521,0.618774,0.728149,507
39584489,10031,-0.133057,0.613525,0.727783,498
39594480,9991,-0.133057,0.613159,0.731812,500
39604460,9980,-0.132812,0.615234,0.736694,505
39614477,10017,-0.133423,0.614868,0.740723,497
39624468,9991,-0.134033,0.613770,0.743774,505
39634478,10010,-0.140625,0.614990,0.744995,499
39644477,9999,-0.140625,0.614380,0.744995,509
39654483,10006,-0.143066,0.615479,0.744751,508
39664470,9987,-0.143066,0.616577,0.742920,517
39674468,9998,-0.143066,0.617676,0.743164,519
39684473,10005,-0.139526,0.620728,0.739868,533
39694483,10010,-0.137573,0.624390,0.735840,537
39704466,9983,-0.137817,0.624512,0.734985,538
39714482,10016,-0.137085,0.621460,0.734131,551
39724475,9993,-0.136719,0.616333,0.733032,547
39734484,10009,-0.138672,0.613159,0.733398,552
39744478,9994,-0.143311,0.609619,0.739746,547
39754483,10005,-0.143799,0.608398,0.742432,551
39764462,9979,-0.141968,0.606079,0.743408,547
39774483,10021,-0.140259,0.607910,0.743042,540
39784472,9989,-0.139893,0.611328,0.742187,527
39794480,10008,-0.140015,0.613037,0.740967,526
39804456,9976,-0.136353,0.612427,0.736938,518
39814479,10023,-0.133545,0.612183,0.733765,512
39824456,9977,-0.133545,0.611938,0.733887,505
39834467,10011,-0.134033,0.615112,0.734863,501
39844456,9989,-0.133911,0.614136,0.737183,500
39854479,10023,-0.133789,0.611328,0.734619,495
39864465,9986,-0.133301,0.612061,0.735229,493
39874461,9996,-0.135010,0.612061,0.737793,489
39884484,10023,-0.135254,0.610840,0.739014,486
39894462,9978,-0.136108,0.613281,0.741455,490
39904467,10005,-0.136719,0.613525,0.743774,487
39914464,9997,-0.138794,0.617432,0.747437,494
39924471,10007,-0.140015,0.618286,0.748657,494
39934463,9992,-0.140747,0.619019,0.746460,497
39944477,10014,-0.138916,0.617432,0.743652,502
39954468,9991,-0.138306,0.618042,0.739746,496
39964474,10006,-0.140015,0.619263,0.736084,507
39974480,10006,-0.138794,0.614258,0.736816,507
39984481,10001,-0.138184,0.614380,0.731567,511
39994461,9980,-0.138062,0.619873,0.732544,512
40004481,10020,-0.142578,0.624390,0.737183,512
40014470,9989,-0.142090,0.621094,0.742310,507
40024467,9997,-0.145508,0.616699,0.746460,513
40034456,9989,-0.144531,0.615967,0.747070,513
40044473,10017,-0.144409,0.615601,0.746948,511
40054476,10003,-0.145020,0.615112,0.748169,512
40064481,10005,-0.144897,0.617065,0.746948,508
40074481,10000,-0.141968,0.617187,0.742310,506
40084466,9985,-0.140747,0.617676,0.739624,510
40094478,10012,-0.137451,0.616089,0.736084,501
40104458,9980,-0.135864,0.613770,0.732666,503
40114463,10005,-0.134521,0.613281,0.732178,502
40124482,10019,-0.136963,0.613159,0.733276,505
40134462,9980,-0.139648,0.608276,0.736328,500
