t_us,dt_us,ax,ay,az,ppg
17974612,10000,0.684692,-0.731323,-0.190552,505
17984628,10016,0.682861,-0.729370,-0.191040,513
17994630,10002,0.682495,-0.726562,-0.192871,506
18004636,10006,0.681763,-0.723389,-0.197632,508
18014632,9996,0.677368,-0.720825,-0.205811,507
18024624,9992,0.675659,-0.721680,-0.209106,511
18034640,10016,0.675903,-0.723633,-0.210205,507
18044628,9988,0.673828,-0.725708,-0.211792,511
18054629,10001,0.674805,-0.729248,-0.211426,508
18064618,9989,0.677002,-0.731689,-0.211670,510
18074631,10013,0.679687,-0.734497,-0.211670,513
18084619,9988,0.682007,-0.734619,-0.213135,512
18094641,10022,0.682373,-0.734375,-0.213867,507
18104614,9973,0.681641,-0.732666,-0.213135,512
18114622,10008,0.679932,-0.730835,-0.211670,514
18124632,10010,0.677124,-0.729126,-0.202881,512
18134642,10010,0.676270,-0.728027,-0.197754,508
18144623,9981,0.676392,-0.729370,-0.191895,506
18154642,10019,0.677124,-0.730103,-0.188232,514
18164615,9973,0.679687,-0.728882,-0.188477,513
18174634,10019,0.681030,-0.733032,-0.188354,511
18184628,9994,0.679443,-0.738525,-0.190796,514
18194635,10007,0.681763,-0.736084,-0.192261,505
18204635,10000,0.680054,-0.733521,-0.194214,505
18214641,10006,0.677979,-0.734497,-0.196411,511
18224619,9978,0.678955,-0.730103,-0.198853,511
18234624,10005,0.677002,-0.723022,-0.198975,509
18244641,10017,0.678955,-0.725342,-0.198975,509
18254636,9995,0.681030,-0.724365,-0.197754,509
18264619,9983,0.682129,-0.724243,-0.197632,510
18274636,10017,0.683960,-0.724854,-0.196899,509
18284618,9982,0.681763,-0.725464,-0.197998,510
18294634,10016,0.682251,-0.730103,-0.197144,511
18304638,10004,0.682983,-0.727783,-0.198120,512
18314778,10140,0.681152,-0.724976,-0.199585,509
18324623,9845,0.683716,-0.723389,-0.200806,509
18334618,9995,0.683472,-0.721558,-0.201050,509
18344623,10005,0.680054,-0.723267,-0.201294,510
18354623,10000,0.681519,-0.723755,-0.200439,510
18364628,10005,0.682495,-0.725586,-0.198486,511
18374685,10057,0.676147,-0.725586,-0.201416,510
18384619,9934,0.679443,-0.726562,-0.199707,510
18394622,10003,0.675659,-0.732422,-0.200317,510
18404639,10017,0.676392,-0.740723,-0.200439,510
18414622,9983,0.672729,-0.747314,-0.201904,506
18424626,10004,0.675293,-0.746094,-0.204224,508
18434633,10007,0.675659,-0.740601,-0.205200,510
18444638,10005,0.676147,-0.737671,-0.208374,512
18454635,9997,0.676147,-0.729858,-0.210815,513
18464615,9980,0.676392,-0.727173,-0.206055,513
18474635,10020,0.675537,-0.719971,-0.207397,515
18484612,9977,0.677246,-0.718018,-0.206665,514
18494619,10007,0.676392,-0.718750,-0.205078,517
18504631,10012,0.679443,-0.719238,-0.200684,517
18515456,10825,0.682373,-0.719360,-0.199341,517
18524633,9177,0.683960,-0.719604,-0.195801,516
18534616,9983,0.685547,-0.721802,-0.193848,514
18544632,10016,0.685791,-0.722534,-0.191895,511
18554628,9996,0.685059,-0.723633,-0.192383,513
18564615,9987,0.686035,-0.723022,-0.193481,514
18574641,10026,0.684937,-0.722290,-0.195801,512
18584638,9997,0.683960,-0.721924,-0.196533,512
18594674,10036,0.681152,-0.723389,-0.199341,512
18604667,9993,0.679687,-0.724854,-0.201782,513
18614622,9955,0.677612,-0.732666,-0.203369,507
18624624,10002,0.676514,-0.735840,-0.204834,509
18634640,10016,0.674561,-0.739258,-0.205811,511
18644615,9975,0.673950,-0.740845,-0.204590,509
18654617,10002,0.674561,-0.742310,-0.205444,509
18664634,10017,0.673950,-0.742798,-0.207520,503
18674620,9986,0.673706,-0.742310,-0.209473,506
18684633,10013,0.677368,-0.743042,-0.209595,507
18694635,10002,0.668091,-0.740723,-0.211426,510
18704633,9998,0.668457,-0.737183,-0.210571,503
18714621,9988,0.666626,-0.735474,-0.210815,511
18724639,10018,0.664429,-0.731323,-0.207764,507
18734630,9991,0.665771,-0.729614,-0.207764,511
18744615,9985,0.667480,-0.729980,-0.208618,512
18754636,10021,0.670166,-0.730347,-0.210327,513
18764633,9997,0.673096,-0.729858,-0.210693,502
18774630,9997,0.673706,-0.728271,-0.211426,511
18784636,10006,0.675781,-0.729492,-0.213623,513
18794616,9980,0.673706,-0.729614,-0.214722,512
18804634,10018,0.670776,-0.728149,-0.213867,509
18814640,10006,0.670654,-0.727783,-0.212769,511
18824640,10000,0.671143,-0.728760,-0.212280,512
18834615,9975,0.672485,-0.735596,-0.210571,513
18844654,10039,0.672852,-0.736572,-0.207642,512
18854639,9985,0.674194,-0.737915,-0.206787,508
18864612,9973,0.673828,-0.737793,-0.204346,507
18874626,10014,0.674438,-0.737183,-0.203125,507
18884630,10004,0.673340,-0.735229,-0.196533,504
18894632,10002,0.672607,-0.733032,-0.192139,510
18904641,10009,0.669189,-0.731445,-0.191528,506
18914639,9998,0.671875,-0.731934,-0.189209,509
18924626,9987,0.672607,-0.735352,-0.188965,509
18934626,10000,0.673828,-0.736572,-0.190186,510
18944632,10006,0.675903,-0.733398,-0.197266,510
18954635,10003,0.675659,-0.732666,-0.203125,505
18964623,9988,0.674805,-0.732788,-0.208618,511
18974623,10000,0.674805,-0.734253,-0.214111,509
18984618,9995,0.674927,-0.734131,-0.217285,508
18994635,10017,0.671875,-0.735229,-0.218750,511
19004628,9993,0.669434,-0.732056,-0.216064,510
19014627,9999,0.665039,-0.737549,-0.213623,506
19024636,10009,0.664795,-0.737305,-0.210815,510
19034639,10003,0.667114,-0.731201,-0.207397,509
19044640,10001,0.667114,-0.739502,-0.205200,514
19054637,9997,0.671387,-0.738647,-0.204712,512
19064624,9987,0.671143,-0.737061,-0.206665,514
19074621,9997,0.673584,-0.737183,-0.208984,507
19084685,10064,0.676147,-0.735229,-0.213257,511
19094667,9982,0.674805,-0.730469,-0.215942,515
19104635,9968,0.673462,-0.722778,-0.222290,510
19114612,9977,0.663086,-0.714600,-0.222778,517
19124636,10024,0.666870,-0.720093,-0.224854,518
19134615,9979,0.667603,-0.729004,-0.222778,516
19144614,9999,0.669556,-0.727417,-0.222778,517
19154640,10026,0.672241,-0.727417,-0.222168,514
19164622,9982,0.676636,-0.732056,-0.221924,518
19174628,10006,0.678589,-0.732788,-0.223389,516
19184624,9996,0.679077,-0.732300,-0.223267,516
19194621,9997,0.676392,-0.729370,-0.225830,516
19204617,9996,0.674683,-0.725830,-0.225708,513
19214641,10024,0.669067,-0.725342,-0.228271,513
19224627,9986,0.664795,-0.729858,-0.232056,512
19234642,10015,0.665649,-0.732910,-0.230347,514
19244615,9973,0.667236,-0.740356,-0.224976,511
19254612,9997,0.664062,-0.743896,-0.223511,505
19264617,10005,0.657227,-0.740479,-0.217407,512
19274635,10018,0.664673,-0.748291,-0.210815,510
19284637,10002,0.662109,-0.751343,-0.207520,510
19294623,9986,0.659058,-0.750366,-0.203613,506
19304621,9998,0.656616,-0.747559,-0.205566,510
19314633,10012,0.658936,-0.743896,-0.206543,510
19324651,10018,0.668823,-0.735840,-0.207764,511
19334615,9964,0.672607,-0.732422,-0.210693,511
19344634,10019,0.673950,-0.729614,-0.212769,507
19354614,9980,0.674072,-0.726562,-0.218994,508
19364627,10013,0.676758,-0.725952,-0.220947,508
19374612,9985,0.676147,-0.727661,-0.224365,514
19384617,10005,0.672607,-0.731445,-0.235596,514
19394627,10010,0.672485,-0.730103,-0.237061,514
19404626,9999,0.675049,-0.729858,-0.236816,513
19414621,9995,0.671631,-0.721558,-0.234131,511
19424620,9999,0.671753,-0.714722,-0.228882,512
19434641,10021,0.670898,-0.718018,-0.211426,507
19444623,9982,0.670776,-0.724609,-0.201050,504
19454636,10013,0.669312,-0.723633,-0.199707,515
19464617,9981,0.667480,-0.728516,-0.194214,511
19474612,9995,0.666260,-0.736206,-0.189453,508
19484641,10029,0.665039,-0.740479,-0.187622,511
19494620,9979,0.666016,-0.749023,-0.188477,516
19504618,9998,0.664185,-0.755249,-0.189087,515
19514618,10000,0.666870,-0.761597,-0.190430,518
19526150,11532,0.666382,-0.759277,-0.193848,513
19534626,8476,0.665283,-0.757812,-0.196289,515
19544684,10058,0.662354,-0.752441,-0.205688,513
19554655,9971,0.660400,-0.748413,-0.208984,508
19564625,9970,0.658447,-0.742676,-0.209351,510
19574616,9991,0.656128,-0.738281,-0.211426,511
19584613,9997,0.657593,-0.735107,-0.213379,509
19594614,10001,0.658325,-0.734131,-0.213013,507
19604636,10022,0.659790,-0.735107,-0.215088,510
19614622,9986,0.660522,-0.737915,-0.213989,510
19624630,10008,0.658936,-0.740845,-0.215088,503
19634628,9998,0.657593,-0.742554,-0.217529,503
19644639,10011,0.657227,-0.744995,-0.217285,512
19654625,9986,0.662231,-0.743042,-0.222168,513
19664612,9987,0.663086,-0.742432,-0.225342,515
19674639,10027,0.667725,-0.740967,-0.224976,516
19684640,10001,0.669922,-0.738281,-0.224487,516
19694639,9999,0.671997,-0.734985,-0.222656,524
19704626,9987,0.672974,-0.733765,-0.220215,519
19714630,10004,0.673706,-0.730347,-0.211792,519
19724639,10009,0.674072,-0.728516,-0.207031,513
19734625,9986,0.676270,-0.727417,-0.202026,514
19744625,10000,0.677124,-0.728027,-0.199097,514
19754618,9993,0.676514,-0.729980,-0.197021,520
19764612,9994,0.675049,-0.733643,-0.198853,510
19774628,10016,0.674438,-0.737427,-0.198853,515
19784658,10030,0.673828,-0.739990,-0.199463,517
19794671,10013,0.672485,-0.741333,-0.202026,516
19804627,9956,0.672119,-0.740845,-0.202148,514
19814616,9989,0.669434,-0.739868,-0.207031,515
19824619,10003,0.666016,-0.736206,-0.212036,511
19834620,10001,0.662964,-0.734985,-0.215576,509
19844639,10019,0.661011,-0.736450,-0.218994,511
19854636,9997,0.656616,-0.737549,-0.222778,512
19864637,10001,0.652466,-0.737671,-0.225464,509
19874616,9979,0.649048,-0.737305,-0.229858,512
19884621,10005,0.649658,-0.739380,-0.231445,512
19894626,10005,0.650269,-0.741455,-0.234131,510
19904618,9992,0.652344,-0.742310,-0.236938,506
19914617,9999,0.654785,-0.742798,-0.237793,505
19924616,9999,0.655151,-0.745117,-0.238647,510
19934631,10015,0.666260,-0.750610,-0.230103,512
19944637,10006,0.672241,-0.751221,-0.227295,506
19954640,10003,0.669800,-0.751343,-0.229004,506
19964634,9994,0.669312,-0.752441,-0.229980,513
19974629,9995,0.670898,-0.755005,-0.230225,514
19984627,9998,0.662720,-0.737671,-0.232544,515
19994621,9994,0.663940,-0.727783,-0.236816,512
20004640,10019,0.660889,-0.717529,-0.240356,511
20014627,9987,0.656250,-0.709961,-0.238770,512
20024613,9986,0.657593,-0.707520,-0.228516,514
20034637,10024,0.654907,-0.714355,-0.211792,511
20044632,9995,0.667603,-0.734497,-0.183228,512
20054652,10020,0.669922,-0.741211,-0.173584,512
20064637,9985,0.673584,-0.743286,-0.167603,516
20074627,9990,0.678955,-0.750488,-0.166748,518
20084622,9995,0.679565,-0.758057,-0.165649,513
20094628,10006,0.679932,-0.756348,-0.168701,519
20104633,10005,0.676147,-0.750977,-0.170776,514
20114630,9997,0.670898,-0.743164,-0.172852,516
20124640,10010,0.668091,-0.738770,-0.176758,514
20134619,9979,0.665894,-0.734375,-0.183472,516
20144637,10018,0.665894,-0.733154,-0.193359,513
20154631,9994,0.662964,-0.733521,-0.218628,510
20164615,9984,0.665039,-0.740723,-0.228271,518
20174636,10021,0.657715,-0.734619,-0.231079,512
20184616,9980,0.653320,-0.728271,-0.235474,506
20194639,10023,0.658081,-0.729370,-0.239380,509
20204632,9993,0.662476,-0.729004,-0.242432,507
20214621,9989,0.664673,-0.718018,-0.242920,507
20224616,9995,0.657104,-0.717896,-0.241089,504
20234637,10021,0.659302,-0.719116,-0.238647,510
20244620,9983,0.665649,-0.717773,-0.232788,506
20254614,9994,0.667480,-0.719482,-0.193848,511
20264636,10022,0.672119,-0.735474,-0.207397,512
20274618,9982,0.672852,-0.738892,-0.202026,507
20284636,10018,0.675903,-0.742432,-0.200317,514
20294617,9981,0.673218,-0.751465,-0.200562,515
20304615,9998,0.671387,-0.756714,-0.202515,517
20314616,10001,0.672363,-0.754272,-0.206421,509
20324644,10028,0.673950,-0.756592,-0.204712,510
20334636,9992,0.671021,-0.754639,-0.200684,517
20344622,9986,0.669189,-0.754761,-0.198608,513
20354618,9996,0.669434,-0.748901,-0.193848,517
20364617,9999,0.671997,-0.731201,-0.193481,514
20374639,10022,0.674438,-0.739014,-0.191406,517
20384638,9999,0.672607,-0.736084,-0.191284,517
20394631,9993,0.668213,-0.729858,-0.193481,509
20404629,9998,0.686157,-0.716797,-0.190918,516
20414633,10004,0.685059,-0.716675,-0.194824,509
20424620,9987,0.689331,-0.717163,-0.193481,509
20434635,10015,0.679932,-0.715942,-0.192627,513
20444622,9987,0.672119,-0.717285,-0.195068,513
20454631,10009,0.670898,-0.727173,-0.199097,509
20464638,10007,0.668945,-0.734375,-0.204834,510
20474616,9978,0.667847,-0.740601,-0.244263,513
20484612,9996,0.679565,-0.756348,-0.225464,515
20494641,10029,0.676880,-0.755493,-0.232544,512
20504613,9972,0.663086,-0.748535,-0.238770,513
20514635,10022,0.653809,-0.739990,-0.242432,509
20524622,9987,0.647583,-0.730835,-0.244141,512
20534634,10012,0.648437,-0.720703,-0.237183,508
20544638,10004,0.648682,-0.716797,-0.231079,515
20554640,10002,0.655273,-0.719849,-0.221191,506
20564638,9998,0.661377,-0.726440,-0.210571,507
20574619,9981,0.668335,-0.729492,-0.201294,510
20584641,10022,0.671265,-0.730347,-0.194458,508
20594634,9993,0.670410,-0.744385,-0.181274,516
20604659,10025,0.673096,-0.745850,-0.174805,507
20614622,9963,0.670166,-0.749878,-0.168091,512
20624631,10009,0.668457,-0.755981,-0.165405,512
20634633,10002,0.666016,-0.760620,-0.164062,514
20644636,10003,0.668457,-0.762939,-0.170776,508
20654617,9981,0.667847,-0.759521,-0.178345,513
20664623,10006,0.668823,-0.757080,-0.185059,514
20674640,10017,0.669678,-0.754761,-0.191040,515
20684617,9977,0.666138,-0.752930,-0.197998,507
20694622,10005,0.662964,-0.747559,-0.203857,506
20704614,9992,0.659912,-0.739868,-0.208740,510
20714632,10018,0.660645,-0.739136,-0.208496,517
20724627,9995,0.662964,-0.738647,-0.210205,507
20734616,9989,0.662476,-0.738647,-0.212524,512
20744613,9997,0.664062,-0.739990,-0.212402,508
20754631,10018,0.667969,-0.740845,-0.211792,510
20764620,9989,0.666504,-0.740845,-0.210449,514
20774637,10017,0.664062,-0.739624,-0.207031,510
20784642,10005,0.663330,-0.740356,-0.202637,510
20794617,9975,0.662109,-0.739746,-0.198486,513
20804626,10009,0.661499,-0.741577,-0.193726,512
20814633,10007,0.664429,-0.744751,-0.187500,517
20824623,9990,0.665649,-0.746338,-0.187134,509
20834641,10018,0.666626,-0.745728,-0.186523,511
20844657,10016,0.666870,-0.746094,-0.189819,509
20854655,9998,0.666870,-0.746948,-0.192627,512
20864638,9983,0.669800,-0.744995,-0.196167,511
20874631,9993,0.672119,-0.745483,-0.195679,512
20884626,9995,0.676514,-0.744263,-0.196655,508
20894638,10012,0.679199,-0.737549,-0.197144,512
20904619,9981,0.679687,-0.729736,-0.200317,520
20914630,10011,0.678101,-0.723267,-0.208374,514
20924633,10003,0.680664,-0.718628,-0.210083,515
20934618,9985,0.677734,-0.719604,-0.207642,524
20944626,10008,0.674316,-0.721680,-0.203247,519
20954619,9993,0.670532,-0.725098,-0.197632,520
20964613,9994,0.667603,-0.730103,-0.192383,525
20974617,10004,0.658936,-0.734253,-0.188843,526
20984640,10023,0.656250,-0.737671,-0.188843,521
20994622,9982,0.651001,-0.742065,-0.192627,520
21004641,10019,0.651855,-0.734253,-0.197876,512
21014636,9995,0.642090,-0.749146,-0.199341,518
21024639,10003,0.646851,-0.769653,-0.201050,510
21034635,9996,0.650879,-0.781616,-0.206299,511
21044613,9978,0.657349,-0.783691,-0.208984,512
21054618,10005,0.658081,-0.778687,-0.213135,512
21064630,10012,0.657471,-0.774902,-0.218140,506
21074639,10009,0.657715,-0.764893,-0.221069,512
21084636,9997,0.653931,-0.745605,-0.221924,510
21094629,9993,0.653809,-0.736694,-0.217285,508
21104623,9994,0.654175,-0.730103,-0.214966,510
21114641,10018,0.656128,-0.726440,-0.212280,510
21124632,9991,0.659424,-0.725708,-0.208740,509
21134625,9993,0.663574,-0.730103,-0.207642,506
21144640,10015,0.669678,-0.738037,-0.203491,511
21154624,9984,0.670288,-0.742065,-0.201538,509
21164628,10004,0.671143,-0.746582,-0.200562,511
21174618,9990,0.673218,-0.745483,-0.199951,507
21184638,10020,0.671509,-0.741699,-0.195801,510
21194625,9987,0.665649,-0.736328,-0.193115,511
21204619,9994,0.663574,-0.734863,-0.191284,514
21214638,10019,0.664429,-0.734985,-0.191284,513
21224613,9975,0.667236,-0.738403,-0.192627,512
21234633,10020,0.668335,-0.742187,-0.196045,513
21244637,10004,0.670288,-0.743408,-0.199097,506
21254621,9984,0.671509,-0.744141,-0.205200,509
21264633,10012,0.671143,-0.741455,-0.206177,504
21274614,9981,0.672119,-0.737183,-0.206055,514
21284633,10019,0.671021,-0.732056,-0.203735,505
21294630,9997,0.668945,-0.729980,-0.200073,512
21304624,9994,0.666992,-0.728516,-0.193237,511
21314613,9989,0.666870,-0.731689,-0.191650,510
21324612,9999,0.667847,-0.735962,-0.193481,510
21334630,10018,0.668701,-0.742065,-0.194580,511
21344622,9992,0.667969,-0.745483,-0.196167,512
21354641,10019,0.668701,-0.747803,-0.198120,511
21364614,9973,0.660522,-0.745239,-0.203735,504
21374625,10011,0.660767,-0.741455,-0.205811,511
21384633,10008,0.658691,-0.737427,-0.207764,513
21394614,9981,0.657715,-0.734497,-0.209106,512
21404636,10022,0.656860,-0.734253,-0.208252,510
21414640,10004,0.652344,-0.739014,-0.207153,509
21424636,9996,0.654175,-0.745483,-0.207886,505
21434632,9996,0.657104,-0.750610,-0.209717,504
21444627,9995,0.660889,-0.752075,-0.209717,505
21454614,9987,0.666626,-0.753296,-0.210815,506
21464626,10012,0.667969,-0.753174,-0.211548,512
21474625,9999,0.672119,-0.746704,-0.210571,507
21484614,9989,0.671997,-0.741699,-0.209351,510
21494620,10006,0.674194,-0.736206,-0.210327,514
21504630,10010,0.677612,-0.731689,-0.208252,513
21514616,9986,0.682739,-0.731445,-0.204712,499
21524619,10003,0.682129,-0.730103,-0.196777,512
21534612,9993,0.680298,-0.731201,-0.192993,514
21544635,10023,0.677734,-0.728149,-0.190063,514
21554639,10004,0.678711,-0.727173,-0.187134,512
21564629,9990,0.676270,-0.726807,-0.182617,513
21574629,10000,0.673706,-0.724976,-0.179321,511
21584624,9995,0.672119,-0.728394,-0.175659,517
21594637,10013,0.667236,-0.731201,-0.176758,515
21604628,9991,0.665527,-0.735229,-0.180420,513
21614615,9987,0.664917,-0.742065,-0.183960,516
21624639,10024,0.663574,-0.747192,-0.190796,517
21634637,9998,0.664185,-0.757080,-0.202026,512
21644636,9999,0.660889,-0.757324,-0.208130,515
21654622,9986,0.660034,-0.755493,-0.212280,513
21664618,9996,0.657349,-0.752197,-0.217041,512
21674640,10022,0.655640,-0.745972,-0.221069,509
21684612,9972,0.652466,-0.739990,-0.223999,510
21694629,10017,0.651123,-0.734375,-0.224976,506
21704617,9988,0.652222,-0.736206,-0.223877,511
21714613,9996,0.652466,-0.739136,-0.222046,510
21724628,10015,0.652222,-0.742554,-0.219116,511
21734622,9994,0.655640,-0.747192,-0.214844,509
21744625,10003,0.655762,-0.750000,-0.205933,509
21754626,10001,0.657471,-0.760498,-0.201660,512
21764637,10011,0.657593,-0.757080,-0.199829,511
21774631,9994,0.657593,-0.755981,-0.198120,510
21784613,9982,0.656982,-0.755859,-0.199707,503
21794639,10026,0.654541,-0.752441,-0.203491,510
21804612,9973,0.658569,-0.741089,-0.209229,510
21814620,10008,0.661011,-0.733887,-0.212769,514
21824632,10012,0.661743,-0.735352,-0.214111,511
21834626,9994,0.665161,-0.730103,-0.216309,511
21844613,9987,0.662354,-0.734863,-0.215576,514
21854640,10027,0.669678,-0.737061,-0.217896,511
21864622,9982,0.666992,-0.724487,-0.219727,510
21874626,10004,0.667969,-0.713989,-0.218994,516
21884632,10006,0.670654,-0.716675,-0.215454,507
21894625,9993,0.679077,-0.736694,-0.210815,513
21904624,9999,0.680054,-0.737183,-0.207764,514
21914614,9990,0.672607,-0.732788,-0.206055,513
21924668,10054,0.674316,-0.735229,-0.203735,508
21934616,9948,0.674072,-0.735474,-0.201660,511
21944628,10012,0.675293,-0.737305,-0.198120,508
21954650,10022,0.673584,-0.737915,-0.197144,513
21964641,9991,0.670288,-0.743408,-0.197998,513
21974629,9988,0.669067,-0.743896,-0.199463,513
21984625,9996,0.667969,-0.744995,-0.200562,512
21994631,10006,0.665527,-0.743530,-0.203125,513
22004634,10003,0.665039,-0.740723,-0.205322,513
22014615,9981,0.664307,-0.741211,-0.212524,509
22024612,9997,0.662231,-0.741821,-0.212036,511
22034632,10020,0.657471,-0.742554,-0.215332,511
22044623,9991,0.659424,-0.744385,-0.216675,508
22054641,10018,0.656860,-0.743896,-0.222412,506
22064637,9996,0.657471,-0.744507,-0.225464,505
22074623,9986,0.657715,-0.745361,-0.226074,508
22084623,10000,0.659546,-0.743530,-0.224243,512
22094621,9998,0.662598,-0.742676,-0.220337,510
22104635,10014,0.663940,-0.743042,-0.217163,512
22114619,9984,0.664795,-0.740967,-0.214111,510
22124618,9999,0.664917,-0.737915,-0.211914,513
22134631,10013,0.664917,-0.738281,-0.206543,515
22144613,9982,0.665894,-0.739014,-0.204468,508
22154632,10019,0.665161,-0.739502,-0.203857,514
22164635,10003,0.664429,-0.739624,-0.203491,512
22174620,9985,0.664429,-0.740723,-0.203369,516
22184618,9998,0.662964,-0.741943,-0.205322,517
22194654,10036,0.662109,-0.742065,-0.205322,516
22204630,9976,0.662354,-0.740601,-0.204834,516
22214628,9998,0.661377,-0.739990,-0.207520,518
22224638,10010,0.659180,-0.739502,-0.209229,514
22234617,9979,0.657959,-0.739502,-0.210083,512
22244619,10002,0.659668,-0.742920,-0.210937,513
22254620,10001,0.656616,-0.744629,-0.212646,514
22264628,10008,0.654419,-0.746704,-0.214722,514
22274637,10009,0.653809,-0.746582,-0.216431,512
22284620,9983,0.655396,-0.745728,-0.218262,511
22294633,10013,0.655762,-0.746704,-0.218262,512
22304631,9998,0.655396,-0.745483,-0.215820,508
22314633,10002,0.656616,-0.747070,-0.212891,506
22324613,9980,0.656860,-0.748779,-0.210571,512
22334624,10011,0.657593,-0.749878,-0.207764,512
22344613,9989,0.657471,-0.748657,-0.206177,507
22354640,10027,0.658081,-0.749390,-0.205933,505
22364626,9986,0.657104,-0.748291,-0.205078,503
22374637,10011,0.656494,-0.748047,-0.207520,512
22384640,10003,0.657104,-0.747192,-0.209473,512
22394641,10001,0.657593,-0.747314,-0.211670,509
22404641,10000,0.658447,-0.747070,-0.214111,511
22414625,9984,0.658691,-0.746948,-0.215576,511
22424632,10007,0.659668,-0.745605,-0.216553,512
22434620,9988,0.659790,-0.743774,-0.215454,509
22444614,9994,0.660522,-0.740845,-0.214111,511
22454635,10021,0.660522,-0.740356,-0.214844,510
22464636,10001,0.661255,-0.739014,-0.214233,511
22474626,9990,0.661743,-0.738525,-0.214600,515
22484659,10033,0.661865,-0.738281,-0.215210,514
22494639,9980,0.663086,-0.738770,-0.214966,509
22504634,9995,0.661743,-0.739868,-0.213135,513
22514631,9997,0.656982,-0.739868,-0.210083,512
22524642,10011,0.657837,-0.741089,-0.208862,514
22534623,9981,0.658325,-0.742798,-0.207031,510
22544628,10005,0.658325,-0.745605,-0.205811,511
22554620,9992,0.660156,-0.748901,-0.206665,507
22564623,10003,0.661377,-0.750854,-0.207642,511
22574621,9998,0.661499,-0.752197,-0.210571,508
22584616,9995,0.662109,-0.752563,-0.213257,508
22594617,10001,0.661743,-0.751831,-0.214600,506
22604637,10020,0.660889,-0.747681,-0.216187,515
22614631,9994,0.660645,-0.743530,-0.217651,513
22624616,9985,0.658447,-0.736572,-0.217651,506
22634622,10006,0.657471,-0.736450,-0.216187,511
22644634,10012,0.657837,-0.736816,-0.215210,512
22654625,9991,0.657471,-0.739746,-0.213989,512
22664639,10014,0.657104,-0.741211,-0.212402,511
22674614,9975,0.659912,-0.740723,-0.211670,511
22684613,9999,0.654419,-0.749390,-0.214600,512
22694634,10021,0.656738,-0.753296,-0.216187,511
22704635,10001,0.659668,-0.742432,-0.217407,512
22714614,9979,0.653931,-0.746948,-0.217896,487
22724621,10007,0.655396,-0.752808,-0.217773,515
22734619,9998,0.657593,-0.747925,-0.217041,514
22744645,10026,0.656372,-0.746704,-0.215088,509
22754623,9978,0.656128,-0.744019,-0.214844,511
22764617,9994,0.663208,-0.734131,-0.213501,514
22774616,9999,0.654907,-0.751831,-0.207764,515
22784632,10016,0.655762,-0.755005,-0.203491,514
22794629,9997,0.652954,-0.760010,-0.200195,512
22804626,9997,0.656494,-0.763306,-0.199341,516
22814631,10005,0.657593,-0.755859,-0.198853,509
22824623,9992,0.656982,-0.752930,-0.201782,516
22834612,9989,0.657471,-0.747437,-0.205566,518
22844633,10021,0.660400,-0.736450,-0.212402,514
22854637,10004,0.661011,-0.732300,-0.215210,510
22864619,9982,0.661499,-0.732056,-0.216431,514
22874634,10015,0.660767,-0.730591,-0.214844,511
22884628,9994,0.660889,-0.731079,-0.214600,512
22894620,9992,0.661133,-0.731689,-0.210449,512
22904636,10016,0.659546,-0.737549,-0.205811,509
22914618,9982,0.658569,-0.740967,-0.201904,510
22924622,10004,0.660400,-0.744751,-0.200806,510
22934626,10004,0.660034,-0.747803,-0.199585,507
22944638,10012,0.661743,-0.743896,-0.201904,506
22954639,10001,0.660767,-0.757080,-0.203125,504
22964616,9977,0.659668,-0.752563,-0.204712,512
22974622,10006,0.658936,-0.752441,-0.206055,512
22984615,9993,0.657837,-0.749390,-0.207031,506
22994630,10015,0.656738,-0.746216,-0.207764,512
23004659,10029,0.656860,-0.743042,-0.208008,511
23014632,9973,0.657227,-0.740723,-0.208862,512
23024634,10002,0.656494,-0.743286,-0.209595,507
23034635,10001,0.656372,-0.746948,-0.210815,511
23044625,9990,0.657593,-0.750000,-0.209473,513
23054640,10015,0.657715,-0.751831,-0.210449,513
23064619,9979,0.660645,-0.752930,-0.211548,506
23074634,10015,0.658691,-0.749756,-0.208618,509
23084625,9991,0.660522,-0.745850,-0.209839,514
23094633,10008,0.660034,-0.740479,-0.208496,509
23104639,10006,0.659790,-0.738281,-0.206055,511
23114630,9991,0.658936,-0.737061,-0.203735,511
23124636,10006,0.659546,-0.740356,-0.202881,509
23134619,9983,0.658081,-0.743408,-0.203369,512
23144624,10005,0.658936,-0.747925,-0.203735,507
23154638,10014,0.666260,-0.751953,-0.204712,507
23164620,9982,0.656128,-0.753296,-0.207886,510
23174635,10015,0.656372,-0.752075,-0.214844,511
23184628,9993,0.655640,-0.749512,-0.218140,509
23194639,10011,0.656372,-0.747314,-0.220093,510
23204617,9978,0.657349,-0.744873,-0.219849,511
23214635,10018,0.656982,-0.740845,-0.220215,510
23224613,9978,0.658569,-0.742920,-0.223755,509
23234620,10007,0.662109,-0.734863,-0.223633,509
23244627,10007,0.663818,-0.734741,-0.219604,510
23254636,10009,0.664062,-0.737915,-0.216797,508
23264668,10032,0.663086,-0.740112,-0.211914,511
23274633,9965,0.664429,-0.742920,-0.208374,508
23284638,10005,0.662354,-0.745483,-0.203613,512
23294652,10014,0.660156,-0.747192,-0.201782,510
23304629,9977,0.658569,-0.748047,-0.201660,512
23314641,10012,0.663208,-0.750000,-0.203247,513
23324619,9978,0.655396,-0.747681,-0.207275,512
23334620,10001,0.656128,-0.743896,-0.213257,511
23344640,10020,0.661133,-0.743652,-0.218140,509
23354641,10001,0.659058,-0.742432,-0.219238,515
23364614,9973,0.660522,-0.734985,-0.222656,517
23374618,10004,0.660522,-0.735107,-0.223145,515
23384627,10009,0.659912,-0.734863,-0.222656,513
23394636,10009,0.660889,-0.739746,-0.219604,512
23404629,9993,0.656250,-0.741943,-0.219482,517
23414616,9987,0.655518,-0.740234,-0.220215,517
23424631,10015,0.656738,-0.741333,-0.218262,516
23434642,10011,0.656738,-0.744507,-0.216675,514
23444628,9986,0.654907,-0.745850,-0.215698,512
23454630,10002,0.656250,-0.747559,-0.217407,512
23464638,10008,0.657349,-0.747437,-0.218506,509
23474617,9979,0.658325,-0.747314,-0.218628,508
23484635,10018,0.660034,-0.746216,-0.217529,509
23494639,10004,0.661377,-0.744385,-0.218140,512
23504620,9981,0.658203,-0.742554,-0.214966,507
23514618,9998,0.656860,-0.741333,-0.212646,507
23524655,10037,0.654541,-0.742310,-0.212524,511
23534628,9973,0.653809,-0.744629,-0.211426,511
23544638,10010,0.650757,-0.748535,-0.210693,506
23554649,10011,0.651855,-0.752441,-0.211914,508
23564630,9981,0.656860,-0.752930,-0.215820,511
23574624,9994,0.657837,-0.752686,-0.218750,510
23584633,10009,0.659424,-0.749268,-0.220337,510
23594625,9992,0.659546,-0.747681,-0.220581,513
23604636,10011,0.659790,-0.743774,-0.221069,511
23614621,9985,0.658813,-0.739136,-0.217651,511
23624612,9991,0.657715,-0.737793,-0.216431,509
23634640,10028,0.657104,-0.736572,-0.216187,508
23644618,9978,0.655518,-0.737183,-0.213623,509
23654633,10015,0.654297,-0.737549,-0.214722,513
23664626,9993,0.656250,-0.737183,-0.214111,514
23674615,9989,0.653809,-0.738159,-0.217896,508
23684617,10002,0.650757,-0.747192,-0.217773,512
23694631,10014,0.654053,-0.752930,-0.218994,512
23704616,9985,0.658813,-0.739380,-0.222534,512
23714631,10015,0.645752,-0.753052,-0.218872,512
23724638,10007,0.652100,-0.751831,-0.215210,511
23734612,9974,0.647095,-0.760864,-0.215698,512
23744632,10020,0.650757,-0.755737,-0.215210,509
23754613,9981,0.652100,-0.752686,-0.218140,512
23764642,10029,0.652588,-0.752319,-0.222290,511
23774629,9987,0.652832,-0.753052,-0.222778,507
23784617,9988,0.652710,-0.753052,-0.223022,511
23794621,10004,0.651978,-0.751099,-0.223145,509
23804627,10006,0.649658,-0.749146,-0.223877,510
23814627,10000,0.649170,-0.746094,-0.221802,506
23824661,10034,0.649658,-0.745361,-0.219116,510
23834636,9975,0.648315,-0.749390,-0.214111,508
23844617,9981,0.649048,-0.749512,-0.212891,511
23854618,10001,0.652466,-0.750244,-0.211792,510
23864630,10012,0.653198,-0.750488,-0.211914,510
23874613,9983,0.654907,-0.751099,-0.214844,512
23884636,10023,0.657104,-0.751953,-0.217773,512
23894612,9976,0.656494,-0.753418,-0.221313,510
23904633,10021,0.656982,-0.751465,-0.223389,512
23914639,10006,0.657104,-0.750488,-0.226318,512
23924613,9974,0.657837,-0.749390,-0.225342,514
23934636,10023,0.657349,-0.747803,-0.223755,515
23944623,9987,0.656738,-0.744629,-0.221313,515
23954630,10007,0.655762,-0.742554,-0.221680,513
23964632,10002,0.655518,-0.740234,-0.221191,517
23974638,10006,0.653076,-0.737427,-0.222168,517
23984617,9979,0.652100,-0.735718,-0.221313,514
23994632,10015,0.651978,-0.734497,-0.220947,515
24004634,10002,0.652832,-0.737549,-0.219238,513
24014640,10006,0.653564,-0.739624,-0.215576,512
24024631,9991,0.653564,-0.744141,-0.211426,513
24034613,9982,0.653809,-0.748901,-0.211304,515
24044621,10008,0.656494,-0.751953,-0.212891,511
24054632,10011,0.657837,-0.753052,-0.220459,512
24064632,10000,0.658203,-0.755737,-0.221436,512
24074615,9983,0.657349,-0.752808,-0.222412,511
24084612,9997,0.661377,-0.750610,-0.223633,509
24094662,10050,0.654419,-0.744751,-0.225464,510
24104660,9998,0.652832,-0.739258,-0.227783,509
24114630,9970,0.649536,-0.737427,-0.223267,507
24124617,9987,0.648071,-0.739136,-0.220215,511
24134642,10025,0.646851,-0.742065,-0.217285,510
24144614,9972,0.646729,-0.745850,-0.214844,507
24154638,10024,0.646729,-0.748291,-0.214233,511
24164640,10002,0.647461,-0.754028,-0.214966,512
24174623,9983,0.646362,-0.756714,-0.217407,509
24184617,9994,0.647339,-0.758423,-0.219727,512
24194635,10018,0.649414,-0.758911,-0.221558,510
24204615,9980,0.652466,-0.760132,-0.222412,511
24214619,10004,0.652100,-0.759277,-0.221924,509
24224635,10016,0.653442,-0.753296,-0.223145,512
24234629,9994,0.654175,-0.750610,-0.222656,512
24244630,10001,0.654907,-0.746582,-0.223267,514
24254640,10010,0.654541,-0.743042,-0.223267,513
24264638,9998,0.656006,-0.738770,-0.222656,514
24274619,9981,0.655151,-0.738159,-0.218872,514
24284640,10021,0.654419,-0.740601,-0.216675,513
24294620,9980,0.654297,-0.744385,-0.215698,509
24304625,10005,0.653931,-0.748535,-0.213501,513
24314630,10005,0.652954,-0.749146,-0.212769,510
24324625,9995,0.653076,-0.750244,-0.212280,513
24334636,10011,0.655396,-0.747314,-0.213989,511
24344641,10005,0.656250,-0.748291,-0.213867,511
24354623,9982,0.648926,-0.746704,-0.219116,511
24364634,10011,0.651001,-0.745728,-0.220459,509
24374641,10007,0.653320,-0.748047,-0.222412,511
24384633,9992,0.652954,-0.758179,-0.222534,506
24394631,9998,0.653320,-0.755737,-0.221436,509
24404633,10002,0.650757,-0.754150,-0.222412,507
24414633,10000,0.650879,-0.751953,-0.223389,512
24424637,10004,0.650269,-0.750244,-0.222656,513
24434619,9982,0.649658,-0.747437,-0.222168,511
24444624,10005,0.650513,-0.741577,-0.218628,507
24454612,9988,0.651123,-0.739990,-0.216675,509
24464624,10012,0.651855,-0.734741,-0.215454,509
24474630,10006,0.652954,-0.744141,-0.217163,511
24484633,10003,0.650391,-0.748535,-0.216431,510
24494633,10000,0.644653,-0.737793,-0.221191,511
24504638,10005,0.644531,-0.743042,-0.221802,509
24514619,9981,0.651855,-0.750610,-0.222290,512
24524620,10001,0.649414,-0.765869,-0.226074,513
24534612,9992,0.648437,-0.782349,-0.230957,511
24544636,10024,0.654053,-0.760864,-0.230957,516
24554626,9990,0.647095,-0.746216,-0.229980,512
24564641,10015,0.648682,-0.747559,-0.226929,516
24574630,9989,0.648926,-0.748291,-0.225220,515
24584613,9983,0.649902,-0.748291,-0.224731,514
24594618,10005,0.649536,-0.747681,-0.223633,516
24604613,9995,0.647217,-0.749634,-0.223389,525
24614639,10026,0.650269,-0.748169,-0.221191,516
24624627,9988,0.648926,-0.749878,-0.219116,510
24634653,10026,0.645996,-0.750977,-0.218750,512
24644613,9960,0.646851,-0.749512,-0.218140,512
24654612,9999,0.648193,-0.741455,-0.216187,511
24664657,10045,0.648804,-0.755371,-0.219116,515
24674629,9972,0.651733,-0.747559,-0.219849,512
24684616,9987,0.650757,-0.744873,-0.219482,511
24694615,9999,0.651978,-0.745605,-0.221436,512
24704635,10020,0.652100,-0.742798,-0.223755,512
24714620,9985,0.650269,-0.743286,-0.228027,505
24724637,10017,0.649536,-0.743164,-0.229004,509
24734641,10004,0.649048,-0.748413,-0.229858,511
24744633,9992,0.647217,-0.751343,-0.229980,509
24754619,9986,0.648804,-0.753174,-0.226196,511
24764637,10018,0.649658,-0.752319,-0.226440,507
24774613,9976,0.648804,-0.757690,-0.225098,505
24784628,10015,0.650879,-0.756714,-0.225586,513
24794631,10003,0.651611,-0.754517,-0.226685,509
24804624,9993,0.650391,-0.753906,-0.228516,513
24814624,10000,0.649170,-0.751831,-0.230225,511
24824634,10010,0.646851,-0.749390,-0.223755,510
24834620,9986,0.647095,-0.748535,-0.221802,513
24844642,10022,0.647583,-0.748657,-0.220215,513
24854633,9991,0.647095,-0.746582,-0.218872,512
24864639,10006,0.649292,-0.746460,-0.218018,515
24874612,9973,0.651245,-0.747070,-0.218872,514
24884620,10008,0.665771,-0.736206,-0.222290,514
24894650,10030,0.648071,-0.747070,-0.219116,514
24904615,9965,0.651855,-0.760376,-0.222290,510
24914616,10001,0.656738,-0.754517,-0.220093,514
24924634,10018,0.655273,-0.737427,-0.224609,508
24934626,9992,0.645874,-0.764404,-0.223145,513
24944615,9989,0.645874,-0.753296,-0.221924,513
24954640,10025,0.643555,-0.749878,-0.221313,508
24964613,9973,0.649292,-0.738770,-0.220337,512
24974633,10020,0.639526,-0.748657,-0.218262,509
24984617,9984,0.643921,-0.757080,-0.218628,511
24994628,10011,0.650635,-0.743286,-0.221069,506
25004642,10014,0.639526,-0.762695,-0.217651,509
25014640,9998,0.643799,-0.770996,-0.218262,511
25024615,9975,0.645996,-0.765503,-0.218384,509
25034628,10013,0.641724,-0.765625,-0.219360,512
25044633,10005,0.641479,-0.758667,-0.217285,512
25054637,10004,0.642578,-0.755249,-0.215332,511
25064620,9983,0.642944,-0.750732,-0.215454,510
25074614,9994,0.645020,-0.747681,-0.214966,511
25084631,10017,0.645996,-0.747559,-0.215454,512
25094626,9995,0.646362,-0.747803,-0.216553,512
25104641,10015,0.647339,-0.749878,-0.218262,511
25114622,9981,0.647461,-0.747192,-0.218140,509
25124620,9998,0.648315,-0.754272,-0.219482,511
25134623,10003,0.648560,-0.752319,-0.219238,512
25144614,9991,0.651611,-0.746582,-0.220581,512
25154630,10016,0.651611,-0.745850,-0.222412,513
25164666,10036,0.650635,-0.745361,-0.223022,515
25174637,9971,0.649414,-0.746460,-0.222534,513
25184619,9982,0.646240,-0.749268,-0.219604,515
25194614,9995,0.645508,-0.753052,-0.218262,517
25204649,10035,0.644897,-0.755127,-0.214600,514
25214636,9987,0.639648,-0.767334,-0.211426,511
25224614,9978,0.647461,-0.764282,-0.208374,511
25234639,10025,0.648071,-0.756226,-0.211304,513
25244616,9977,0.647827,-0.757080,-0.214111,513
25254612,9996,0.647217,-0.756836,-0.216797,509
25264613,10001,0.644409,-0.756104,-0.222778,512
25274629,10016,0.640015,-0.754150,-0.223511,507
25284631,10002,0.640503,-0.757935,-0.225220,528
25294620,9989,0.638550,-0.761841,-0.227539,507
25304632,10012,0.638184,-0.760010,-0.228149,505
25314618,9986,0.637939,-0.757935,-0.227539,510
25324620,10002,0.643066,-0.757446,-0.222168,509
25335787,11167,0.645874,-0.758179,-0.220459,508
25344621,8834,0.648682,-0.759277,-0.218628,510
25354641,10020,0.652710,-0.760498,-0.217163,514
25364619,9978,0.650513,-0.762451,-0.215576,510
25374612,9993,0.656372,-0.761230,-0.218506,511
25384629,10017,0.656616,-0.758667,-0.219727,508
25394627,9998,0.655396,-0.754028,-0.221191,514
25404618,9991,0.650391,-0.752075,-0.219971,512
25414639,10021,0.647705,-0.748047,-0.218750,513
25424635,9996,0.645752,-0.746338,-0.215576,510
25434627,9992,0.644409,-0.742554,-0.208130,513
25444668,10041,0.645142,-0.738770,-0.205933,513
25454658,9990,0.643555,-0.724609,-0.202148,513
25464623,9965,0.638062,-0.758179,-0.206787,512
25474619,9996,0.646362,-0.753784,-0.203247,512
25484631,10012,0.642456,-0.747192,-0.214233,509
25494643,10012,0.649292,-0.763916,-0.224243,509
25504628,9985,0.651489,-0.757080,-0.230957,512
25514622,9994,0.642456,-0.755859,-0.235718,511
25524628,10006,0.645630,-0.767334,-0.238281,513
25534627,9999,0.645996,-0.761841,-0.243530,510
25544629,10002,0.638794,-0.747070,-0.244629,509
25554640,10011,0.639160,-0.746826,-0.240112,510
25564616,9976,0.635620,-0.745239,-0.236328,512
25574615,9999,0.643921,-0.728027,-0.233032,508
25584635,10020,0.631104,-0.761841,-0.227539,507
25594628,9993,0.638184,-0.763794,-0.219604,505
25604639,10011,0.640869,-0.763062,-0.217041,507
25614624,9985,0.637329,-0.766479,-0.214600,510
25624620,9996,0.637817,-0.768311,-0.210937,513
25634617,9997,0.640503,-0.770752,-0.208130,509
25644629,10012,0.641113,-0.769531,-0.203857,511
25654625,9996,0.643433,-0.769775,-0.194702,511
25664632,10007,0.644043,-0.764160,-0.195312,508
25674624,9992,0.643677,-0.759399,-0.196777,509
25684615,9991,0.642578,-0.755737,-0.198608,511
25694629,10014,0.641479,-0.755127,-0.201904,508
25704617,9988,0.641357,-0.757202,-0.208984,514
25714616,9999,0.640747,-0.756470,-0.211914,514
25724636,10020,0.642822,-0.755127,-0.214355,512
25734616,9980,0.644775,-0.757690,-0.215576,516
25744620,10004,0.647461,-0.756470,-0.217041,514
25754616,9996,0.649048,-0.752686,-0.218628,513
25764628,10012,0.649902,-0.747925,-0.220703,518
25774614,9986,0.646729,-0.749390,-0.219238,515
25784655,10041,0.645874,-0.752319,-0.219116,519
25794635,9980,0.645020,-0.755127,-0.218506,517
25804627,9992,0.644409,-0.758301,-0.218506,516
25814635,10008,0.642090,-0.757812,-0.212891,520
25824621,9986,0.643677,-0.757935,-0.211548,511
25834629,10008,0.648926,-0.756714,-0.210327,517
25844627,9998,0.654663,-0.755005,-0.212402,515
25854639,10012,0.659546,-0.751831,-0.213867,516
25864640,10001,0.660278,-0.749390,-0.216064,513
25874612,9972,0.651611,-0.743774,-0.212769,512
25884625,10013,0.650269,-0.745850,-0.211670,513
25894630,10005,0.647827,-0.747803,-0.209106,513
25904638,10008,0.646362,-0.749390,-0.208496,511
25914632,9994,0.646118,-0.752441,-0.208984,508
25924629,9997,0.640259,-0.757812,-0.212646,513
25934627,9998,0.640137,-0.759033,-0.214355,506
25944625,9998,0.638184,-0.762207,-0.218750,506
25954621,9996,0.635254,-0.756226,-0.222412,512
25964633,10012,0.635132,-0.762085,-0.225952,505
25974638,10005,0.640015,-0.763916,-0.228027,512
25984641,10003,0.638794,-0.763672,-0.232178,510
25994625,9984,0.638428,-0.754761,-0.230713,509
26004625,10000,0.639771,-0.755493,-0.227173,511
26014627,10002,0.640625,-0.756836,-0.223267,512
26024617,9990,0.643311,-0.757568,-0.219971,513
26034639,10022,0.648682,-0.759644,-0.216431,506
26044655,10016,0.649048,-0.760986,-0.215942,513
26054641,9986,0.648682,-0.761108,-0.214600,507
26064624,9983,0.647583,-0.760376,-0.212402,513
26074639,10015,0.645874,-0.758789,-0.213745,513
26084623,9984,0.645874,-0.758667,-0.214355,509
26094643,10020,0.642822,-0.755737,-0.213989,515
26104620,9977,0.641968,-0.754150,-0.212280,509
26114618,9998,0.642212,-0.751709,-0.210693,508
26124622,10004,0.643921,-0.751465,-0.211060,511
26134619,9997,0.640625,-0.748413,-0.216187,510
26144638,10019,0.645630,-0.747070,-0.221802,513
26154624,9986,0.648071,-0.746826,-0.224854,512
26164616,9992,0.647705,-0.749878,-0.225342,513
26174634,10018,0.645020,-0.750488,-0.226440,511
26184623,9989,0.644653,-0.750122,-0.228760,506
26194612,9989,0.644775,-0.751099,-0.229370,512
26204617,10005,0.644531,-0.754028,-0.227905,512
26214631,10014,0.647583,-0.759766,-0.226562,513
26224629,9998,0.650391,-0.763428,-0.223877,514
26234638,10009,0.652466,-0.766357,-0.223022,509
26244635,9997,0.652344,-0.766724,-0.220703,512
26254618,9983,0.652466,-0.764771,-0.215210,512
26264639,10021,0.652100,-0.762817,-0.210815,510
26274617,9978,0.649292,-0.761353,-0.207275,517
26284627,10010,0.646240,-0.757202,-0.203857,509
26294624,9997,0.644287,-0.755371,-0.203125,512
26304637,10013,0.642822,-0.753418,-0.201538,510
26314618,9981,0.637451,-0.749756,-0.201782,518
26324640,10022,0.635742,-0.751099,-0.204346,509
26334621,9981,0.633667,-0.751587,-0.208252,510
26344616,9995,0.632568,-0.754639,-0.212524,510
26354636,10020,0.630981,-0.755371,-0.216187,515
26364653,10017,0.635620,-0.757568,-0.222778,511
26374626,9973,0.639282,-0.767944,-0.224243,512
26384612,9986,0.640259,-0.762695,-0.226196,517
26394617,10005,0.645874,-0.765503,-0.231812,517
26404634,10017,0.648560,-0.771851,-0.227173,517
26414617,9983,0.647949,-0.754883,-0.228638,517
26424619,10002,0.654053,-0.758179,-0.226318,517
26434613,9994,0.652100,-0.754639,-0.224121,512
26444637,10024,0.651611,-0.751587,-0.221069,514
26454614,9977,0.651978,-0.751831,-0.219849,518
26464640,10026,0.649292,-0.747681,-0.215698,516
26474637,9997,0.647339,-0.742310,-0.208130,513
26484632,9995,0.645996,-0.747559,-0.202759,515
26494629,9997,0.643066,-0.743774,-0.200684,520
26504616,9987,0.643433,-0.745728,-0.200684,511
26514612,9996,0.643188,-0.750732,-0.200684,512
26524627,10015,0.643433,-0.754761,-0.199951,511
26534620,9993,0.646851,-0.761841,-0.201538,510
26544629,10009,0.648437,-0.764038,-0.204102,509
26554623,9994,0.649780,-0.765503,-0.209106,504
26564628,10005,0.649414,-0.764893,-0.216187,509
26574616,9988,0.648682,-0.761963,-0.222656,511
26584629,10013,0.646973,-0.753418,-0.229980,510
26594615,9986,0.641479,-0.749878,-0.231445,507
26604631,10016,0.640625,-0.746216,-0.232056,511
26614665,10034,0.638672,-0.743774,-0.232178,506
26624614,9949,0.636597,-0.742676,-0.233643,511
26634642,10028,0.634644,-0.746216,-0.233032,507
26644635,9993,0.637085,-0.754028,-0.229004,512
26654632,9997,0.639038,-0.757202,-0.227783,507
26664644,10012,0.638062,-0.758789,-0.226562,513
26674613,9969,0.640259,-0.758179,-0.227051,508
26684638,10025,0.644409,-0.758545,-0.225098,512
26694637,9999,0.645386,-0.755859,-0.222046,509
26704635,9998,0.644165,-0.753784,-0.220825,512
26714642,10007,0.642578,-0.749512,-0.218872,509
26724634,9992,0.645386,-0.748657,-0.216919,510
26734623,9989,0.647705,-0.748291,-0.212646,511
26744626,10003,0.649414,-0.749023,-0.209229,511
26754631,10005,0.650757,-0.750488,-0.200684,511
26764631,10000,0.653198,-0.754150,-0.195801,508
26774622,9991,0.656372,-0.752441,-0.194580,506
26784641,10019,0.660889,-0.756348,-0.193115,511
26794620,9979,0.659180,-0.755493,-0.194702,509
26804622,10002,0.660278,-0.758057,-0.194214,509
26814623,10001,0.655762,-0.760986,-0.195679,505
26824623,10000,0.652832,-0.760986,-0.199585,507
26834636,10013,0.653564,-0.759155,-0.206055,511
26844617,9981,0.653442,-0.758057,-0.210693,512
26854641,10024,0.653809,-0.757935,-0.215698,508
26864618,9977,0.651978,-0.758667,-0.223755,506
26874637,10019,0.645752,-0.758179,-0.227417,511
26884618,9981,0.642212,-0.756348,-0.228271,512
26894621,10003,0.640137,-0.755005,-0.228394,508
26904647,10026,0.637573,-0.753052,-0.227051,512
26914635,9988,0.637207,-0.752075,-0.225464,511
26924619,9984,0.637817,-0.751099,-0.224365,512
26934641,10022,0.638428,-0.751709,-0.225586,513
26944620,9979,0.639038,-0.753662,-0.225464,514
26954623,10003,0.640991,-0.755615,-0.226685,513
26964638,10015,0.638916,-0.757568,-0.227539,512
26974616,9978,0.643555,-0.759155,-0.228638,513
26984624,10008,0.644287,-0.756958,-0.228638,515
26994626,10002,0.646973,-0.754028,-0.228882,516
27004621,9995,0.648804,-0.750610,-0.228882,518
27014620,9999,0.648804,-0.745728,-0.226562,517
27024637,10017,0.648193,-0.742920,-0.221558,515
27034630,9993,0.647339,-0.743164,-0.216675,511
27044641,10011,0.649536,-0.747681,-0.211182,515
27054613,9972,0.641846,-0.750977,-0.210815,515
27064617,10004,0.641724,-0.756348,-0.209595,524
27074630,10013,0.642090,-0.759888,-0.210937,516
27084621,9991,0.646118,-0.761108,-0.214355,512
27094616,9995,0.647461,-0.759277,-0.219360,513
27104612,9996,0.648315,-0.755615,-0.223877,512
27114622,10010,0.648926,-0.751587,-0.227295,512
27124615,9993,0.648682,-0.750366,-0.229492,509
27134636,10021,0.648315,-0.749146,-0.228394,509
27144628,9992,0.646240,-0.752075,-0.226562,509
27154622,9994,0.646118,-0.753540,-0.223511,510
27164617,9995,0.644409,-0.754150,-0.219727,509
27174634,10017,0.644287,-0.753906,-0.217651,511
27184625,9991,0.645264,-0.754150,-0.214478,505
27194626,10001,0.646484,-0.754883,-0.213867,506
27204637,10011,0.647827,-0.755005,-0.215210,508
27214657,10020,0.647095,-0.755371,-0.218018,505
27224626,9969,0.646362,-0.755859,-0.217651,511
27234636,10010,0.645752,-0.756470,-0.218750,511
27244621,9985,0.646484,-0.755981,-0.219238,511
27254623,10002,0.653198,-0.751587,-0.221069,508
27264615,9992,0.653931,-0.748291,-0.222656,512
27274656,10041,0.654663,-0.746948,-0.220093,513
27284634,9978,0.651978,-0.747803,-0.219604,513
27294641,10007,0.651611,-0.749390,-0.222534,510
27304638,9997,0.649048,-0.751221,-0.221558,514
27314619,9981,0.645874,-0.751099,-0.217773,509
27324627,10008,0.644897,-0.748657,-0.213135,516
27334614,9987,0.644653,-0.747070,-0.209839,511
27344616,10002,0.646973,-0.743896,-0.209473,509
27354618,10002,0.646729,-0.741943,-0.212036,511
27364624,10006,0.648071,-0.741821,-0.220703,509
27374639,10015,0.647339,-0.740479,-0.222778,512
27384613,9974,0.647461,-0.741821,-0.223999,510
27394622,10009,0.646484,-0.746460,-0.223022,509
27404624,10002,0.646118,-0.749512,-0.223511,509
27414617,9993,0.644531,-0.751587,-0.228394,501
27424630,10013,0.644043,-0.750610,-0.233276,503
27434622,9992,0.646118,-0.753296,-0.234375,504
27444617,9995,0.643311,-0.743530,-0.241333,505
27454628,10011,0.646118,-0.753662,-0.236084,508
27464636,10008,0.641357,-0.750000,-0.235474,505
27474612,9976,0.645630,-0.758789,-0.223633,510
27484612,10000,0.648682,-0.761353,-0.217773,506
27494618,10006,0.650269,-0.761597,-0.213257,507
27504620,10002,0.649658,-0.760864,-0.213379,509
27514642,10022,0.653076,-0.762939,-0.206543,509
27524642,10000,0.651733,-0.759888,-0.205200,509
27534640,9998,0.648560,-0.755615,-0.207886,511
27544640,10000,0.652222,-0.760986,-0.211914,509
27554639,9999,0.655029,-0.763428,-0.215942,513
27564636,9997,0.653320,-0.758667,-0.218140,516
27574631,9995,0.652954,-0.748047,-0.219727,513
27584642,10011,0.656860,-0.758057,-0.223633,515
27594621,9979,0.657104,-0.754883,-0.222168,516
27604614,9993,0.655029,-0.747437,-0.220337,520
27614636,10022,0.654297,-0.742920,-0.216797,511
27624642,10006,0.654297,-0.741455,-0.213623,518
27634636,9994,0.655762,-0.745361,-0.206787,513
27644632,9996,0.656494,-0.748535,-0.205444,516
27654615,9983,0.656006,-0.748535,-0.202515,518
27664622,10007,0.654175,-0.744751,-0.199463,516
27674622,10000,0.643921,-0.700073,-0.190308,515
27684612,9990,0.657593,-0.739258,-0.190918,509
27694616,10004,0.651855,-0.772339,-0.202393,512
27704631,10015,0.647095,-0.741699,-0.210327,513
27714619,9988,0.648560,-0.740845,-0.214478,514
27724626,10007,0.646118,-0.753540,-0.215820,510
27734618,9992,0.647827,-0.750122,-0.222290,508
27744634,10016,0.641113,-0.741211,-0.230225,509
27754636,10002,0.639404,-0.759277,-0.235352,509
27764632,9996,0.637207,-0.748901,-0.240479,512
27774632,10000,0.637207,-0.763062,-0.240723,506
27784625,9993,0.636353,-0.756836,-0.241577,505
27794626,10001,0.640747,-0.748535,-0.242798,510
27804649,10023,0.646240,-0.750977,-0.237915,505
27814618,9969,0.647461,-0.751953,-0.236328,509
27824617,9999,0.649048,-0.752319,-0.234009,509
27834623,10006,0.646240,-0.751221,-0.230713,511
27844639,10016,0.647217,-0.749146,-0.223267,509
27854628,9989,0.650024,-0.749268,-0.213989,510
27864628,10000,0.652466,-0.750244,-0.211792,510
27874619,9991,0.652588,-0.751465,-0.208618,508
27884637,10018,0.653809,-0.752686,-0.205566,511
27894613,9976,0.657104,-0.756592,-0.202637,505
27904631,10018,0.660522,-0.758911,-0.199463,507
27914636,10005,0.658569,-0.757080,-0.195190,512
27924617,9981,0.659180,-0.755371,-0.194580,512
27934632,10015,0.655762,-0.753906,-0.195068,512
27944615,9983,0.653687,-0.751831,-0.195679,508
27954632,10017,0.653320,-0.751465,-0.196777,509
27964628,9996,0.656006,-0.754395,-0.200562,505
27974617,9989,0.656860,-0.752808,-0.205078,510
27984630,10013,0.656982,-0.749023,-0.209473,504
27994613,9983,0.654053,-0.746216,-0.213745,509
28004632,10019,0.652100,-0.743896,-0.217407,504
28014619,9987,0.650879,-0.741089,-0.219360,506
28024636,10017,0.649414,-0.740234,-0.220581,509
28034637,10001,0.648437,-0.742432,-0.222412,506
28044640,10003,0.649780,-0.746338,-0.220947,509
28054622,9982,0.651245,-0.750977,-0.219116,510
28064612,9990,0.652466,-0.754150,-0.218994,505
28074622,10010,0.651611,-0.756348,-0.217773,508
28084655,10033,0.649292,-0.755615,-0.215942,508
28094624,9969,0.648437,-0.753784,-0.216675,509
28104619,9995,0.648560,-0.752808,-0.214600,510
28114633,10014,0.648071,-0.752075,-0.215088,508
28124621,9988,0.648804,-0.752563,-0.214478,507
28134618,9997,0.650513,-0.754517,-0.218384,505
28144614,9996,0.649902,-0.754395,-0.221436,513
28154622,10008,0.651001,-0.756836,-0.223267,512
28164629,10007,0.652710,-0.747070,-0.225098,506
28174625,9996,0.651855,-0.743286,-0.226074,513
28184631,10006,0.650513,-0.740967,-0.226685,509
28194614,9983,0.649658,-0.741089,-0.224609,509
28204641,10027,0.648560,-0.741943,-0.223755,511
28214632,9991,0.648926,-0.746216,-0.222168,513
28224622,9990,0.651367,-0.745728,-0.223633,513
28234636,10014,0.652466,-0.748047,-0.223145,508
28244626,9990,0.650757,-0.748169,-0.228271,510
28254637,10011,0.648804,-0.746826,-0.229858,512
28264618,9981,0.646118,-0.746094,-0.232910,512
28274633,10015,0.645508,-0.751099,-0.233643,507
28284638,10005,0.643311,-0.745117,-0.232178,511
28294635,9997,0.640625,-0.741455,-0.232178,512
28304621,9986,0.640381,-0.740601,-0.231445,511
28314620,9999,0.640747,-0.746216,-0.231812,507
28324625,10005,0.642212,-0.750000,-0.232422,505
28334636,10011,0.645386,-0.756836,-0.232300,503
28344633,9997,0.649658,-0.762329,-0.231323,503
28354616,9983,0.645752,-0.767578,-0.232910,510
28364623,10007,0.647339,-0.765747,-0.233154,510
28374615,9992,0.649048,-0.762695,-0.232666,510
28384620,10005,0.648437,-0.758423,-0.234253,511
28394659,10039,0.645996,-0.755249,-0.235107,511
28404632,9973,0.644287,-0.749146,-0.232300,506
28414634,10002,0.640747,-0.748413,-0.230225,511
28424638,10004,0.640015,-0.749512,-0.227539,513
28434614,9976,0.642090,-0.751099,-0.225586,511
28444639,10025,0.649414,-0.754517,-0.223267,510
28454624,9985,0.646118,-0.756104,-0.222656,511
28464630,10006,0.652222,-0.755981,-0.222412,512
28474632,10002,0.653320,-0.752686,-0.223145,513
28484626,9994,0.654663,-0.749268,-0.223633,513
28494636,10010,0.653320,-0.744995,-0.223633,516
28504613,9977,0.650146,-0.736572,-0.223755,513
28514630,10017,0.647095,-0.739990,-0.230347,510
28524637,10007,0.645874,-0.733276,-0.231812,509
28534619,9982,0.644409,-0.745361,-0.237305,512
28544630,10011,0.639282,-0.741821,-0.237549,513
28554625,9995,0.643677,-0.751465,-0.240601,512
28564612,9987,0.643921,-0.755249,-0.240356,508
28574638,10026,0.645020,-0.752686,-0.239502,511
28584629,9991,0.646484,-0.754395,-0.237915,509
28594615,9986,0.645874,-0.754639,-0.236938,513
28604626,10011,0.645630,-0.755371,-0.233887,507
28614636,10010,0.644775,-0.755249,-0.228760,506
28624634,9998,0.642822,-0.753662,-0.226318,507
28634640,10006,0.637695,-0.754395,-0.225098,509
28644630,9990,0.632812,-0.759399,-0.223755,511
28654623,9993,0.633911,-0.757812,-0.226807,509
28664614,9991,0.629028,-0.770874,-0.229004,510
28674614,10000,0.630981,-0.773682,-0.230347,506
28684620,10006,0.630249,-0.771973,-0.237305,510
28694638,10018,0.628052,-0.768677,-0.240845,512
28704630,9992,0.626099,-0.770996,-0.242676,510
28714624,9994,0.627441,-0.769287,-0.244019,512
28724621,9997,0.626343,-0.768921,-0.243042,513
28734614,9993,0.625610,-0.758911,-0.242554,511
28744620,10006,0.623779,-0.753052,-0.241577,511
28754629,10009,0.630737,-0.749268,-0.241211,516
28764617,9988,0.642578,-0.746704,-0.241455,514
28774615,9998,0.651855,-0.742554,-0.239746,507
28784624,10009,0.654907,-0.738403,-0.238037,513
28794619,9995,0.671387,-0.757812,-0.238159,513
28804617,9998,0.660767,-0.750854,-0.236938,515
28814622,10005,0.655762,-0.743896,-0.238647,512
28824624,10002,0.654663,-0.745972,-0.235840,506
28834621,9997,0.652222,-0.750000,-0.232544,510
28844614,9993,0.645752,-0.751709,-0.229248,512
28854617,10003,0.630981,-0.747559,-0.229858,512
28864628,10011,0.627075,-0.747559,-0.229004,514
28874625,9997,0.627930,-0.746948,-0.225586,506
28884617,9992,0.627686,-0.745850,-0.223633,510
28894626,10009,0.631348,-0.749146,-0.223877,511
28905973,11347,0.638062,-0.752686,-0.228638,508
28914612,8639,0.640137,-0.753784,-0.235107,508
28924624,10012,0.645508,-0.755249,-0.239502,511
28934628,10004,0.648682,-0.755859,-0.244507,512
28944633,10005,0.651367,-0.755127,-0.247192,511
28954628,9995,0.651733,-0.752563,-0.250122,511
28964619,9991,0.651733,-0.747681,-0.249512,509
28974637,10018,0.647095,-0.745361,-0.247681,508
28984638,10001,0.645508,-0.746094,-0.244629,510
28994614,9976,0.641846,-0.747070,-0.239746,511
29004640,10026,0.639404,-0.749512,-0.234253,506
29014625,9985,0.635254,-0.757690,-0.222046,508
29024620,9995,0.634155,-0.760376,-0.219727,510
29034625,10005,0.636230,-0.764038,-0.218994,511
29044616,9991,0.634888,-0.767090,-0.212646,509
29054658,10042,0.635742,-0.767090,-0.211670,508
29064640,9982,0.635620,-0.767212,-0.217651,505
29074614,9974,0.643188,-0.766968,-0.220947,504
29084629,10015,0.645752,-0.765991,-0.223755,511
29094620,9991,0.646484,-0.763672,-0.227905,507
29104625,10005,0.646118,-0.762695,-0.232788,511
29114636,10011,0.645020,-0.759888,-0.238403,510
29124631,9995,0.644897,-0.724976,-0.240845,510
29134614,9983,0.648315,-0.741455,-0.245972,512
29144636,10022,0.642822,-0.762329,-0.246704,511
29154637,10001,0.641479,-0.728027,-0.247314,511
29164617,9980,0.641602,-0.739990,-0.251587,511
29174628,10011,0.639282,-0.751953,-0.249878,507
29184626,9998,0.643677,-0.754517,-0.246216,509
29194622,9996,0.644897,-0.752441,-0.240479,511
29204637,10015,0.644409,-0.749390,-0.236694,509
29214616,9979,0.641357,-0.747681,-0.234131,511
29224641,10025,0.642700,-0.750610,-0.231079,506
29234631,9990,0.650391,-0.755249,-0.227051,507
29244623,9992,0.653442,-0.756714,-0.224854,511
29254612,9989,0.652954,-0.754395,-0.221313,512
29264634,10022,0.650879,-0.753906,-0.220581,513
29274627,9993,0.656128,-0.757812,-0.220947,512
29284659,10032,0.656494,-0.750610,-0.225098,514
29294626,9967,0.653442,-0.738525,-0.226196,511
29304626,10000,0.650879,-0.735229,-0.226929,516
29314635,10009,0.646973,-0.734985,-0.227417,516
29324626,9991,0.647339,-0.738159,-0.228882,516
29334616,9990,0.648315,-0.740112,-0.230103,511
29344613,9997,0.648193,-0.744141,-0.234375,511
29354629,10016,0.645264,-0.739868,-0.236206,515
29364622,9993,0.641968,-0.742920,-0.239502,516
29374637,10015,0.647095,-0.757812,-0.245972,513
29384637,10000,0.645752,-0.759155,-0.249878,509
29394634,9997,0.639404,-0.753418,-0.251709,513
29404621,9987,0.633789,-0.751465,-0.250366,512
29414640,10019,0.633423,-0.750977,-0.250000,511
29424638,9998,0.632080,-0.748657,-0.248047,506
29434639,10001,0.630615,-0.749023,-0.246826,511
29444626,9987,0.632812,-0.749146,-0.244141,505
29454635,10009,0.635864,-0.754150,-0.243042,512
29464630,9995,0.639526,-0.753906,-0.241577,509
29474641,10011,0.638428,-0.759155,-0.239868,509
29484633,9992,0.642578,-0.761719,-0.236816,503
29494641,10008,0.641602,-0.760864,-0.234131,505
29504641,10000,0.642700,-0.763184,-0.230591,510
29514612,9971,0.642822,-0.759888,-0.229614,509
29524621,10009,0.641357,-0.756958,-0.229736,509
29534626,10005,0.643921,-0.754761,-0.227661,512
29544631,10005,0.645386,-0.753174,-0.225830,511
29554631,10000,0.646362,-0.752808,-0.227051,507
29564638,10007,0.645630,-0.751343,-0.229614,511
29574651,10013,0.645874,-0.751221,-0.229248,511
29584633,9982,0.645996,-0.751343,-0.229858,509
29594618,9985,0.646362,-0.752075,-0.230469,511
29604636,10018,0.646240,-0.751709,-0.229248,509
29614641,10005,0.647827,-0.749146,-0.229370,510
29624615,9974,0.650024,-0.749146,-0.231323,512
29634657,10042,0.650269,-0.746338,-0.234009,515
29644639,9982,0.651123,-0.746094,-0.238037,507
29654622,9983,0.652588,-0.743042,-0.241577,510
29664623,10001,0.650391,-0.742065,-0.243530,513
29674613,9990,0.649170,-0.741089,-0.246338,508
29684626,10013,0.646973,-0.741699,-0.245850,511
29694633,10007,0.644775,-0.744507,-0.242310,507
29704627,9994,0.643677,-0.745605,-0.239258,510
29714621,9994,0.641235,-0.746704,-0.236938,506
29724642,10021,0.641479,-0.747437,-0.234741,507
29734633,9991,0.641724,-0.747192,-0.228638,512
29744615,9982,0.641846,-0.748047,-0.226685,508
29754617,10002,0.641968,-0.748779,-0.224976,512
29764620,10003,0.641602,-0.749146,-0.225830,505
29774639,10019,0.639526,-0.749634,-0.225830,508
29784617,9978,0.640259,-0.753052,-0.227661,510
29794641,10024,0.641846,-0.754761,-0.229980,505
29804630,9989,0.645020,-0.754761,-0.234619,511
29814634,10004,0.648193,-0.754517,-0.238525,508
29824618,9984,0.650024,-0.751465,-0.243286,512
29834623,10005,0.651855,-0.747192,-0.249146,512
29844635,10012,0.656372,-0.741089,-0.261353,513
29854660,10025,0.656738,-0.735474,-0.253784,515
29864632,9972,0.652466,-0.732056,-0.246216,514
29874616,9984,0.652466,-0.728394,-0.243286,515
29884618,10002,0.654907,-0.734009,-0.243652,515
29894624,10006,0.648560,-0.737427,-0.235107,513
29904637,10013,0.647827,-0.743896,-0.232788,515
29914641,10004,0.646484,-0.753052,-0.231079,515
29924638,9997,0.646606,-0.760864,-0.229736,514
29934638,10000,0.644531,-0.765503,-0.229980,513
29944624,9986,0.643677,-0.769165,-0.229492,515
29954618,9994,0.640503,-0.760986,-0.235596,512
29964624,10006,0.638916,-0.753174,-0.239502,509
29974625,10001,0.634277,-0.735474,-0.240479,511
29984627,10002,0.640625,-0.742676,-0.245728,511
29994641,10014,0.640747,-0.755371,-0.247559,508
30004622,9981,0.644165,-0.735352,-0.251221,511
30014636,10014,0.644287,-0.739746,-0.249268,510
30024634,9998,0.645142,-0.746216,-0.246582,509
30034622,9988,0.645142,-0.749878,-0.245117,511
30044619,9997,0.641602,-0.752808,-0.241455,510
30054620,10001,0.642090,-0.758423,-0.239502,511
30064637,10017,0.638428,-0.765991,-0.238281,513
30074630,9993,0.638306,-0.767212,-0.237915,511
30084631,10001,0.638672,-0.763062,-0.238770,509
30094640,10009,0.640259,-0.757446,-0.240601,511
30104641,10001,0.643799,-0.751343,-0.243164,510
30114617,9976,0.648804,-0.738159,-0.244995,518
30124637,10020,0.649902,-0.734375,-0.245361,509
30134626,9989,0.651489,-0.732788,-0.244751,509
30144625,9999,0.649536,-0.734131,-0.242432,512
30154648,10023,0.649414,-0.738403,-0.239990,511
30164642,9994,0.649414,-0.742432,-0.236084,509
30174627,9985,0.648437,-0.747070,-0.228271,511
30184618,9991,0.649048,-0.743896,-0.236206,511
30194636,10018,0.649292,-0.744629,-0.245483,511
30204639,10003,0.645264,-0.747681,-0.250488,512
30214619,9980,0.639771,-0.754150,-0.250732,508
30224621,10002,0.634766,-0.757690,-0.249512,512
30234628,10007,0.633667,-0.753784,-0.250366,511
30244619,9991,0.628052,-0.747559,-0.254883,505
30254635,10016,0.630859,-0.740601,-0.257446,505
30264627,9992,0.636719,-0.738892,-0.257690,503
30274616,9989,0.638184,-0.737793,-0.256958,503
30284627,10011,0.642456,-0.743896,-0.243042,509
30294620,9993,0.641479,-0.751587,-0.235352,506
30304633,10013,0.643433,-0.761353,-0.226929,508
30314641,10008,0.640991,-0.767456,-0.223022,510
30324641,10000,0.638428,-0.770874,-0.221802,505
30334625,9984,0.638428,-0.770264,-0.227173,508
30344620,9995,0.645142,-0.772461,-0.233765,512
30354612,9992,0.643311,-0.765137,-0.235474,514
30364635,10023,0.648804,-0.757690,-0.237427,510
30374619,9984,0.650757,-0.750244,-0.241211,510
30384616,9997,0.637207,-0.734375,-0.240967,516
30394625,10009,0.654663,-0.729492,-0.247192,517
30404623,9998,0.645752,-0.725830,-0.247559,513
30414614,9991,0.650879,-0.733643,-0.255249,515
30424622,10008,0.644653,-0.734253,-0.251953,518
30434618,9996,0.648682,-0.748535,-0.256348,525
30444632,10014,0.644409,-0.755127,-0.255981,513
30454613,9981,0.641357,-0.749146,-0.253784,519
30464635,10022,0.640503,-0.747437,-0.251221,513
30474619,9984,0.636108,-0.750854,-0.250488,511
30484618,9999,0.635376,-0.752319,-0.249634,510
30494616,9998,0.637451,-0.752319,-0.248657,514
30504627,10011,0.637085,-0.752075,-0.248535,511
30514620,9993,0.636597,-0.750366,-0.247314,512
30524632,10012,0.635376,-0.749023,-0.245117,512
30534645,10013,0.635498,-0.747437,-0.244629,511
30544638,9993,0.637207,-0.747803,-0.242676,507
30554615,9977,0.637573,-0.747681,-0.242798,514
30564620,10005,0.639893,-0.754761,-0.239136,509
30574641,10021,0.639038,-0.754883,-0.240234,511
30584638,9997,0.641235,-0.760742,-0.238037,508
30594628,9990,0.641113,-0.763428,-0.238647,503
30604627,9999,0.640991,-0.766357,-0.237793,509
30614630,10003,0.640015,-0.766724,-0.239746,505
30624636,10006,0.640503,-0.763794,-0.240845,511
30634637,10001,0.638794,-0.760498,-0.241943,504
30644635,9998,0.637085,-0.758179,-0.241821,512
30654617,9982,0.636353,-0.753906,-0.241577,506
30664614,9997,0.637817,-0.750488,-0.241089,512
30674630,10016,0.637817,-0.750122,-0.240601,510
30684631,10001,0.638184,-0.750366,-0.239380,521
30694637,10006,0.640747,-0.749878,-0.240112,510
30704640,10003,0.640137,-0.751221,-0.241211,508
30714630,9990,0.639893,-0.751465,-0.240479,515
30724617,9987,0.638428,-0.751953,-0.240845,508
30734614,9997,0.639282,-0.751953,-0.242676,512
30744660,10046,0.639160,-0.752686,-0.244385,513
30754642,9982,0.639771,-0.752319,-0.244507,512
30764633,9991,0.638428,-0.751831,-0.244751,513
30774616,9983,0.638672,-0.751221,-0.243286,508
30784616,10000,0.641724,-0.750488,-0.244263,523
30794629,10013,0.642700,-0.749634,-0.245728,509
30804639,10010,0.641724,-0.748291,-0.247070,507
30814629,9990,0.641357,-0.747681,-0.246094,511
30824625,9996,0.640015,-0.747437,-0.244995,512
30834638,10013,0.642090,-0.748535,-0.241333,511
30844632,9994,0.642578,-0.748901,-0.239868,508
30855404,10772,0.646729,-0.753052,-0.237671,511
30864623,9219,0.641602,-0.753906,-0.237183,515
30874632,10009,0.635986,-0.757568,-0.234863,511
30884641,10009,0.635254,-0.760498,-0.234253,512
30894626,9985,0.636963,-0.760620,-0.235840,512
30904612,9986,0.637085,-0.757690,-0.236572,511
30914620,10008,0.637451,-0.753418,-0.238770,509
30924616,9996,0.637329,-0.749023,-0.239380,512
30934616,10000,0.636597,-0.746216,-0.240479,515
30944635,10019,0.633911,-0.747437,-0.242432,517
30954631,9996,0.628418,-0.748535,-0.244263,516
30964615,9984,0.630005,-0.748657,-0.247314,517
30974637,10022,0.635132,-0.746826,-0.251221,516
30984639,10002,0.641235,-0.745483,-0.255493,512
30994619,9980,0.650024,-0.737427,-0.251831,517
31004624,10005,0.653320,-0.743408,-0.248169,513
31014617,9993,0.651489,-0.745239,-0.246826,518
31024625,10008,0.648560,-0.758545,-0.242065,518
31034627,10002,0.649536,-0.763794,-0.237671,513
31049171,14544,0.644531,-0.770020,-0.223999,516
31055893,6722,0.636719,-0.775391,-0.217529,514
31064616,8723,0.629517,-0.773926,-0.213135,515
31074641,10025,0.625488,-0.770996,-0.211792,516
31084612,9971,0.623291,-0.769775,-0.214355,512
31094635,10023,0.625854,-0.763916,-0.215698,511
31104615,9980,0.630737,-0.759766,-0.220337,512
31114642,10027,0.634766,-0.757812,-0.223877,510
31124622,9980,0.634888,-0.755981,-0.228027,508
31134635,10013,0.637939,-0.753662,-0.233398,513
31144616,9981,0.642090,-0.749390,-0.236450,506
31154623,10007,0.642212,-0.738403,-0.237305,507
31164637,10014,0.651245,-0.748779,-0.239380,507
31174616,9979,0.647949,-0.740112,-0.241821,505
31184621,10005,0.644409,-0.735107,-0.243652,512
31194629,10008,0.643066,-0.739502,-0.243774,510
31204616,9987,0.639648,-0.744873,-0.243042,509
31214631,10015,0.645386,-0.754639,-0.235962,512
31224642,10011,0.631226,-0.769897,-0.232910,511
31234639,9997,0.629028,-0.776245,-0.230347,512
31244632,9993,0.627197,-0.777466,-0.228882,512
31254633,10001,0.625366,-0.774414,-0.227539,509
31264621,9988,0.627563,-0.769653,-0.228760,512
31274639,10018,0.634888,-0.757568,-0.233887,507
31284620,9981,0.637939,-0.752563,-0.236694,512
31294635,10015,0.641113,-0.751099,-0.237427,507
31304641,10006,0.641235,-0.751343,-0.237427,507
31314637,9996,0.640991,-0.751099,-0.236938,508
31324613,9976,0.640747,-0.753418,-0.233154,512
31334655,10042,0.640381,-0.750366,-0.233398,511
31344625,9970,0.637451,-0.750244,-0.231812,512
31354622,9997,0.640259,-0.752319,-0.230835,505
31364625,10003,0.639038,-0.757446,-0.232178,512
31374640,10015,0.630859,-0.730225,-0.227417,512
31384637,9997,0.627930,-0.739990,-0.229980,505
31394642,10005,0.636719,-0.742187,-0.235474,512
31404619,9977,0.654297,-0.783447,-0.238892,509
31414641,10022,0.652466,-0.785400,-0.239502,506
31424618,9977,0.639160,-0.768799,-0.247314,510
31434636,10018,0.636108,-0.720581,-0.249390,506
31444618,9982,0.631836,-0.745728,-0.247070,504
31454641,10023,0.631836,-0.748779,-0.245483,511
31464641,10000,0.631592,-0.759277,-0.243408,511
31474634,9993,0.630859,-0.754150,-0.242432,506
31484617,9983,0.633057,-0.754395,-0.239502,511
31494614,9997,0.635010,-0.762939,-0.233276,507
31504612,9998,0.635010,-0.765015,-0.232056,508
31514614,10002,0.634766,-0.763550,-0.232422,509
31524615,10001,0.632446,-0.756592,-0.231323,513
31534634,10019,0.634399,-0.760986,-0.231812,511
31544633,9999,0.634766,-0.771606,-0.236206,511
31554613,9980,0.633057,-0.753540,-0.236694,513
31564641,10028,0.636108,-0.750488,-0.238159,516
31574618,9977,0.639404,-0.751587,-0.240723,515
31584616,9998,0.638184,-0.755615,-0.242554,512
31594642,10026,0.637085,-0.760376,-0.244385,513
31604630,9988,0.634644,-0.768311,-0.245972,515
31614654,10024,0.633545,-0.766479,-0.250488,515
31624614,9960,0.631714,-0.769653,-0.245972,511
31634615,10001,0.630249,-0.765869,-0.244141,516
31644616,10001,0.628662,-0.761963,-0.243530,516
31654613,9997,0.627319,-0.760254,-0.242310,515
31664637,10024,0.620239,-0.758057,-0.241333,514
31674631,9994,0.628662,-0.757446,-0.241333,512
31684626,9995,0.633057,-0.758057,-0.240112,512
31694635,10009,0.634766,-0.759033,-0.238037,513
31704633,9998,0.636719,-0.759155,-0.237183,508
31714617,9984,0.638794,-0.756104,-0.237061,512
31724612,9995,0.638428,-0.754150,-0.240234,513
31734627,10015,0.637085,-0.751587,-0.243408,510
31744628,10001,0.636963,-0.749512,-0.244629,510
31754625,9997,0.637085,-0.747681,-0.245483,504
31764631,10006,0.634888,-0.748657,-0.245850,509
31774625,9994,0.633545,-0.749756,-0.245972,512
31784612,9987,0.633301,-0.751465,-0.245117,505
31794624,10012,0.632080,-0.756226,-0.243286,511
31804624,10000,0.632446,-0.760376,-0.240723,511
31814625,10001,0.633301,-0.763428,-0.239258,509
31824629,10004,0.633301,-0.761108,-0.245605,510
31834622,9993,0.633545,-0.756348,-0.248657,511
31844620,9998,0.626099,-0.748413,-0.247070,508
31854615,9995,0.638916,-0.755005,-0.239380,512
31864626,10011,0.647217,-0.764038,-0.235840,509
31874613,9987,0.643799,-0.769165,-0.226440,514
31884661,10048,0.641846,-0.770874,-0.220093,514
31894636,9975,0.638306,-0.766846,-0.216675,513
31904616,9980,0.635132,-0.775146,-0.209961,516
31914639,10023,0.635498,-0.769165,-0.202148,512
31924616,9977,0.635010,-0.771973,-0.195557,508
31934626,10010,0.633667,-0.765137,-0.187500,509
31944632,10006,0.638306,-0.756714,-0.187012,512
31954623,9991,0.640137,-0.767456,-0.191528,512
31964626,10003,0.641357,-0.762207,-0.204346,507
31974639,10013,0.637695,-0.750366,-0.212524,509
31984638,9999,0.642212,-0.756592,-0.231323,511
31994628,9990,0.638306,-0.743896,-0.235962,511
32004636,10008,0.641235,-0.754517,-0.236328,510
32014615,9979,0.637207,-0.751953,-0.239868,510
32024638,10023,0.639771,-0.749512,-0.239990,508
32034628,9990,0.641602,-0.751953,-0.238403,511
32044614,9986,0.640625,-0.759033,-0.232788,509
32054624,10010,0.641479,-0.762329,-0.227295,504
32064639,10015,0.640747,-0.762329,-0.222046,503
32074628,9989,0.639893,-0.762695,-0.217041,508
32084634,10006,0.639771,-0.763916,-0.212646,507
32094625,9991,0.636963,-0.763794,-0.209717,506
32104635,10010,0.637451,-0.762817,-0.203491,510
32114615,9980,0.637329,-0.762939,-0.199951,507
32124621,10006,0.637329,-0.763306,-0.199219,508
32134636,10015,0.640259,-0.766113,-0.199585,509
32144621,9985,0.643799,-0.768188,-0.200439,507
32154632,10011,0.643677,-0.767334,-0.207153,511
32164632,10000,0.643555,-0.765137,-0.209229,507
32174660,10028,0.645020,-0.762573,-0.211304,511
32184639,9979,0.641602,-0.759155,-0.215942,506
32194624,9985,0.641113,-0.755615,-0.217651,514
32204614,9990,0.640381,-0.753662,-0.219360,512
32214620,10006,0.639648,-0.751831,-0.218872,515
32224623,10003,0.638550,-0.749634,-0.215942,515
32234634,10011,0.638916,-0.749268,-0.216309,514
32244629,9995,0.639771,-0.750854,-0.216553,517
32254633,10004,0.640747,-0.755127,-0.213379,511
32264638,10005,0.640381,-0.763428,-0.210937,517
32274635,9997,0.639282,-0.766846,-0.208008,516
32284626,9991,0.638916,-0.768066,-0.209351,517
32294633,10007,0.639282,-0.766968,-0.210205,514
32304631,9998,0.639526,-0.764526,-0.212646,513
32314624,9993,0.638184,-0.762695,-0.215698,512
32324640,10016,0.642822,-0.757568,-0.220459,512
32334615,9975,0.641724,-0.757812,-0.219727,507
32344619,10004,0.638672,-0.758057,-0.219971,508
32354638,10019,0.639160,-0.757324,-0.217285,511
32364616,9978,0.638794,-0.755005,-0.216064,509
32374619,10003,0.640259,-0.761353,-0.212769,513
32384634,10015,0.638428,-0.765137,-0.213867,510
32394622,9988,0.637573,-0.766357,-0.213745,509
32404625,10003,0.634033,-0.765991,-0.212769,509
32414626,10001,0.633911,-0.767212,-0.215210,508
32424616,9990,0.639771,-0.763062,-0.216919,510
32434630,10014,0.641846,-0.758789,-0.221069,508
32444612,9982,0.641602,-0.756714,-0.223755,511
32454617,10005,0.640869,-0.756592,-0.224365,511
32464613,9996,0.642212,-0.754272,-0.225830,511
32474665,10052,0.638916,-0.757446,-0.227783,512
32484625,9960,0.636230,-0.753296,-0.229370,511
32494616,9991,0.636475,-0.759521,-0.226196,505
32504638,10022,0.634888,-0.757202,-0.224976,511
32514628,9990,0.634033,-0.761230,-0.226562,511
32524630,10002,0.633179,-0.759888,-0.223877,511
32534631,10001,0.633545,-0.760010,-0.225220,511
32544641,10010,0.633301,-0.760132,-0.222534,520
32554637,9996,0.633423,-0.762695,-0.222900,505
32564616,9979,0.632324,-0.765991,-0.223022,508
32574626,10010,0.632446,-0.767090,-0.220459,506
32584639,10013,0.633057,-0.770386,-0.222168,509
32594627,9988,0.631104,-0.773437,-0.219727,510
32604635,10008,0.632324,-0.771606,-0.221680,505
32614632,9997,0.631348,-0.770508,-0.222778,512
32624634,10002,0.631348,-0.769653,-0.224976,504
32634623,9989,0.631104,-0.765137,-0.228027,510
32644614,9991,0.631226,-0.761963,-0.230469,509
32654641,10027,0.635498,-0.759155,-0.229614,509
32664615,9974,0.636719,-0.761841,-0.227905,511
32674619,10004,0.634521,-0.757812,-0.229980,508
32684637,10018,0.635498,-0.760376,-0.226685,509
32694621,9984,0.631470,-0.758545,-0.227417,509
32704618,9997,0.634155,-0.762329,-0.226562,512
32714640,10022,0.633667,-0.762939,-0.223633,511
32724659,10019,0.636108,-0.763062,-0.223511,511
32734640,9981,0.634399,-0.767090,-0.221680,511
32744641,10001,0.636963,-0.766113,-0.220947,511
32754619,9978,0.638306,-0.757568,-0.217285,510
32764612,9993,0.637817,-0.753052,-0.220093,511
32774641,10029,0.641846,-0.758789,-0.221924,510
32784636,9995,0.644897,-0.759521,-0.220947,512
32794633,9997,0.643311,-0.758423,-0.221436,509
32804631,9998,0.640991,-0.758423,-0.223145,507
32814646,10015,0.641846,-0.755371,-0.224854,511
32824620,9974,0.639893,-0.758057,-0.224854,512
32834637,10017,0.640869,-0.753906,-0.225586,510
32844635,9998,0.641968,-0.753174,-0.224121,508
32854634,9999,0.639893,-0.757568,-0.223267,515
32864622,9988,0.638428,-0.756836,-0.222168,515
32874628,10006,0.637207,-0.756470,-0.222046,517
32884624,9996,0.636108,-0.757324,-0.220459,517
32894634,10010,0.636108,-0.756958,-0.219971,517
32904633,9999,0.634766,-0.759521,-0.220459,515
32914622,9989,0.634399,-0.762085,-0.220825,511
32924621,9999,0.636963,-0.764038,-0.221191,514
32934636,10015,0.636719,-0.763062,-0.221680,509
32944639,10003,0.636963,-0.763306,-0.223389,513
32954630,9991,0.638062,-0.762085,-0.224731,515
32964626,9996,0.637573,-0.760986,-0.223999,510
32974630,10004,0.636963,-0.760620,-0.223389,512
32984637,10007,0.622314,-0.758057,-0.223755,507
32994985,10348,0.638794,-0.760254,-0.223022,511
33004625,9640,0.636963,-0.759521,-0.225098,511
33014636,10011,0.635376,-0.762695,-0.219482,511
33024620,9984,0.631958,-0.759033,-0.219482,512
33034640,10020,0.637939,-0.763062,-0.219116,507
33044626,9986,0.636475,-0.765869,-0.219360,509
33054628,10002,0.637085,-0.768311,-0.219116,503
33064613,9985,0.637573,-0.770264,-0.217651,509
33074626,10013,0.639038,-0.769531,-0.218018,512
33084635,10009,0.637695,-0.769287,-0.218384,510
33094634,9999,0.634888,-0.776978,-0.217285,512
33104618,9984,0.643921,-0.759521,-0.219482,510
33114623,10005,0.642578,-0.753906,-0.222412,511
33124628,10005,0.641724,-0.751953,-0.222778,507
33134630,10002,0.636597,-0.748169,-0.222656,515
33144615,9985,0.648437,-0.747192,-0.219238,512
33154633,10018,0.654541,-0.754883,-0.218018,507
33164627,9994,0.647095,-0.752930,-0.215820,512
33174629,10002,0.642944,-0.749023,-0.215820,506
33184618,9989,0.642090,-0.750366,-0.213501,513
33194633,10015,0.641357,-0.754517,-0.211304,511
33204617,9984,0.640259,-0.758911,-0.211670,511
33214638,10021,0.640259,-0.761963,-0.213623,509
33224631,9993,0.639160,-0.763062,-0.215576,510
33234621,9990,0.639404,-0.763184,-0.220337,510
33244626,10005,0.638306,-0.761108,-0.225342,510
33254635,10009,0.636963,-0.758301,-0.227783,509
33264636,10001,0.636963,-0.758057,-0.229004,513
33274661,10025,0.636353,-0.758301,-0.227539,509
33284649,9988,0.636719,-0.758057,-0.225098,509
33294639,9990,0.636230,-0.757812,-0.223999,506
33304625,9986,0.637329,-0.758667,-0.223633,511
33314633,10008,0.638550,-0.763062,-0.220093,503
33324614,9981,0.641357,-0.764526,-0.218018,508
33334615,10001,0.642822,-0.764404,-0.215576,505
33344640,10025,0.645142,-0.764038,-0.214722,510
33354656,10016,0.644653,-0.763062,-0.213257,510
33364646,9990,0.640747,-0.758423,-0.212891,511
33374621,9975,0.641113,-0.756836,-0.211182,508
33384621,10000,0.641479,-0.755371,-0.207764,511
33394632,10011,0.641113,-0.755371,-0.204590,511
33404637,10005,0.642090,-0.755127,-0.203003,507
33414635,9998,0.641479,-0.756226,-0.201782,505
33424621,9986,0.641846,-0.761719,-0.206543,506
33434616,9995,0.638916,-0.763062,-0.210693,510
33444627,10011,0.639160,-0.765625,-0.214355,510
33454638,10011,0.639282,-0.767212,-0.216309,513
33464637,9999,0.636963,-0.765747,-0.220581,514
33474641,10004,0.636841,-0.761353,-0.222778,514
33484633,9992,0.636963,-0.758545,-0.222534,513
33494642,10009,0.638184,-0.756348,-0.223267,515
33504623,9981,0.637695,-0.754883,-0.223022,513
33514626,10003,0.638306,-0.753174,-0.222900,515
33524617,9991,0.639404,-0.754639,-0.220825,511
33534626,10009,0.641602,-0.761475,-0.217651,509
33544658,10032,0.641724,-0.762939,-0.213257,518
33554631,9973,0.642700,-0.764526,-0.209595,516
33564614,9983,0.643677,-0.763550,-0.209473,512
33574633,10019,0.645874,-0.765869,-0.206055,512
33584641,10008,0.647705,-0.754761,-0.206177,511
33594612,9971,0.647339,-0.756714,-0.204956,512
33604623,10011,0.646484,-0.755127,-0.204834,511
33614640,10017,0.647217,-0.755371,-0.203003,512
33624615,9975,0.645142,-0.755005,-0.202148,511
33634638,10023,0.645508,-0.757080,-0.201172,508
33644616,9978,0.645264,-0.757935,-0.201050,512
33654615,9999,0.645142,-0.761597,-0.199097,510
33664641,10026,0.643311,-0.758179,-0.199829,505
33674640,9999,0.644897,-0.759766,-0.199219,510
33684628,9988,0.645020,-0.757568,-0.200073,511
33694621,9993,0.645874,-0.758057,-0.198120,506
33704622,10001,0.646362,-0.755249,-0.198486,506
33714618,9996,0.646851,-0.754639,-0.199951,505
33724617,9999,0.648437,-0.756714,-0.201904,507
33734622,10005,0.651367,-0.759155,-0.203369,512
33744624,10002,0.644897,-0.758423,-0.205933,510
33754640,10016,0.639771,-0.760742,-0.210449,511
33764635,9995,0.638306,-0.762451,-0.210205,508
33774625,9990,0.638306,-0.763062,-0.210693,512
33784632,10007,0.637817,-0.760986,-0.210937,508
33794616,9984,0.635620,-0.762817,-0.209839,511
33804612,9996,0.637085,-0.760254,-0.209839,509
33814646,10034,0.639771,-0.762085,-0.210205,511
33824628,9982,0.638062,-0.762695,-0.209717,511
33834623,9995,0.639526,-0.766235,-0.208618,510
33844642,10019,0.639526,-0.766846,-0.207153,514
33854620,9978,0.639038,-0.768066,-0.205811,511
33864638,10018,0.638672,-0.768433,-0.203369,509
33874637,9999,0.638550,-0.765991,-0.201904,511
33884656,10019,0.640625,-0.765015,-0.201660,508
33894612,9956,0.641846,-0.761475,-0.203735,512
33904638,10026,0.642578,-0.759888,-0.204590,508
33914642,10004,0.644897,-0.763550,-0.205566,513
33924632,9990,0.642944,-0.765747,-0.204224,510
33934635,10003,0.641602,-0.767212,-0.203369,511
33944634,9999,0.640869,-0.767822,-0.202759,510
33954612,9978,0.637695,-0.766113,-0.203003,510
33964622,10010,0.637817,-0.764404,-0.201172,510
33974628,10006,0.637085,-0.759277,-0.203979,510
33984633,10005,0.634766,-0.758301,-0.205200,509
33994633,10000,0.636963,-0.756104,-0.208496,507
34004616,9983,0.640625,-0.755493,-0.211304,510
34014613,9997,0.641968,-0.755737,-0.213867,510
34024631,10018,0.646973,-0.757690,-0.214355,510
34034616,9985,0.646484,-0.756958,-0.214355,512
34044624,10008,0.646118,-0.755371,-0.213135,511
34054617,9993,0.644165,-0.753174,-0.213623,510
34064620,10003,0.644287,-0.750732,-0.212402,510
34074647,10027,0.644287,-0.749878,-0.213623,510
34084640,9993,0.645386,-0.750610,-0.217285,512
34094617,9977,0.643677,-0.753174,-0.218506,512
34104623,10006,0.641479,-0.757080,-0.218994,506
34114619,9996,0.639893,-0.760620,-0.217896,510
34124623,10004,0.639282,-0.763672,-0.218262,514
34134627,10004,0.639038,-0.765747,-0.218750,508
34144621,9994,0.640503,-0.762695,-0.214966,512
34154624,10003,0.641113,-0.759888,-0.211060,515
34164635,10011,0.636963,-0.757446,-0.207764,513
34174641,10006,0.641968,-0.757935,-0.204956,513
34184615,9974,0.644653,-0.759766,-0.201782,510
34194620,10005,0.638916,-0.765747,-0.199829,512
34204634,10014,0.637329,-0.766357,-0.199829,508
34214621,9987,0.637695,-0.768677,-0.202271,514
34224629,10008,0.636963,-0.773437,-0.203857,515
34234629,10000,0.638794,-0.774048,-0.206665,515
34244621,9992,0.636841,-0.770752,-0.213501,514
34254613,9992,0.635376,-0.768555,-0.218140,514
34264621,10008,0.633789,-0.765747,-0.220581,510
34274625,10004,0.633789,-0.765503,-0.223145,514
34284614,9989,0.632324,-0.763306,-0.223877,509
34294619,10005,0.633301,-0.762939,-0.222046,513
34304629,10010,0.634033,-0.762573,-0.215942,514
34314619,9990,0.634888,-0.762085,-0.212158,512
34324639,10020,0.633911,-0.762451,-0.209473,512
34334619,9980,0.633911,-0.761230,-0.208984,511
34344622,10003,0.636475,-0.761353,-0.208374,506
34354646,10024,0.640991,-0.763428,-0.207275,511
34364620,9974,0.641724,-0.764160,-0.207275,508
34374634,10014,0.642090,-0.763672,-0.207886,501
34384633,9999,0.642700,-0.763306,-0.209595,511
34394635,10002,0.641846,-0.762817,-0.210083,510
34404642,10007,0.641235,-0.762329,-0.210693,505
34414629,9987,0.640747,-0.758545,-0.209961,508
34424631,10002,0.641602,-0.756714,-0.211304,506
34434643,10012,0.642334,-0.755737,-0.213135,510
34444620,9977,0.643066,-0.754517,-0.215332,511
34454640,10020,0.643311,-0.757080,-0.215210,510
34464613,9973,0.643311,-0.760498,-0.216187,511
34474637,10024,0.642456,-0.761475,-0.214600,512
34484638,10001,0.641479,-0.761719,-0.213257,514
34494638,10000,0.640991,-0.760986,-0.209717,511
34504624,9986,0.639771,-0.758667,-0.208862,509
34514625,10001,0.639526,-0.755859,-0.207397,513
34524620,9995,0.638184,-0.755615,-0.207397,512
34534617,9997,0.639404,-0.756104,-0.208252,510
34544625,10008,0.639771,-0.758545,-0.208740,512
34554620,9995,0.640503,-0.761719,-0.209839,515
34564625,10005,0.638428,-0.763306,-0.210815,508
34574635,10010,0.636719,-0.766357,-0.212036,512
34584623,9988,0.636719,-0.767090,-0.213013,511
34594617,9994,0.635742,-0.765625,-0.213379,512
34604616,9999,0.635742,-0.766357,-0.214600,510
34614645,10029,0.635498,-0.766602,-0.214966,506
34624627,9982,0.634399,-0.766357,-0.213623,513
34634622,9995,0.633423,-0.766724,-0.214478,506
34644613,9991,0.632568,-0.765625,-0.213623,512
34654636,10023,0.633545,-0.764526,-0.213013,512
34664630,9994,0.634033,-0.763428,-0.212769,519
34674632,10002,0.633911,-0.762085,-0.212158,507
34684635,10003,0.637085,-0.760864,-0.209961,505
34694635,10000,0.637573,-0.761597,-0.209717,507
34704633,9998,0.637817,-0.763184,-0.208496,511
34714617,9984,0.638672,-0.764648,-0.208740,509
34724615,9998,0.639282,-0.765381,-0.210571,511
34734622,10007,0.640137,-0.766602,-0.213257,510
34744628,10006,0.638916,-0.766113,-0.219360,509
34754629,10001,0.637939,-0.765381,-0.218994,511
34764636,10007,0.635498,-0.765991,-0.218018,512
34774623,9987,0.634888,-0.762939,-0.216309,510
34784636,10013,0.634644,-0.762695,-0.215332,507
34794633,9997,0.634644,-0.761841,-0.209717,511
34804625,9992,0.635010,-0.761353,-0.211182,510
34814637,10012,0.636353,-0.760376,-0.211792,506
34824630,9993,0.636719,-0.760742,-0.214600,511
34834635,10005,0.638794,-0.760132,-0.219604,512
34844617,9982,0.638672,-0.761108,-0.223145,509
34854627,10010,0.639038,-0.760498,-0.225098,514
34864626,9999,0.637939,-0.758545,-0.224731,514
34874633,10007,0.638916,-0.757935,-0.221558,514
34884659,10026,0.639038,-0.757690,-0.219849,514
34894648,9989,0.638428,-0.757812,-0.215942,514
34904632,9984,0.638306,-0.759155,-0.210205,510
34914624,9992,0.638672,-0.760986,-0.209595,511
34924630,10006,0.638062,-0.762207,-0.210815,513
34934625,9995,0.638306,-0.763916,-0.211792,507
34944616,9991,0.638672,-0.764526,-0.213501,514
34954635,10019,0.637573,-0.764038,-0.216187,516
34964639,10004,0.637451,-0.764282,-0.218994,513
34974628,9989,0.637451,-0.763184,-0.219604,511
34984643,10015,0.637695,-0.763428,-0.220703,507
34994625,9982,0.638062,-0.762329,-0.218384,509
35004635,10010,0.638428,-0.760864,-0.218750,507
35014612,9977,0.636841,-0.759155,-0.218140,514
35024625,10013,0.636353,-0.759888,-0.215942,511
35034614,9989,0.636230,-0.760986,-0.216431,514
35044641,10027,0.633789,-0.762695,-0.214600,506
35054623,9982,0.635010,-0.763550,-0.214478,511
35064633,10010,0.634766,-0.763916,-0.213501,510
35074638,10005,0.636841,-0.766602,-0.213013,510
35084636,9998,0.637817,-0.766968,-0.213867,508
35094621,9985,0.638672,-0.765503,-0.214966,512
35104612,9991,0.641479,-0.762939,-0.214844,513
35114629,10017,0.641846,-0.761719,-0.216187,511
35124635,10006,0.640869,-0.756226,-0.216553,507
35134624,9989,0.640747,-0.755615,-0.216797,510
35144637,10013,0.638794,-0.753418,-0.217163,509
35154630,9993,0.639893,-0.754272,-0.216431,512
35164633,10003,0.638672,-0.754761,-0.215454,510
35174659,10026,0.637451,-0.755127,-0.214844,505
35184630,9971,0.638184,-0.757935,-0.214600,508
35194632,10002,0.637695,-0.760498,-0.214233,512
35204633,10001,0.638550,-0.761963,-0.214233,507
35214618,9985,0.640503,-0.762939,-0.214722,513
35224617,9999,0.639771,-0.764404,-0.214844,511
35234615,9998,0.640015,-0.764526,-0.215210,513
35244641,10026,0.640259,-0.764526,-0.214722,511
35254636,9995,0.639282,-0.763550,-0.213501,510
35264630,9994,0.639771,-0.762817,-0.214355,510
35274626,9996,0.637695,-0.761597,-0.213013,508
35284614,9988,0.637329,-0.761841,-0.211792,511
35294618,10004,0.637207,-0.762207,-0.209351,512
35304627,10009,0.636841,-0.762817,-0.208618,511
35314622,9995,0.638672,-0.764038,-0.208862,506
35324629,10007,0.638550,-0.765259,-0.209473,507
35334629,10000,0.640503,-0.766724,-0.209229,510
35344618,9989,0.640991,-0.765381,-0.211914,504
35354618,10000,0.640137,-0.764160,-0.213989,510
35364633,10015,0.638428,-0.762207,-0.214722,507
35374642,10009,0.638550,-0.759155,-0.214600,513
35384621,9979,0.638550,-0.757690,-0.213867,510
35394616,9995,0.636719,-0.756348,-0.213379,510
35404615,9999,0.635132,-0.757446,-0.212769,506
35414637,10022,0.636719,-0.759888,-0.213501,506
35424617,9980,0.637573,-0.762451,-0.215088,512
35434627,10010,0.637329,-0.765137,-0.214355,514
35444628,10001,0.637085,-0.766479,-0.216187,512
35454622,9994,0.636597,-0.767944,-0.219116,516
35464642,10020,0.636475,-0.766602,-0.220337,508
35474615,9973,0.635498,-0.765381,-0.219482,512
35484638,10023,0.634277,-0.764160,-0.217529,511
35494626,9988,0.633789,-0.761108,-0.215576,512
35504638,10012,0.635254,-0.759155,-0.212280,511
35514615,9977,0.636475,-0.760254,-0.208374,508
35524615,10000,0.638184,-0.761475,-0.209106,509
35534614,9999,0.638550,-0.763428,-0.208496,513
35544641,10027,0.640381,-0.765625,-0.210083,505
35554629,9988,0.641235,-0.766479,-0.211548,512
35564630,10001,0.641357,-0.764893,-0.214355,513
35574629,9999,0.639404,-0.763062,-0.215454,512
35584629,10000,0.638428,-0.760498,-0.216064,515
35594639,10010,0.637817,-0.760132,-0.214478,513
35604637,9998,0.637207,-0.759521,-0.214844,512
35614631,9994,0.637451,-0.759521,-0.213013,516
35624618,9987,0.637939,-0.762573,-0.211060,514
35634625,10007,0.637207,-0.764404,-0.211426,511
35644638,10013,0.638794,-0.765869,-0.213501,514
35654625,9987,0.639038,-0.765137,-0.213501,515
35664618,9993,0.640259,-0.762939,-0.215210,511
35674635,10017,0.640747,-0.760498,-0.217285,509
35684621,9986,0.639648,-0.759521,-0.216919,514
35694632,10011,0.638672,-0.758301,-0.215698,512
35704636,10004,0.637695,-0.756836,-0.214722,516
35714623,9987,0.637939,-0.757080,-0.214600,512
35724622,9999,0.637695,-0.758667,-0.212158,512
35734632,10010,0.636841,-0.762207,-0.210083,511
35744634,10002,0.638428,-0.764038,-0.210571,511
35754630,9996,0.637939,-0.764282,-0.210693,511
35764622,9992,0.638306,-0.765747,-0.210815,511
35774617,9995,0.638184,-0.765137,-0.211670,512
35784636,10019,0.640747,-0.763062,-0.213989,513
35794616,9980,0.641113,-0.761841,-0.215088,509
35804632,10016,0.641235,-0.760986,-0.214722,511
35814617,9985,0.640747,-0.759644,-0.215088,508
35824635,10018,0.639282,-0.758057,-0.216309,512
35834655,10020,0.638672,-0.757446,-0.215576,513
35844620,9965,0.639404,-0.759155,-0.213257,508
35854631,10011,0.639771,-0.760986,-0.211792,512
35864622,9991,0.639648,-0.762207,-0.212280,511
35874618,9996,0.640869,-0.763306,-0.211670,507
35884638,10020,0.640747,-0.764038,-0.210815,513
35894632,9994,0.640747,-0.763550,-0.210571,510
35904623,9991,0.641479,-0.763306,-0.209351,510
35914624,10001,0.639648,-0.761475,-0.210083,512
35924637,10013,0.641357,-0.760986,-0.210693,509
35934640,10003,0.642334,-0.759644,-0.210083,509
35944623,9983,0.640991,-0.757935,-0.210937,512
35954641,10018,0.641357,-0.756958,-0.212524,511
35964642,10001,0.642456,-0.755859,-0.214844,506
35974633,9991,0.642334,-0.755737,-0.214111,513
35984636,10003,0.643921,-0.756348,-0.214844,507
35994627,9991,0.644287,-0.757446,-0.216064,511
36004615,9988,0.645874,-0.757202,-0.215088,508
36014658,10043,0.641968,-0.756226,-0.212769,510
36024640,9982,0.642822,-0.756470,-0.211670,512
36034614,9974,0.642334,-0.755981,-0.209839,507
36044631,10017,0.642212,-0.755859,-0.208130,511
36054628,9997,0.641602,-0.756592,-0.207275,511
36064623,9995,0.642700,-0.759644,-0.207764,508
36074627,10004,0.644409,-0.759399,-0.208496,510
36084638,10011,0.644287,-0.760742,-0.210571,509
36094615,9977,0.644653,-0.762207,-0.211670,511
36104626,10011,0.643311,-0.761475,-0.214111,507
36114645,10019,0.639160,-0.760864,-0.215210,507
36124635,9990,0.638306,-0.759155,-0.212891,511
36134618,9983,0.638916,-0.757446,-0.211914,510
36144639,10021,0.639160,-0.757446,-0.209717,511
36154638,9999,0.640625,-0.757324,-0.207153,510
36164613,9975,0.640869,-0.757690,-0.206543,507
36174619,10006,0.642944,-0.761597,-0.207153,508
36184614,9995,0.644165,-0.763794,-0.208496,511
36194634,10020,0.644409,-0.764038,-0.210327,507
36204638,10004,0.643433,-0.763794,-0.212280,511
36214637,9999,0.643066,-0.763794,-0.214233,511
36224612,9975,0.643188,-0.758179,-0.214478,509
36234626,10014,0.642700,-0.755615,-0.214722,513
36244627,10001,0.641724,-0.752441,-0.213623,513
36254631,10004,0.643433,-0.751221,-0.212402,527
36264627,9996,0.642944,-0.751465,-0.210937,513
36274612,9985,0.642944,-0.754272,-0.209351,514
36284626,10014,0.644287,-0.757324,-0.209717,514
36294615,9989,0.642944,-0.759521,-0.210083,516
36304645,10030,0.644165,-0.761108,-0.210083,515
36314621,9976,0.643921,-0.761230,-0.208740,508
36324614,9993,0.641846,-0.760620,-0.208008,496
36334629,10015,0.642822,-0.759399,-0.208618,512
36344641,10012,0.641968,-0.758667,-0.208984,507
36354625,9984,0.642334,-0.756836,-0.210571,512
36364621,9996,0.642456,-0.755249,-0.211548,510
36374612,9991,0.642822,-0.755859,-0.211548,508
36384626,10014,0.642944,-0.755981,-0.212158,512
36394617,9991,0.642822,-0.758667,-0.211914,511
36404619,10002,0.642944,-0.759521,-0.212524,509
36414633,10014,0.642578,-0.759888,-0.211670,505
36424619,9986,0.642456,-0.760132,-0.210693,511
36434624,10005,0.643311,-0.761597,-0.209351,507
36444614,9990,0.641846,-0.760132,-0.207886,507
36454631,10017,0.642090,-0.759888,-0.207764,509
36464627,9996,0.642944,-0.760864,-0.209229,511
36474628,10001,0.645874,-0.762817,-0.207520,512
36484622,9994,0.637573,-0.762207,-0.209839,511
36494615,9993,0.639893,-0.761597,-0.210571,513
36504612,9997,0.638428,-0.762207,-0.212646,511
36514616,10004,0.638306,-0.762817,-0.214600,511
36524638,10022,0.637939,-0.762085,-0.214355,513
36534618,9980,0.639404,-0.761719,-0.213623,512
36544619,10001,0.639771,-0.761108,-0.214111,510
36554618,9999,0.641479,-0.761475,-0.216064,511
36564632,10014,0.640991,-0.759521,-0.215088,507
36574629,9997,0.642212,-0.758301,-0.212769,512
36584663,10034,0.642212,-0.757935,-0.210815,509
36594631,9968,0.641479,-0.756836,-0.211060,509
36604638,10007,0.642212,-0.754883,-0.211182,508
36614620,9982,0.641602,-0.753906,-0.208862,510
36624639,10019,0.643555,-0.754395,-0.207642,506
36634632,9993,0.644653,-0.755615,-0.205444,511
36644618,9986,0.644653,-0.756348,-0.204346,512
36654630,10012,0.644775,-0.756958,-0.206055,512
36664633,10003,0.645142,-0.759644,-0.210449,505
36674642,10009,0.642944,-0.761475,-0.211548,505
36684612,9970,0.642944,-0.761963,-0.212402,509
36694620,10008,0.640381,-0.762817,-0.216064,513
36704654,10034,0.640015,-0.761475,-0.217285,510
36714615,9961,0.640015,-0.761108,-0.215332,510
36724620,10005,0.638550,-0.759277,-0.215088,511
36734625,10005,0.638794,-0.760010,-0.212036,512
36744632,10007,0.639038,-0.759399,-0.210937,506
36754623,9991,0.639526,-0.759888,-0.209351,509
36764619,9996,0.639771,-0.762329,-0.209106,509
36774614,9995,0.641357,-0.763306,-0.207642,512
36784617,10003,0.640869,-0.764893,-0.208008,505
36794622,10005,0.640991,-0.765137,-0.210693,512
36804621,9999,0.641113,-0.764282,-0.211304,510
36814641,10020,0.641968,-0.763062,-0.213623,510
36824634,9993,0.642090,-0.760864,-0.215820,510
36834616,9982,0.640625,-0.757080,-0.214600,513
36844633,10017,0.641724,-0.755737,-0.214966,511
36854629,9996,0.641602,-0.756348,-0.215332,510
36864627,9998,0.640259,-0.755371,-0.213623,508
36874617,9990,0.639648,-0.755737,-0.214722,511
36884635,10018,0.640015,-0.759766,-0.214233,514
36894620,9985,0.641968,-0.760132,-0.214966,512
36904617,9997,0.641968,-0.761841,-0.216187,512
36914618,10001,0.642456,-0.760864,-0.216187,514
36924641,10023,0.642578,-0.759888,-0.215698,512
36934626,9985,0.642090,-0.758911,-0.215942,512
36944618,9992,0.640747,-0.754395,-0.216064,510
36954621,10003,0.641724,-0.753662,-0.214966,513
36964635,10014,0.641724,-0.751831,-0.214478,515
36974652,10017,0.642456,-0.751221,-0.212280,510
36984613,9961,0.642944,-0.752075,-0.211914,514
36994622,10009,0.645508,-0.755737,-0.210937,511
37004622,10000,0.645508,-0.757080,-0.208984,510
37014612,9990,0.644775,-0.758789,-0.209229,509
37024641,10029,0.644287,-0.759888,-0.208618,504
37034637,9996,0.643188,-0.761230,-0.208252,510
37044633,9996,0.643799,-0.760864,-0.210449,509
37054636,10003,0.640991,-0.760742,-0.210937,512
37064997,10361,0.641357,-0.759277,-0.211914,508
37074617,9620,0.641357,-0.756958,-0.212891,512
37084640,10023,0.641479,-0.757080,-0.215942,508
37094622,9982,0.640381,-0.756836,-0.218506,511
37104637,10015,0.639038,-0.758667,-0.221802,506
37114627,9990,0.638794,-0.760254,-0.221069,507
37124624,9997,0.638550,-0.760620,-0.220215,512
37134615,9991,0.640259,-0.761963,-0.221191,510
37144666,10051,0.641724,-0.764038,-0.220825,505
37154639,9973,0.641235,-0.765503,-0.220825,512
37164630,9991,0.637207,-0.765625,-0.219482,512
37174622,9992,0.639893,-0.765503,-0.219116,512
37184635,10013,0.644775,-0.763428,-0.217773,513
37194614,9979,0.640503,-0.764038,-0.218506,513
37204642,10028,0.640259,-0.758057,-0.217285,511
37214632,9990,0.638062,-0.754150,-0.215698,511
37224612,9980,0.640991,-0.754150,-0.216431,511
37234613,10001,0.642212,-0.753418,-0.218018,511
37244628,10015,0.641724,-0.751465,-0.218140,512
37254639,10011,0.642700,-0.752686,-0.217773,506
37264613,9974,0.645508,-0.750000,-0.217407,513
37274615,10002,0.644775,-0.755127,-0.219116,512
37284634,10019,0.645996,-0.755005,-0.220703,507
37294630,9996,0.645752,-0.755859,-0.220581,506
37304628,9998,0.645264,-0.759644,-0.219604,509
37314615,9987,0.646606,-0.755127,-0.221558,507
37324617,10002,0.644653,-0.753784,-0.222046,512
37334612,9995,0.642334,-0.752441,-0.220947,505
37344614,10002,0.641357,-0.752563,-0.219360,506
37354635,10021,0.641479,-0.754028,-0.217163,510
37364619,9984,0.641479,-0.755737,-0.214966,509
37374627,10008,0.641846,-0.758057,-0.215088,512
37384624,9997,0.643311,-0.762695,-0.216064,513
37394637,10013,0.643921,-0.763062,-0.218018,512
37404633,9996,0.645020,-0.763184,-0.218994,509
37414660,10027,0.645020,-0.760742,-0.219604,508
37424630,9970,0.643188,-0.758911,-0.219482,515
37434631,10001,0.645020,-0.756104,-0.218384,512
37444625,9994,0.645142,-0.754395,-0.216064,510
37454632,10007,0.645264,-0.755005,-0.214600,517
37464615,9983,0.644653,-0.756958,-0.211914,515
37474612,9997,0.641602,-0.757812,-0.210937,514
37484625,10013,0.640015,-0.758667,-0.210937,508
37494623,9998,0.639038,-0.759399,-0.213745,512
37504614,9991,0.637085,-0.759155,-0.216187,510
37514617,10003,0.635986,-0.758301,-0.217285,514
37524612,9995,0.637451,-0.757935,-0.221313,513
37534617,10005,0.637329,-0.757935,-0.223877,517
37544631,10014,0.636230,-0.757080,-0.227051,513
37554639,10008,0.635986,-0.756226,-0.227051,511
37564629,9990,0.634155,-0.757324,-0.223877,512
37575302,10673,0.635498,-0.757202,-0.222900,510
37584633,9331,0.636230,-0.759399,-0.219604,506
37594639,10006,0.636963,-0.760376,-0.217896,506
37604635,9996,0.639282,-0.763916,-0.213013,506
37614628,9993,0.639893,-0.766113,-0.212036,510
37624635,10007,0.639282,-0.766357,-0.212158,508
37634633,9998,0.640381,-0.767334,-0.213867,506
37644641,10008,0.638916,-0.766235,-0.216431,510
37654618,9977,0.638428,-0.765137,-0.218750,511
37664637,10019,0.636963,-0.761353,-0.220093,510
37674625,9988,0.637085,-0.759155,-0.220337,508
37684625,10000,0.636719,-0.758667,-0.220459,506
37694654,10029,0.637329,-0.758301,-0.219727,507
37704637,9983,0.637451,-0.757935,-0.219360,512
37714615,9978,0.640625,-0.761108,-0.216919,508
37724619,10004,0.644165,-0.762817,-0.216553,511
37734629,10010,0.639771,-0.763062,-0.216675,509
37744637,10008,0.638550,-0.762451,-0.216431,511
37754636,9999,0.638916,-0.763428,-0.217407,500
37764616,9980,0.639771,-0.763062,-0.219116,512
37774634,10018,0.638428,-0.759766,-0.218994,509
37784626,9992,0.638428,-0.759521,-0.218994,507
37794655,10029,0.637817,-0.758789,-0.220947,509
37804642,9987,0.637939,-0.757690,-0.221069,511
37814614,9972,0.640137,-0.757324,-0.219849,527
37824612,9998,0.640869,-0.758545,-0.219238,512
37834620,10008,0.642090,-0.757446,-0.218994,511
37844635,10015,0.640747,-0.757812,-0.217651,507
37854638,10003,0.641235,-0.756958,-0.216309,496
37864628,9990,0.641235,-0.756226,-0.214355,507
37874630,10002,0.642334,-0.756836,-0.214355,512
37884612,9982,0.643311,-0.756958,-0.212769,512
37894613,10001,0.643433,-0.755371,-0.213867,509
37904639,10026,0.643311,-0.754028,-0.214844,511
37914622,9983,0.638672,-0.757324,-0.215210,510
37924614,9992,0.638672,-0.763916,-0.215576,512
37934612,9998,0.637939,-0.760498,-0.219971,512
37944624,10012,0.633789,-0.764404,-0.218994,511
37954641,10017,0.635498,-0.772095,-0.220825,517
37964664,10023,0.636475,-0.766235,-0.220703,512
37974643,9979,0.636108,-0.764282,-0.222046,511
37984625,9982,0.635498,-0.762817,-0.222778,515
37994627,10002,0.635376,-0.760620,-0.221802,509
38004640,10013,0.634521,-0.759766,-0.221924,509
38014628,9988,0.635620,-0.759521,-0.221313,507
38024632,10004,0.634644,-0.759399,-0.219849,515
38034612,9980,0.634521,-0.759521,-0.219604,516
38044641,10029,0.638916,-0.762207,-0.216675,509
38054641,10000,0.638916,-0.762573,-0.213379,514
38064632,9991,0.639771,-0.762817,-0.211792,512
38074643,10011,0.640869,-0.760986,-0.211792,512
38084633,9990,0.640869,-0.761353,-0.212280,513
38094615,9982,0.640869,-0.760742,-0.212646,512
38104621,10006,0.641113,-0.756958,-0.212891,513
38114634,10013,0.641602,-0.756470,-0.213867,510
38124633,9999,0.641724,-0.755615,-0.213379,505
38134640,10007,0.642212,-0.754761,-0.214722,509
38144625,9985,0.642456,-0.754517,-0.214844,513
38154636,10011,0.643066,-0.755371,-0.212769,509
38164621,9985,0.643677,-0.755127,-0.212769,512
38174618,9997,0.644897,-0.762329,-0.209717,512
38184617,9999,0.643555,-0.755981,-0.208374,511
38194615,9998,0.645996,-0.757568,-0.212280,506
38204637,10022,0.645996,-0.761108,-0.218750,511
38214623,9986,0.644409,-0.758545,-0.219360,507
38224623,10000,0.642212,-0.755371,-0.221924,510
38234622,9999,0.641235,-0.754395,-0.221924,512
38244638,10016,0.641602,-0.754761,-0.220947,509
38254617,9979,0.641113,-0.755249,-0.217407,511
38264614,9997,0.641724,-0.759277,-0.210815,507
38274628,10014,0.643066,-0.761841,-0.207275,512
38284612,9984,0.643921,-0.762573,-0.206543,505
38294622,10010,0.643799,-0.762085,-0.206299,510
38304627,10005,0.644287,-0.762939,-0.206299,508
38314639,10012,0.645142,-0.761108,-0.206665,512
38324630,9991,0.642700,-0.757202,-0.208008,505
38334613,9983,0.642578,-0.756836,-0.208374,512
38344642,10029,0.642212,-0.754150,-0.208984,507
38354637,9995,0.642334,-0.754395,-0.210205,509
38364622,9985,0.642090,-0.754395,-0.213135,513
38374633,10011,0.644775,-0.755737,-0.217041,511
38384634,10001,0.644531,-0.756592,-0.218018,509
38394624,9990,0.643677,-0.757812,-0.216797,512
38404617,9993,0.642334,-0.757935,-0.216675,507
38414633,10016,0.642212,-0.758423,-0.215454,510
38424622,9989,0.640747,-0.757446,-0.213135,507
38434636,10014,0.640259,-0.756470,-0.211670,511
38444635,9999,0.640259,-0.756104,-0.210083,512
38454619,9984,0.639648,-0.758057,-0.210083,510
38464614,9995,0.640015,-0.760620,-0.210571,512
38474635,10021,0.640991,-0.763428,-0.211182,511
38484642,10007,0.641602,-0.766235,-0.213135,512
38494622,9980,0.641113,-0.767212,-0.215454,511
38504668,10046,0.641846,-0.765503,-0.215332,506
38514645,9977,0.642090,-0.763062,-0.215454,513
38524636,9991,0.642700,-0.758423,-0.215088,512
38534619,9983,0.643555,-0.755249,-0.213379,516
38544629,10010,0.644775,-0.749878,-0.213623,514
38554632,10003,0.644165,-0.748657,-0.213257,515
38564641,10009,0.643311,-0.750244,-0.211792,513
38574630,9989,0.641846,-0.752563,-0.212769,515
38584635,10005,0.643433,-0.755127,-0.212524,510
38594625,9990,0.641968,-0.761963,-0.213501,515
38604613,9988,0.641724,-0.762817,-0.212158,508
38614637,10024,0.640991,-0.763916,-0.213135,509
38624645,10008,0.638916,-0.763672,-0.214478,512
38634626,9981,0.639404,-0.762817,-0.214600,512
38644639,10013,0.638184,-0.762207,-0.216187,512
38654614,9975,0.638794,-0.759521,-0.217163,511
38664633,10019,0.638672,-0.758179,-0.217773,512
38674620,9987,0.638794,-0.756714,-0.216553,509
38684614,9994,0.638428,-0.756104,-0.217773,511
38694621,10007,0.639648,-0.757080,-0.217651,512
38704638,10017,0.637573,-0.759644,-0.214233,509
38714638,10000,0.638672,-0.762817,-0.214233,509
38724633,9995,0.638184,-0.763184,-0.212524,510
38734633,10000,0.640503,-0.763428,-0.210449,510
38744639,10006,0.639160,-0.762817,-0.209351,508
38754628,9989,0.637817,-0.763184,-0.210327,504
38764626,9998,0.637817,-0.756348,-0.213135,506
38774640,10014,0.635864,-0.767822,-0.213623,511
38784621,9981,0.638428,-0.766235,-0.214722,511
38794666,10045,0.638306,-0.760986,-0.216919,512
38804645,9979,0.639160,-0.759033,-0.218628,512
38814630,9985,0.640869,-0.757568,-0.224731,507
38824620,9990,0.641113,-0.757812,-0.226929,512
38834620,10000,0.641479,-0.758179,-0.226440,512
38844622,10002,0.639526,-0.759033,-0.224731,508
38854625,10003,0.638306,-0.760010,-0.222778,513
38864634,10009,0.636719,-0.760986,-0.221191,503
38874630,9996,0.635132,-0.762573,-0.219971,512
38884621,9991,0.635010,-0.763184,-0.221191,512
38894637,10016,0.635498,-0.763550,-0.221924,510
38904614,9977,0.636841,-0.762817,-0.223267,506
38914618,10004,0.638184,-0.762207,-0.224243,509
38924630,10012,0.638550,-0.760742,-0.224365,512
38934639,10009,0.639282,-0.758667,-0.222534,512
38944637,9998,0.641113,-0.758057,-0.223999,507
38954629,9992,0.642334,-0.757935,-0.222290,511
38964640,10011,0.641724,-0.757690,-0.221924,481
38974616,9976,0.641602,-0.757080,-0.220215,506
38984621,10005,0.639893,-0.755737,-0.218384,511
38994642,10021,0.641357,-0.754517,-0.218140,507
39004635,9993,0.640747,-0.753296,-0.219482,510
39014629,9994,0.641113,-0.751953,-0.219971,512
39024627,9998,0.641357,-0.752075,-0.220459,511
39034615,9988,0.641235,-0.754028,-0.223267,513
39044623,10008,0.640625,-0.755127,-0.222900,511
39054617,9994,0.641602,-0.758667,-0.223633,513
39064614,9997,0.642212,-0.761108,-0.224243,513
39074640,10026,0.643066,-0.762817,-0.224609,506
39084626,9986,0.642212,-0.764038,-0.224609,508
39094652,10026,0.639160,-0.764648,-0.224731,511
39104643,9991,0.637085,-0.763062,-0.225098,511
39114641,9998,0.634155,-0.761353,-0.225708,505
39124619,9978,0.632568,-0.759888,-0.223999,515
39134623,10004,0.630737,-0.759399,-0.222900,515
39144631,10008,0.631836,-0.762329,-0.217163,515
39154614,9983,0.631226,-0.764648,-0.216309,515
39164622,10008,0.632080,-0.767334,-0.216187,512
39174629,10007,0.632568,-0.768921,-0.216309,513
39184616,9987,0.633545,-0.770264,-0.217041,513
39194636,10020,0.634644,-0.769287,-0.218384,511
39204613,9977,0.633911,-0.764160,-0.222900,513
39214626,10013,0.633301,-0.760132,-0.226318,512
39224642,10016,0.632568,-0.758911,-0.227051,512
39234634,9992,0.632690,-0.757568,-0.228149,510
39244620,9986,0.632568,-0.757202,-0.227539,512
39254621,10001,0.632324,-0.758911,-0.223999,509
39264622,10001,0.633423,-0.759888,-0.221802,505
39274625,10003,0.637451,-0.761719,-0.219604,510
39284620,9995,0.638184,-0.762695,-0.219604,513
39294637,10017,0.639160,-0.762207,-0.220215,513
39304641,10004,0.642822,-0.761353,-0.220825,507
39314640,9999,0.643677,-0.757568,-0.224365,509
39324627,9987,0.642578,-0.758179,-0.226929,514
39334628,10001,0.640869,-0.756470,-0.229736,506
39344618,9990,0.639404,-0.753540,-0.231689,509
39354623,10005,0.638916,-0.758545,-0.232178,510
39364636,10013,0.637451,-0.758545,-0.225586,513
39374657,10021,0.636353,-0.760986,-0.225098,507
39384650,9993,0.637085,-0.763428,-0.223511,508
39394628,9978,0.638062,-0.764160,-0.222534,514
39404636,10008,0.637085,-0.763184,-0.222290,511
39414638,10002,0.636963,-0.762207,-0.221191,510
39424614,9976,0.636719,-0.759033,-0.221802,508
39434631,10017,0.636108,-0.757935,-0.222534,513
39444628,9997,0.636719,-0.757324,-0.224731,514
39454612,9984,0.635986,-0.756592,-0.223755,507
39464628,10016,0.634766,-0.759399,-0.223633,511
39474637,10009,0.634521,-0.762207,-0.225952,511
39484619,9982,0.634521,-0.762573,-0.227173,512
39494657,10038,0.634521,-0.762695,-0.225830,510
39504640,9983,0.633179,-0.761475,-0.227417,508
39514612,9972,0.633667,-0.760376,-0.229004,509
39524616,10004,0.634155,-0.757812,-0.227783,511
39534622,10006,0.637939,-0.754150,-0.231812,512
39544627,10005,0.638672,-0.755127,-0.232544,511
39554641,10014,0.641113,-0.756348,-0.232178,526
39564618,9977,0.639771,-0.758301,-0.231323,506
39574625,10007,0.639404,-0.759766,-0.228394,508
39584625,10000,0.638794,-0.762207,-0.220215,512
39594615,9990,0.633789,-0.760620,-0.216553,509
39604625,10010,0.634155,-0.760498,-0.215820,513
39614626,10001,0.634521,-0.759033,-0.214478,512
39624629,10003,0.636841,-0.760986,-0.214600,512
39634632,10003,0.635864,-0.763062,-0.215698,509
39644628,9996,0.636108,-0.767944,-0.219604,511
39654659,10031,0.635132,-0.768188,-0.222778,512
39664625,9966,0.633911,-0.769409,-0.225342,509
39674621,9996,0.633301,-0.768677,-0.228149,514
39684630,10009,0.632935,-0.766846,-0.230469,513
39694618,9988,0.632446,-0.762573,-0.229858,509
39704625,10007,0.631592,-0.760254,-0.226807,513
39714626,10001,0.633057,-0.759399,-0.227295,513
39724615,9989,0.633911,-0.758301,-0.225098,514
39734627,10012,0.634644,-0.759277,-0.223511,517
39744621,9994,0.636475,-0.759033,-0.222778,517
39754617,9996,0.639648,-0.759155,-0.222900,512
39764630,10013,0.640503,-0.758179,-0.223511,511
39774630,10000,0.639526,-0.759155,-0.223755,515
39784629,9999,0.641968,-0.755493,-0.225220,509
39794635,10006,0.640869,-0.754761,-0.225342,512
39804628,9993,0.639648,-0.751709,-0.226929,514
39814612,9984,0.638672,-0.751221,-0.226685,514
39824633,10021,0.638062,-0.751953,-0.226807,506
39834637,10004,0.638306,-0.753296,-0.225098,510
39844620,9983,0.637085,-0.754639,-0.223999,512
39854625,10005,0.638428,-0.754761,-0.223022,510
39864630,10005,0.639038,-0.757935,-0.224487,512
39874634,10004,0.640137,-0.760620,-0.225586,509
39884637,10003,0.639404,-0.762817,-0.226318,506
39894635,9998,0.639282,-0.764648,-0.226074,510
39904616,9981,0.638794,-0.764648,-0.226685,506
39914619,10003,0.634766,-0.760986,-0.227783,511
39924636,10017,0.634155,-0.759033,-0.227661,510
39934622,9986,0.633911,-0.755981,-0.227417,512
39944626,10004,0.635864,-0.756226,-0.227295,511
39954631,10005,0.636230,-0.756836,-0.226807,508
39964618,9987,0.636108,-0.759033,-0.224121,508
39974640,10022,0.637085,-0.762939,-0.221802,507
39984615,9975,0.637695,-0.763062,-0.222412,513
39994624,10009,0.636475,-0.763550,-0.222168,506
40004617,9993,0.636108,-0.763550,-0.224731,512
40014652,10035,0.635742,-0.762207,-0.226196,512
40024617,9965,0.634277,-0.759521,-0.226685,510
40034632,10015,0.634766,-0.760132,-0.227417,513
40044629,9997,0.634399,-0.758667,-0.228027,510
40054626,9997,0.635986,-0.758301,-0.227783,512
40064620,9994,0.637329,-0.756348,-0.228882,512
40074622,10002,0.638428,-0.756348,-0.228638,512
40084634,10012,0.638306,-0.759521,-0.227783,511
40094620,9986,0.637085,-0.762695,-0.227051,511
40104633,10013,0.637085,-0.763306,-0.226196,511
40114627,9994,0.634277,-0.764404,-0.224976,512
40124616,9989,0.633423,-0.764771,-0.223511,509
40134633,10017,0.633423,-0.765381,-0.225830,511
40144615,9982,0.632568,-0.764526,-0.225952,510
40154662,10047,0.633667,-0.762939,-0.229004,510
40164646,9984,0.633789,-0.761719,-0.229126,507
40174616,9970,0.633667,-0.761475,-0.228638,505
40184623,10007,0.633789,-0.760986,-0.227051,508
40194618,9995,0.636108,-0.759277,-0.226929,506
40204642,10024,0.636841,-0.757935,-0.225586,503
40214625,9983,0.636841,-0.756592,-0.225220,508
40224638,10013,0.637451,-0.756348,-0.226929,511
40234627,9989,0.638184,-0.755859,-0.228271,513
40244625,9998,0.639893,-0.757935,-0.228760,510
40254614,9989,0.640503,-0.757568,-0.229370,510
40264625,10011,0.640869,-0.756836,-0.228149,512
40274629,10004,0.647095,-0.757690,-0.225830,510
40284653,10024,0.637573,-0.756226,-0.225464,511
40294634,9981,0.635132,-0.754761,-0.223022,509
40304637,10003,0.637939,-0.755493,-0.215942,510
40314613,9976,0.637573,-0.756226,-0.214722,513
40324636,10023,0.638306,-0.758057,-0.214844,512
40334634,9998,0.638672,-0.759888,-0.215820,511
40344619,9985,0.637939,-0.761963,-0.218628,513
40354634,10015,0.635986,-0.766235,-0.226196,510
40364630,9996,0.634644,-0.767334,-0.228638,512
40374641,10011,0.632935,-0.767334,-0.233398,508
40384637,9996,0.630737,-0.765259,-0.234009,511
40394636,9999,0.630249,-0.762695,-0.234131,514
40404633,9997,0.630371,-0.759521,-0.232178,514
40414635,10002,0.632568,-0.758789,-0.228638,514
40424626,9991,0.633301,-0.758911,-0.228027,514
40434616,9990,0.633789,-0.760742,-0.227661,512
40444654,10038,0.635010,-0.763184,-0.226562,514
40454622,9968,0.635620,-0.765137,-0.226685,511
40464627,10005,0.631226,-0.766724,-0.226196,513
40474620,9993,0.632568,-0.766113,-0.226074,514
40484631,10011,0.632446,-0.763672,-0.224731,515
40494613,9982,0.632690,-0.760986,-0.224609,514
40504631,10018,0.634766,-0.758911,-0.224854,511
40514613,9982,0.635132,-0.757690,-0.225464,515
40524612,9999,0.637451,-0.755371,-0.228027,508
40534638,10026,0.636841,-0.753906,-0.228149,511
40544631,9993,0.636597,-0.755249,-0.229004,511
40554621,9990,0.636475,-0.756714,-0.228271,511
40564628,10007,0.635132,-0.757568,-0.227661,511
40574635,10007,0.634521,-0.759399,-0.223877,512
40584636,10001,0.634521,-0.761719,-0.223022,510
40594612,9976,0.634888,-0.762085,-0.222290,511
40604631,10019,0.636475,-0.762573,-0.225586,512
40614632,10001,0.637329,-0.762451,-0.227417,509
40624621,9989,0.637573,-0.762207,-0.230225,506
40634633,10012,0.636841,-0.760864,-0.232788,507
40644633,10000,0.636475,-0.760864,-0.234131,508
40654618,9985,0.636597,-0.759766,-0.234863,512
40664619,10001,0.634155,-0.760132,-0.234131,510
40674620,10001,0.633667,-0.760620,-0.231934,511
40684641,10021,0.634521,-0.762329,-0.229492,510
40694638,9997,0.635864,-0.760742,-0.229370,512
40704648,10010,0.636719,-0.758301,-0.228271,512
40714617,9969,0.635742,-0.758667,-0.226929,506
40724635,10018,0.636108,-0.758545,-0.226929,509
40734631,9996,0.634644,-0.758301,-0.227661,509
40744616,9985,0.633545,-0.759277,-0.228271,512
40754633,10017,0.634766,-0.760864,-0.226440,511
40764639,10006,0.634888,-0.761475,-0.225220,511
40774615,9976,0.635132,-0.762085,-0.223877,510
40784620,10005,0.634521,-0.761719,-0.224976,510
40794622,10002,0.640015,-0.758545,-0.228394,510
40804612,9990,0.638794,-0.760132,-0.232788,509
40814629,10017,0.638306,-0.758789,-0.232666,511
40824639,10010,0.638062,-0.757812,-0.234009,510
40834619,9980,0.636597,-0.757812,-0.234253,506
40844623,10004,0.634399,-0.756592,-0.234497,511
40854626,10003,0.632812,-0.755493,-0.233887,507
40864634,10008,0.632812,-0.755737,-0.230347,511
40874615,9981,0.633057,-0.757935,-0.229858,511
40884616,10001,0.633667,-0.759888,-0.228271,495
40894612,9996,0.635742,-0.760498,-0.228271,511
40904634,10022,0.639038,-0.762451,-0.229370,512
40914614,9980,0.638184,-0.762329,-0.230225,510
40924616,10002,0.638428,-0.761719,-0.231201,505
40934632,10016,0.638306,-0.761353,-0.230713,511
40944620,9988,0.637207,-0.760498,-0.231201,506
40954636,10016,0.635742,-0.757690,-0.230835,511
40964620,9984,0.633911,-0.754883,-0.230469,511
40974650,10030,0.633911,-0.754761,-0.230347,512
40984632,9982,0.633301,-0.754761,-0.229492,510
40994622,9990,0.634766,-0.755249,-0.230591,505
41004636,10014,0.636597,-0.757568,-0.232422,512
41014628,9992,0.637451,-0.760864,-0.235596,511
41024614,9986,0.638428,-0.762329,-0.237305,510
41034631,10017,0.637573,-0.764160,-0.234863,512
41045529,10898,0.635498,-0.761475,-0.233154,511
41054623,9094,0.635498,-0.761353,-0.232178,508
41064615,9992,0.632935,-0.760986,-0.231445,511
41074630,10015,0.632202,-0.762207,-0.223999,511
41084618,9988,0.633057,-0.760376,-0.223633,512
41094620,10002,0.634033,-0.759033,-0.225830,512
41104620,10000,0.633911,-0.758301,-0.228516,512
41114619,9999,0.634399,-0.758057,-0.231201,509
41124633,10014,0.635986,-0.759399,-0.234985,513
41134631,9998,0.636719,-0.759155,-0.235596,510
41144613,9982,0.637085,-0.760132,-0.236450,512
41154621,10008,0.637573,-0.760132,-0.236572,512
41164624,10003,0.636841,-0.757446,-0.235718,510
41174627,10003,0.636108,-0.756470,-0.234009,513
41184638,10011,0.636841,-0.755981,-0.231567,514
41194628,9990,0.635986,-0.755249,-0.231079,513
41204631,10003,0.636475,-0.756714,-0.229980,513
41214623,9992,0.636353,-0.758423,-0.229126,510
41224633,10010,0.635742,-0.760132,-0.228394,513
41234619,9986,0.634644,-0.762207,-0.228516,511
41244635,10016,0.635498,-0.761841,-0.229614,515
41254613,9978,0.635132,-0.759521,-0.230835,513
41264612,9999,0.634033,-0.758667,-0.230835,510
41274638,10026,0.635132,-0.759155,-0.232178,512
41284628,9990,0.634644,-0.758667,-0.233521,512
41294634,10006,0.635254,-0.758545,-0.234009,513
41304616,9982,0.635132,-0.757812,-0.233398,509
41314619,10003,0.635620,-0.758667,-0.232788,513
41324626,10007,0.636597,-0.757080,-0.232422,512
41334615,9989,0.636719,-0.757324,-0.230225,506
41344627,10012,0.637695,-0.759888,-0.227539,511
41354612,9985,0.637939,-0.761841,-0.226196,510
41364621,10009,0.638306,-0.763794,-0.225952,509
41374632,10011,0.637695,-0.765259,-0.225464,509
41384612,9980,0.638184,-0.763062,-0.226440,511
41394642,10030,0.635986,-0.761353,-0.227417,510
41404634,9992,0.635742,-0.758667,-0.230713,511
41414636,10002,0.634033,-0.757324,-0.230957,510
41424616,9980,0.634155,-0.756958,-0.231812,510
41434620,10004,0.633423,-0.756226,-0.231079,511
41444638,10018,0.632690,-0.756226,-0.227905,509
41454629,9991,0.633179,-0.760742,-0.228516,513
41464612,9983,0.632690,-0.761475,-0.229126,510
41474622,10010,0.634033,-0.761963,-0.227783,511
41484639,10017,0.634521,-0.763062,-0.228882,507
41494640,10001,0.634155,-0.763916,-0.228271,511
41504621,9981,0.632202,-0.763306,-0.227539,509
41514636,10015,0.634888,-0.766357,-0.225342,513
41524621,9985,0.634644,-0.765991,-0.226318,513
41534613,9992,0.634521,-0.764160,-0.226685,512
41544615,10002,0.635254,-0.762329,-0.227295,511
41554640,10025,0.637207,-0.759399,-0.226807,514
41564642,10002,0.640259,-0.755127,-0.229736,516
41574639,9997,0.640991,-0.752563,-0.231201,507
41584615,9976,0.641968,-0.752441,-0.230713,512
41594641,10026,0.642456,-0.752197,-0.231323,511
41604618,9977,0.642944,-0.753174,-0.230469,505
41614625,10007,0.643066,-0.753906,-0.228638,511
41624615,9990,0.645752,-0.754883,-0.225220,507
41634634,10019,0.645264,-0.754517,-0.223633,508
41644631,9997,0.644653,-0.754028,-0.222534,508
41654631,10000,0.643433,-0.754639,-0.220215,512
41664614,9983,0.641724,-0.755615,-0.218262,511
41674637,10023,0.638062,-0.760986,-0.217285,508
41684621,9984,0.635254,-0.762451,-0.215942,510
41694633,10012,0.634033,-0.763672,-0.215698,509
41704616,9983,0.633301,-0.765747,-0.217285,512
41714622,10006,0.636841,-0.769897,-0.218262,510
41724632,10010,0.633057,-0.770142,-0.219727,511
41734637,10005,0.633179,-0.770264,-0.220947,505
41744616,9979,0.634033,-0.769897,-0.221313,510
41754619,10003,0.636841,-0.768066,-0.221802,511
41764619,10000,0.638062,-0.765381,-0.220093,510
41774629,10010,0.639648,-0.762695,-0.219360,513
41784630,10001,0.642090,-0.753906,-0.219849,513
41794629,9999,0.642700,-0.748535,-0.225586,512
41804638,10009,0.644531,-0.746094,-0.228394,507
41814626,9988,0.644653,-0.744873,-0.230103,512
41824656,10030,0.644775,-0.746826,-0.229492,507
41834641,9985,0.643799,-0.749756,-0.227661,509
41844629,9988,0.646484,-0.750488,-0.221802,513
41854629,10000,0.643799,-0.755859,-0.216064,513
41865029,10400,0.646118,-0.756958,-0.212524,514
41874616,9587,0.648437,-0.759155,-0.208252,512
41884615,9999,0.645508,-0.758301,-0.206055,512
41894633,10018,0.645264,-0.760986,-0.206299,515
41904627,9994,0.647461,-0.760132,-0.205933,512
41914640,10013,0.648560,-0.753052,-0.209106,514
41924640,10000,0.643433,-0.761841,-0.210205,508
41934628,9988,0.642090,-0.762939,-0.212646,513
41944642,10014,0.641479,-0.756836,-0.213135,513
41954626,9984,0.636963,-0.752686,-0.214355,514
41964653,10027,0.640381,-0.750977,-0.215576,514
41974620,9967,0.646240,-0.743042,-0.215454,515
41984639,10019,0.635254,-0.759399,-0.213623,511
41994640,10001,0.640869,-0.757202,-0.213135,515
42004620,9980,0.640015,-0.765991,-0.213013,515
42014622,10002,0.643921,-0.762451,-0.211426,513
42024612,9990,0.638306,-0.767700,-0.208130,513
42034633,10021,0.640259,-0.770996,-0.207153,511
42044616,9983,0.640503,-0.766235,-0.205566,508
42054619,10003,0.639526,-0.763672,-0.205811,514
42064630,10011,0.640259,-0.758667,-0.206909,513
42074636,10006,0.640625,-0.758545,-0.206299,512
42084613,9977,0.641602,-0.759033,-0.208984,507
42094616,10003,0.642700,-0.761230,-0.209473,508
42104639,10023,0.642334,-0.762207,-0.210571,508
42114641,10002,0.643799,-0.763550,-0.213379,510
42124652,10011,0.643555,-0.763550,-0.213745,511
42134623,9971,0.641602,-0.762939,-0.213745,513
42144640,10017,0.640869,-0.762085,-0.213135,512
42154623,9983,0.639893,-0.760376,-0.213013,512
42164615,9992,0.641113,-0.758545,-0.212769,513
42174635,10020,0.638306,-0.756348,-0.213989,509
42184641,10006,0.639038,-0.757080,-0.213501,505
42194626,9985,0.640381,-0.758667,-0.213013,510
42204628,10002,0.640015,-0.761353,-0.213501,507
42214630,10002,0.640869,-0.762085,-0.212524,512
42224612,9982,0.641235,-0.761108,-0.211670,513
42234623,10011,0.641113,-0.759399,-0.211182,513
42244638,10015,0.641479,-0.759888,-0.210083,512
42254641,10003,0.640625,-0.759399,-0.209839,514
42264619,9978,0.640869,-0.760132,-0.210815,512
42274639,10020,0.640259,-0.759888,-0.211670,511
42284623,9984,0.638306,-0.760376,-0.212646,515
42294634,10011,0.637695,-0.759521,-0.214478,512
42304632,9998,0.637451,-0.760376,-0.213745,511
42314638,10006,0.638916,-0.762939,-0.215332,509
42324640,10002,0.640625,-0.763672,-0.216064,499
42334638,9998,0.641968,-0.763184,-0.214722,512
42344628,9990,0.641113,-0.760986,-0.212158,506
42354616,9988,0.640137,-0.760376,-0.210449,507
42364629,10013,0.641113,-0.757568,-0.207520,512
42376896,12267,0.640259,-0.754761,-0.208862,512
42384621,7725,0.000000,0.000000,0.000000,506
42394626,10005,0.640625,-0.757202,-0.211182,508
42404639,10013,0.639648,-0.759644,-0.213867,511
42414614,9975,0.638916,-0.762207,-0.214966,508
42424616,10002,0.637939,-0.764160,-0.212036,507
42434627,10011,0.638672,-0.765625,-0.208130,510
42444632,10005,0.639404,-0.768066,-0.205933,512
42454627,9995,0.639648,-0.769409,-0.209717,513
42464618,9991,0.639160,-0.768066,-0.215332,511
42474616,9998,0.637207,-0.765137,-0.219604,511
42484618,10002,0.636841,-0.764648,-0.222290,505
42494619,10001,0.637207,-0.762695,-0.223755,514
42504632,10013,0.634399,-0.759155,-0.219604,510
42514630,9998,0.634888,-0.760132,-0.217407,512
42524628,9998,0.635010,-0.760254,-0.215942,506
42534622,9994,0.637207,-0.763428,-0.211426,504
42544646,10024,0.639038,-0.763306,-0.210815,509
42554642,9996,0.643066,-0.766357,-0.210205,509
42564628,9986,0.646362,-0.763184,-0.209595,508
42574613,9985,0.646240,-0.758423,-0.210693,507
42584641,10028,0.646606,-0.758057,-0.211182,506
42594639,9998,0.646362,-0.756958,-0.211792,508
42604639,10000,0.644531,-0.755859,-0.211792,514
42614620,9981,0.641113,-0.749756,-0.213013,510
42624621,10001,0.640869,-0.748047,-0.213257,510
42634641,10020,0.640381,-0.748291,-0.213379,508
42644616,9975,0.639893,-0.749512,-0.214844,515
42654641,10025,0.640381,-0.752197,-0.218262,512
42664631,9990,0.640015,-0.758789,-0.224487,507
42674638,10007,0.641724,-0.764160,-0.225952,513
42684613,9975,0.641968,-0.765503,-0.229492,515
42694637,10024,0.642578,-0.766724,-0.231567,514
42704633,9996,0.642822,-0.760620,-0.234985,510
42714635,10002,0.639771,-0.756226,-0.234985,516
42724621,9986,0.638062,-0.750610,-0.230835,511
42734637,10016,0.638428,-0.751099,-0.227295,511
42744636,9999,0.637573,-0.750000,-0.223022,514
42754629,9993,0.638184,-0.750732,-0.219238,512
42764639,10010,0.640747,-0.752563,-0.218140,516
42774632,9993,0.643066,-0.754639,-0.215088,513
42784619,9987,0.645264,-0.758911,-0.213623,508
42794625,10006,0.645630,-0.760986,-0.213867,513
42804612,9987,0.647095,-0.762329,-0.213135,511
42814620,10008,0.646118,-0.760742,-0.211792,513
42824623,10003,0.644287,-0.757324,-0.212036,513
42834612,9989,0.641724,-0.753540,-0.214966,513
42844620,10008,0.641846,-0.751587,-0.216309,512
42854641,10021,0.641602,-0.753052,-0.215576,512
42864641,10000,0.641479,-0.754761,-0.215332,511
42874630,9989,0.642578,-0.757568,-0.216309,507
42887494,12864,0.644409,-0.763306,-0.214722,506
42894612,7118,0.642456,-0.764282,-0.215698,511
42904614,10002,0.641846,-0.763306,-0.216675,509
42914632,10018,0.643921,-0.761475,-0.219238,505
42924619,9987,0.642090,-0.761475,-0.220581,508
42934612,9993,0.642212,-0.760376,-0.222046,512
42944616,10004,0.642334,-0.754639,-0.223877,512
42954636,10020,0.641479,-0.750488,-0.225220,512
42964622,9986,0.640381,-0.751831,-0.224243,512
42974614,9992,0.641235,-0.751465,-0.221069,509
42984624,10010,0.641968,-0.751953,-0.219360,512
42994624,10000,0.643555,-0.753662,-0.214722,509
43004619,9995,0.645264,-0.757568,-0.213135,513
43014625,10006,0.644775,-0.759033,-0.210937,509
43024631,10006,0.645630,-0.760010,-0.210693,514
43034632,10001,0.644775,-0.758301,-0.211304,511
43044633,10001,0.645508,-0.756470,-0.213135,507
43054640,10007,0.644409,-0.753052,-0.215698,540
43064617,9977,0.644287,-0.751831,-0.217041,507
43074626,10009,0.645386,-0.751221,-0.215820,506
43084622,9996,0.643188,-0.751465,-0.215332,512
43094613,9991,0.643188,-0.751831,-0.213135,511
43104632,10019,0.643066,-0.754761,-0.211792,507
43114620,9988,0.644409,-0.759155,-0.212402,508
43124635,10015,0.642822,-0.759399,-0.213135,513
43134615,9980,0.641846,-0.758179,-0.215820,508
43144616,10001,0.647583,-0.758301,-0.216675,507
43154640,10024,0.643799,-0.758301,-0.219727,511
43164659,10019,0.640503,-0.757812,-0.221069,512
43174636,9977,0.640137,-0.758667,-0.219604,510
43184623,9987,0.640259,-0.760010,-0.218506,509
43194617,9994,0.640381,-0.759399,-0.216553,510
43204636,10019,0.642090,-0.759033,-0.214966,512
43214615,9979,0.642212,-0.764893,-0.211914,507
