t_us,dt_us,ax,ay,az,ppg
20626737,10043,0.333618,-0.621460,-0.736694,514
20636715,9978,0.334595,-0.623169,-0.739502,510
20646709,9994,0.334106,-0.622192,-0.743286,511
20656704,9995,0.335083,-0.620972,-0.743774,510
20666716,10012,0.334473,-0.621826,-0.741943,511
20676695,9979,0.335693,-0.621826,-0.739014,511
20686704,10009,0.335327,-0.621826,-0.736694,511
20696704,10000,0.335815,-0.622070,-0.735596,517
20706708,10004,0.335449,-0.622681,-0.735474,515
20716700,9992,0.334106,-0.623047,-0.734985,511
20726703,10003,0.333862,-0.623413,-0.735474,510
20736720,10017,0.333130,-0.624023,-0.734253,516
20746713,9993,0.330933,-0.625000,-0.734741,513
20756695,9982,0.328979,-0.626953,-0.737915,512
20766708,10013,0.328735,-0.627319,-0.738403,510
20776715,10007,0.327759,-0.629028,-0.739380,513
20786699,9984,0.328613,-0.630371,-0.738770,509
20796718,10019,0.327148,-0.632202,-0.739014,512
20806694,9976,0.327148,-0.630493,-0.738770,507
20816702,10008,0.325806,-0.631348,-0.738770,512
20826712,10010,0.325317,-0.631348,-0.737061,509
20836716,10004,0.325317,-0.630615,-0.739014,510
20846708,9992,0.326050,-0.632446,-0.738892,511
20856715,10007,0.326782,-0.631348,-0.736816,507
20866723,10008,0.326172,-0.628662,-0.737793,505
20876695,9972,0.326172,-0.627197,-0.737549,510
20886709,10014,0.327026,-0.626343,-0.738403,506
20896724,10015,0.327393,-0.626099,-0.738770,507
20906696,9972,0.328247,-0.626099,-0.737183,511
20916698,10002,0.327515,-0.625977,-0.737671,509
20926706,10008,0.327881,-0.625244,-0.738281,512
20936718,10012,0.328125,-0.626465,-0.738159,511
20946706,9988,0.329468,-0.627075,-0.737549,512
20956701,9995,0.329346,-0.628174,-0.739380,507
20966699,9998,0.329102,-0.627197,-0.739502,511
20976711,10012,0.329834,-0.626343,-0.739136,513
20986718,10007,0.331543,-0.626343,-0.738525,509
20996717,9999,0.331177,-0.627075,-0.737183,510
21006706,9989,0.331543,-0.626831,-0.737305,506
21016697,9991,0.331543,-0.625977,-0.735229,511
21026699,10002,0.330811,-0.625488,-0.735962,513
21036697,9998,0.330322,-0.625366,-0.737793,509
21046720,10023,0.331299,-0.626343,-0.740356,506
21056699,9979,0.331055,-0.627075,-0.742310,511
21066701,10002,0.332397,-0.626953,-0.742065,506
21076707,10006,0.330444,-0.626343,-0.739380,509
21086723,10016,0.329468,-0.624878,-0.737793,511
21096709,9986,0.329712,-0.623657,-0.736572,512
21106705,9996,0.330078,-0.623901,-0.737183,509
21116701,9996,0.330566,-0.623779,-0.737793,503
21126714,10013,0.330322,-0.624390,-0.738037,502
21136702,9988,0.330078,-0.626709,-0.738770,511
21146702,10000,0.329468,-0.627441,-0.739624,511
21156697,9995,0.328247,-0.628540,-0.740112,508
21166696,9999,0.326538,-0.628906,-0.741455,512
21176712,10016,0.323364,-0.629028,-0.741211,505
21186702,9990,0.322266,-0.631226,-0.741089,507
21196723,10021,0.322144,-0.628784,-0.739258,514
21206713,9990,0.323486,-0.626831,-0.740479,512
21216709,9996,0.324341,-0.626099,-0.740112,511
21226717,10008,0.326294,-0.625122,-0.739136,510
21236694,9977,0.329834,-0.624878,-0.738525,514
21246710,10016,0.331299,-0.623779,-0.736938,517
21256715,10005,0.332886,-0.621704,-0.738281,515
21266714,9999,0.334473,-0.621826,-0.738770,510
21276720,10006,0.334839,-0.621826,-0.739502,517
21286731,10011,0.336670,-0.621826,-0.740356,513
21296694,9963,0.335693,-0.623047,-0.741577,516
21306701,10007,0.335815,-0.623047,-0.740967,518
21316722,10021,0.334351,-0.623413,-0.739136,517
21326700,9978,0.333008,-0.624146,-0.738037,513
21336699,9999,0.331177,-0.624146,-0.736938,514
21346715,10016,0.327759,-0.626221,-0.738770,513
21356707,9992,0.327759,-0.626709,-0.739868,513
21366697,9990,0.326416,-0.626831,-0.739014,512
21376714,10017,0.327393,-0.626587,-0.739990,513
21386701,9987,0.327515,-0.627686,-0.740356,508
21396715,10014,0.325439,-0.627075,-0.740845,512
21406709,9994,0.325195,-0.627930,-0.742432,511
21416720,10011,0.324951,-0.630005,-0.740967,513
21426715,9995,0.324951,-0.629517,-0.739258,511
21436694,9979,0.325317,-0.628662,-0.738403,513
21446705,10011,0.326782,-0.628052,-0.737671,508
21456699,9994,0.328125,-0.627319,-0.737671,510
21466699,10000,0.328247,-0.625732,-0.737183,507
21476712,10013,0.328247,-0.624146,-0.738159,509
21486696,9984,0.329468,-0.623901,-0.737061,511
21496714,10018,0.328735,-0.623047,-0.738037,511
21506698,9984,0.330078,-0.625366,-0.739136,511
21516711,10013,0.329468,-0.626099,-0.739136,512
21526699,9988,0.330688,-0.625977,-0.738647,510
21536703,10004,0.331665,-0.627563,-0.738159,509
21546695,9992,0.331299,-0.626953,-0.736328,510
21556706,10011,0.330688,-0.625610,-0.734863,507
21566699,9993,0.330200,-0.625000,-0.734497,514
21576695,9996,0.330322,-0.625244,-0.732666,512
21586718,10023,0.330688,-0.626099,-0.734497,511
21596700,9982,0.332275,-0.625732,-0.734375,505
21606705,10005,0.331787,-0.625732,-0.735474,510
21616705,10000,0.332153,-0.625732,-0.738525,513
21626706,10001,0.331421,-0.626343,-0.740845,510
21636697,9991,0.330566,-0.626709,-0.742920,510
21646718,10021,0.329346,-0.625244,-0.743652,511
21656700,9982,0.328735,-0.626099,-0.742920,510
21666723,10023,0.328979,-0.626709,-0.741333,511
21676702,9979,0.328979,-0.625977,-0.738403,512
21686715,10013,0.328613,-0.625610,-0.735596,509
21696694,9979,0.328979,-0.625610,-0.734375,505
21706720,10026,0.328979,-0.624268,-0.734863,511
21716712,9992,0.329224,-0.626343,-0.738037,511
21726703,9991,0.330566,-0.626343,-0.738281,510
21736696,9993,0.332886,-0.626099,-0.738403,511
21746705,10009,0.330566,-0.625977,-0.738525,511
21756695,9990,0.331421,-0.626221,-0.741943,513
21766699,10004,0.330200,-0.625610,-0.742432,510
21776718,10019,0.328369,-0.627319,-0.741577,511
21786707,9989,0.329224,-0.627319,-0.739258,506
21796720,10013,0.328613,-0.626709,-0.738403,513
21806723,10003,0.329712,-0.625488,-0.737183,514
21816712,9989,0.332031,-0.624756,-0.736816,508
21826701,9989,0.335449,-0.624146,-0.738159,509
21836722,10021,0.336548,-0.622803,-0.738403,514
21846722,10000,0.337769,-0.621826,-0.738281,510
21856702,9980,0.338379,-0.621338,-0.739014,511
21866699,9997,0.339478,-0.619995,-0.739136,517
21876699,10000,0.340210,-0.620972,-0.739258,512
21886739,10040,0.339844,-0.619751,-0.738770,515
21896703,9964,0.339111,-0.618896,-0.739502,513
21906716,10013,0.336548,-0.620605,-0.739746,513
21916702,9986,0.335327,-0.621582,-0.740234,511
21926715,10013,0.334473,-0.620972,-0.739136,515
21936717,10002,0.331299,-0.622681,-0.739136,512
21946713,9996,0.329834,-0.623779,-0.740234,511
21956701,9988,0.330322,-0.624390,-0.737915,512
21966717,10016,0.329712,-0.624023,-0.738647,513
21976715,9998,0.328247,-0.624756,-0.739502,510
21986698,9983,0.327637,-0.623535,-0.741821,510
21996712,10014,0.325195,-0.624268,-0.743042,512
22006694,9982,0.325562,-0.625122,-0.743286,507
22016747,10053,0.326416,-0.625977,-0.743286,511
22026714,9967,0.327393,-0.628296,-0.741821,508
22036695,9981,0.328247,-0.629028,-0.739014,510
22046697,10002,0.329468,-0.626587,-0.737915,510
22056709,10012,0.331543,-0.626709,-0.737183,509
22066721,10012,0.331543,-0.624756,-0.737915,511
22076735,10014,0.332642,-0.622925,-0.738403,510
22086704,9969,0.333130,-0.622314,-0.738647,508
22096720,10016,0.334839,-0.621704,-0.739136,511
22106699,9979,0.335449,-0.621094,-0.738281,500
22116713,10014,0.334961,-0.622314,-0.738770,510
22126703,9990,0.335815,-0.622437,-0.736816,511
22136699,9996,0.337280,-0.622925,-0.737671,510
22146695,9996,0.334839,-0.622314,-0.737793,508
22156703,10008,0.334229,-0.622803,-0.738281,510
22166721,10018,0.333862,-0.622437,-0.740723,505
22176721,10000,0.334106,-0.622192,-0.740845,509
22186723,10002,0.332520,-0.623047,-0.739868,512
22196702,9979,0.332153,-0.622925,-0.739014,510
22206732,10030,0.331543,-0.624390,-0.738892,511
22216715,9983,0.330566,-0.623901,-0.738281,510
22226718,10003,0.329346,-0.623779,-0.738159,511
22236705,9987,0.327393,-0.623657,-0.739502,505
22246704,9999,0.327271,-0.624512,-0.741089,509
22256715,10011,0.326538,-0.625488,-0.742920,511
22266712,9997,0.328857,-0.627075,-0.742798,508
22276718,10006,0.331909,-0.628052,-0.743774,510
22286714,9996,0.332764,-0.625977,-0.741821,511
22296697,9983,0.331055,-0.624756,-0.739990,512
22306715,10018,0.333008,-0.622070,-0.737915,508
22316713,9998,0.336060,-0.621948,-0.735596,506
22326721,10008,0.338989,-0.622681,-0.735474,509
22336733,10012,0.339600,-0.622681,-0.735474,508
22346711,9978,0.339600,-0.624390,-0.734131,511
22356722,10011,0.337891,-0.624023,-0.735962,506
22366718,9996,0.335938,-0.625610,-0.738281,510
22376711,9993,0.332275,-0.626587,-0.739624,508
22386704,9993,0.330200,-0.626343,-0.741089,512
22396723,10019,0.329346,-0.627441,-0.742432,507
22406703,9980,0.328491,-0.626587,-0.741943,513
22416720,10017,0.327026,-0.626343,-0.741821,513
22426701,9981,0.328003,-0.626099,-0.742065,514
22436724,10023,0.328247,-0.625732,-0.741577,517
22446700,9976,0.329102,-0.625366,-0.740112,517
22456712,10012,0.330078,-0.624268,-0.738037,517
22466701,9989,0.332031,-0.624023,-0.739502,517
22476718,10017,0.334839,-0.623657,-0.739380,514
22486696,9978,0.334839,-0.621826,-0.740234,519
22496722,10026,0.334473,-0.621460,-0.741089,512
22506695,9973,0.335938,-0.620117,-0.739380,514
22516719,10024,0.335327,-0.620117,-0.737549,518
22526705,9986,0.334351,-0.620117,-0.736084,514
22536717,10012,0.334229,-0.620605,-0.735352,507
22546701,9984,0.334839,-0.622559,-0.733887,514
22556707,10006,0.336426,-0.626709,-0.733765,513
22566707,10000,0.336914,-0.627808,-0.736450,506
22576710,10003,0.337158,-0.630981,-0.737671,513
22586698,9988,0.335449,-0.631470,-0.736206,512
22596700,10002,0.336304,-0.631470,-0.735352,511
22606699,9999,0.335815,-0.630005,-0.734375,512
22616706,10007,0.336060,-0.625000,-0.733032,511
22626708,10002,0.336914,-0.608643,-0.734985,507
22636695,9987,0.334473,-0.633057,-0.737549,511
22646708,10013,0.336914,-0.593628,-0.735962,511
22656715,10007,0.333862,-0.623779,-0.731445,511
22666718,10003,0.334961,-0.649414,-0.736206,511
22676726,10008,0.331543,-0.628540,-0.733521,509
22686715,9989,0.318848,-0.561035,-0.730713,511
22696701,9986,0.328003,-0.654541,-0.733398,509
22706695,9994,0.330444,-0.677734,-0.738403,511
22716699,10004,0.329712,-0.637573,-0.734131,512
22726706,10007,0.327393,-0.628418,-0.730957,512
22736722,10016,0.326050,-0.637451,-0.728149,507
22746722,10000,0.328491,-0.631470,-0.727173,513
22756708,9986,0.328247,-0.632080,-0.730103,503
22766695,9987,0.331787,-0.636841,-0.731323,512
22776717,10022,0.333130,-0.637817,-0.730469,512
22786723,10006,0.332886,-0.636963,-0.732056,512
22796718,9995,0.339966,-0.637573,-0.730713,511
22806703,9985,0.340942,-0.635864,-0.729248,510
22816719,10016,0.339966,-0.632568,-0.726807,511
22826710,9991,0.342163,-0.629395,-0.724976,509
22836704,9994,0.344360,-0.629639,-0.725220,510
22846703,9999,0.343994,-0.631714,-0.726562,510
22856719,10016,0.344971,-0.630005,-0.727417,512
22866716,9997,0.345825,-0.628418,-0.726074,504
22876697,9981,0.344849,-0.622559,-0.725708,507
22886705,10008,0.346802,-0.625122,-0.725708,509
22896699,9994,0.348389,-0.628662,-0.727539,508
22906720,10021,0.344727,-0.627930,-0.728394,510
22916694,9974,0.343506,-0.629517,-0.726074,509
22926715,10021,0.342163,-0.629272,-0.724365,506
22936718,10003,0.341187,-0.628418,-0.723755,511
22946711,9993,0.340576,-0.628052,-0.726562,512
22956702,9991,0.340210,-0.631836,-0.730347,503
22966715,10013,0.340576,-0.632202,-0.731445,508
22976716,10001,0.339722,-0.631592,-0.732056,508
22986711,9995,0.337402,-0.631226,-0.729858,511
22996718,10007,0.337280,-0.630493,-0.729370,509
23006694,9976,0.333984,-0.633545,-0.729614,511
23016731,10037,0.333618,-0.635376,-0.727661,514
23026721,9990,0.333618,-0.637451,-0.727295,512
23036710,9989,0.332275,-0.638916,-0.725708,509
23046706,9996,0.332642,-0.639893,-0.727051,508
23056722,10016,0.331787,-0.640991,-0.727905,512
23066696,9974,0.331909,-0.639771,-0.727539,513
23076698,10002,0.333984,-0.638794,-0.729614,517
23086715,10017,0.334595,-0.638672,-0.730103,511
23096706,9991,0.335205,-0.635254,-0.730103,515
23106695,9989,0.338989,-0.633179,-0.728271,511
23116718,10023,0.340942,-0.630981,-0.727295,517
23126704,9986,0.341675,-0.630615,-0.726929,512
23136709,10005,0.341064,-0.630737,-0.727295,516
23146733,10024,0.339722,-0.631348,-0.726562,518
23156694,9961,0.339722,-0.632690,-0.728027,514
23166719,10025,0.337402,-0.635254,-0.730103,516
23176707,9988,0.336792,-0.635498,-0.731201,512
23186715,10008,0.336182,-0.635376,-0.731323,530
23196706,9991,0.335693,-0.634644,-0.730103,509
23206718,10012,0.335815,-0.633911,-0.730713,516
23216722,10004,0.335083,-0.633057,-0.728638,507
23226702,9980,0.336304,-0.633667,-0.727539,512
23236709,10007,0.335327,-0.633911,-0.726196,509
23246711,10002,0.336426,-0.634399,-0.724976,511
23256721,10010,0.336426,-0.635010,-0.724976,511
23266706,9985,0.334595,-0.637329,-0.726440,511
23276697,9991,0.333008,-0.635742,-0.729858,512
23286723,10026,0.331909,-0.635498,-0.731445,508
23296720,9997,0.331665,-0.634521,-0.731079,511
23306697,9977,0.333008,-0.634644,-0.730469,511
23316718,10021,0.332886,-0.633423,-0.728271,512
23326705,9987,0.333862,-0.631592,-0.729858,512
23336719,10014,0.335815,-0.632202,-0.730713,510
23346711,9992,0.337891,-0.631348,-0.728638,511
23356700,9989,0.339233,-0.631958,-0.727905,508
23366714,10014,0.341309,-0.630981,-0.726074,511
23376705,9991,0.342041,-0.628784,-0.726196,512
23386716,10011,0.343018,-0.626221,-0.726807,512
23396720,10004,0.342773,-0.625854,-0.729858,511
23406713,9993,0.343262,-0.628296,-0.729736,508
23416717,10004,0.343506,-0.627319,-0.730103,511
23426719,10002,0.342529,-0.628784,-0.730103,510
23436705,9986,0.338379,-0.632446,-0.728027,512
23446724,10019,0.336792,-0.633179,-0.729004,513
23456719,9995,0.334351,-0.633545,-0.728027,508
23466721,10002,0.332397,-0.633423,-0.728882,504
23476705,9984,0.331421,-0.634888,-0.729492,512
23486733,10028,0.329956,-0.634644,-0.731323,508
23496709,9976,0.329956,-0.634155,-0.730469,513
23506705,9996,0.330933,-0.634521,-0.731201,511
23516708,10003,0.333130,-0.634155,-0.733765,509
23526704,9996,0.335327,-0.633789,-0.735840,511
23536718,10014,0.336060,-0.633789,-0.736450,512
23546713,9995,0.336914,-0.634766,-0.733032,511
23556714,10001,0.337769,-0.633179,-0.731934,510
23566716,10002,0.337769,-0.630493,-0.731934,509
23576704,9988,0.336914,-0.628906,-0.731079,512
23586720,10016,0.336914,-0.628784,-0.729980,512
23596710,9990,0.336914,-0.629272,-0.725586,510
23606708,9998,0.337891,-0.629761,-0.728027,511
23616709,10001,0.337524,-0.629395,-0.731323,512
23626723,10014,0.338867,-0.630859,-0.734619,508
23636700,9977,0.340820,-0.632080,-0.735962,507
23646712,10012,0.342041,-0.633545,-0.733032,512
23656721,10009,0.342163,-0.633667,-0.731323,511
23666703,9982,0.340454,-0.633423,-0.729980,504
23676704,10001,0.339844,-0.635010,-0.729126,504
23686730,10026,0.337891,-0.636719,-0.729126,512
23696707,9977,0.337280,-0.636963,-0.729736,506
23706700,9993,0.336914,-0.637573,-0.728882,512
23716714,10014,0.337036,-0.635620,-0.731323,509
23726694,9980,0.335083,-0.632202,-0.733276,510
23736710,10016,0.333862,-0.629639,-0.733276,516
23746695,9985,0.333008,-0.627563,-0.733276,516
23756741,10046,0.335205,-0.628906,-0.730591,516
23766699,9958,0.334961,-0.629761,-0.729492,514
23776715,10016,0.337280,-0.631714,-0.725098,516
23786700,9985,0.335815,-0.631470,-0.724365,518
23796694,9994,0.335205,-0.631714,-0.724121,517
23806723,10029,0.335205,-0.634155,-0.728394,515
23816710,9987,0.334839,-0.634888,-0.728882,514
23826701,9991,0.335083,-0.633789,-0.729614,517
23836706,10005,0.335571,-0.632324,-0.729736,516
23846700,9994,0.335449,-0.630981,-0.729248,516
23856717,10017,0.335083,-0.629883,-0.729126,514
23866722,10005,0.335571,-0.629883,-0.726807,512
23876698,9976,0.336792,-0.629883,-0.724854,513
23886735,10037,0.336914,-0.630493,-0.723755,513
23896695,9960,0.337769,-0.631958,-0.723267,510
23906700,10005,0.338257,-0.632446,-0.723999,514
23916705,10005,0.338745,-0.635132,-0.726685,512
23926696,9991,0.339111,-0.635498,-0.728760,512
23936705,10009,0.339111,-0.635986,-0.729248,492
23946718,10013,0.340088,-0.634521,-0.730469,509
23956715,9997,0.339966,-0.634155,-0.730957,511
23966718,10003,0.338501,-0.632446,-0.731445,514
23976697,9979,0.337036,-0.632812,-0.731689,509
23986705,10008,0.337036,-0.633057,-0.729614,511
23996702,9997,0.335815,-0.635376,-0.730469,512
24006704,10002,0.334351,-0.637329,-0.728638,511
24016707,10003,0.333374,-0.637085,-0.729858,506
24026708,10001,0.332886,-0.638062,-0.727295,513
24036696,9988,0.333008,-0.638062,-0.726929,510
24046714,10018,0.331909,-0.638550,-0.725220,511
24056699,9985,0.331665,-0.638062,-0.725708,511
24066708,10009,0.331665,-0.638550,-0.725830,511
24076711,10003,0.331177,-0.639160,-0.724976,512
24086703,9992,0.331055,-0.640015,-0.724854,512
24096723,10020,0.331055,-0.639160,-0.724365,512
24106711,9988,0.330444,-0.638306,-0.723877,511
24116707,9996,0.330933,-0.637939,-0.727295,510
24126715,10008,0.332886,-0.637451,-0.729126,508
24136701,9986,0.333496,-0.634521,-0.728638,510
24146723,10022,0.334717,-0.633423,-0.727783,510
24156701,9978,0.335693,-0.632812,-0.726929,512
24166717,10016,0.336182,-0.633179,-0.727173,506
24176717,10000,0.336304,-0.633667,-0.726807,510
24186700,9983,0.337158,-0.633057,-0.726685,510
24196703,10003,0.338501,-0.633179,-0.725220,511
24206737,10034,0.339233,-0.632935,-0.724731,511
24216721,9984,0.339722,-0.632935,-0.724976,510
24226714,9993,0.340210,-0.631958,-0.726929,510
24236695,9981,0.340942,-0.631348,-0.728882,505
24246697,10002,0.340698,-0.631592,-0.729248,511
24256709,10012,0.341797,-0.631592,-0.727173,508
24266719,10010,0.343140,-0.631592,-0.727295,510
24276733,10014,0.343018,-0.630737,-0.725830,509
24286696,9963,0.341431,-0.631226,-0.726074,509
24296698,10002,0.339111,-0.628174,-0.727051,511
24308554,11856,0.338989,-0.628540,-0.725586,509
24316708,8154,0.337769,-0.629639,-0.726562,508
24326699,9991,0.336914,-0.631226,-0.727295,508
24336715,10016,0.338013,-0.632446,-0.728638,505
24346739,10024,0.337524,-0.636963,-0.730103,509
24356703,9964,0.336060,-0.636841,-0.730835,505
24366714,10011,0.334717,-0.638062,-0.731567,510
24376696,9982,0.333984,-0.638794,-0.733521,512
24386716,10020,0.331909,-0.638184,-0.734619,509
24396715,9999,0.331909,-0.638672,-0.732056,509
24406703,9988,0.333740,-0.638794,-0.730835,512
24416736,10033,0.334717,-0.636963,-0.730103,514
24426718,9982,0.335327,-0.637085,-0.729858,514
24436721,10003,0.336548,-0.634155,-0.731079,515
24446707,9986,0.338013,-0.633423,-0.729614,514
24456696,9989,0.340942,-0.631592,-0.727539,516
24466710,10014,0.343018,-0.630981,-0.726807,513
24476710,10000,0.343018,-0.628906,-0.726929,519
24486722,10012,0.343140,-0.629395,-0.727051,514
24496707,9985,0.343994,-0.629517,-0.726196,510
24506718,10011,0.344482,-0.629761,-0.726318,510
24516708,9990,0.343872,-0.628906,-0.727295,509
24526712,10004,0.344238,-0.630249,-0.727051,514
24536704,9992,0.342651,-0.630371,-0.725952,514
24546707,10003,0.340210,-0.629517,-0.724365,513
24556702,9995,0.338501,-0.629517,-0.726196,512
24566710,10008,0.336792,-0.630615,-0.728271,512
24576709,9999,0.336426,-0.630493,-0.729004,510
24586709,10000,0.336670,-0.630981,-0.728516,506
24596708,9999,0.337402,-0.632080,-0.729126,511
24606718,10010,0.338745,-0.633057,-0.728394,511
24616695,9977,0.338257,-0.634399,-0.726318,511
24626720,10025,0.339844,-0.634888,-0.725586,505
24636715,9995,0.340332,-0.634277,-0.725708,509
24646723,10008,0.341064,-0.634766,-0.725586,510
24656712,9989,0.340942,-0.634033,-0.725464,509
24666700,9988,0.341553,-0.633667,-0.726562,507
24676702,10002,0.341675,-0.633057,-0.726074,510
24686697,9995,0.341675,-0.633789,-0.724854,508
24696721,10024,0.341797,-0.632935,-0.725098,509
24706716,9995,0.342529,-0.632080,-0.724854,510
24716715,9999,0.342163,-0.632202,-0.725952,510
24726724,10009,0.343140,-0.634521,-0.726929,512
24736721,9997,0.343506,-0.633911,-0.726562,512
24746699,9978,0.341919,-0.634644,-0.726440,506
24756718,10019,0.340576,-0.634277,-0.724976,511
24766717,9999,0.339478,-0.633545,-0.725708,512
24776706,9989,0.338989,-0.634155,-0.726807,507
24786708,10002,0.339355,-0.634033,-0.728394,512
24796708,10000,0.339233,-0.634033,-0.729614,512
24806709,10001,0.340332,-0.633911,-0.730835,508
24816713,10004,0.340332,-0.633423,-0.731567,511
24826724,10011,0.340820,-0.631226,-0.731079,509
24836719,9995,0.342041,-0.629883,-0.731689,505
24846719,10000,0.343262,-0.630127,-0.730713,508
24856697,9978,0.343018,-0.630859,-0.729248,507
24866720,10023,0.342896,-0.630249,-0.728516,509
24876720,10000,0.342407,-0.630371,-0.727295,511
24886709,9989,0.341064,-0.631958,-0.726685,511
24896725,10016,0.341675,-0.632690,-0.725708,508
24906713,9988,0.341675,-0.632202,-0.723389,510
24916700,9987,0.343262,-0.632080,-0.721802,507
24926716,10016,0.342529,-0.633911,-0.722290,510
24936707,9991,0.342041,-0.633179,-0.721924,505
24946717,10010,0.341797,-0.633179,-0.723511,510
24956694,9977,0.342041,-0.632690,-0.724609,511
24966721,10027,0.342285,-0.633057,-0.726318,507
24976722,10001,0.342896,-0.632446,-0.725952,509
24986694,9972,0.343018,-0.632812,-0.727295,509
24996698,10004,0.340942,-0.634033,-0.726562,505
25006707,10009,0.340210,-0.635620,-0.727905,510
25016710,10003,0.338257,-0.635010,-0.727905,511
25026736,10026,0.336182,-0.635376,-0.728271,511
25036698,9962,0.336670,-0.635254,-0.726562,512
25046706,10008,0.337891,-0.635864,-0.720825,512
25056700,9994,0.336914,-0.633179,-0.722046,507
25066697,9997,0.338013,-0.631104,-0.722900,512
25076712,10015,0.338379,-0.630371,-0.726318,515
25086701,9989,0.337158,-0.630127,-0.729492,511
25096714,10013,0.338257,-0.629150,-0.733887,517
25106717,10003,0.338989,-0.630005,-0.736450,513
25116718,10001,0.338135,-0.630249,-0.735962,515
25126712,9994,0.339233,-0.631470,-0.736450,515
25136717,10005,0.338501,-0.632935,-0.735474,514
25146722,10005,0.338867,-0.634888,-0.732422,513
25156721,9999,0.337769,-0.634644,-0.726562,509
25166724,10003,0.338257,-0.634399,-0.723389,513
25176719,9995,0.337891,-0.633179,-0.722900,513
25186703,9984,0.339722,-0.633545,-0.723022,513
25196722,10019,0.339478,-0.631592,-0.724976,509
25206705,9983,0.340576,-0.629150,-0.728638,513
25216715,10010,0.342529,-0.630127,-0.730469,512
25226718,10003,0.343140,-0.630493,-0.731079,511
25236720,10002,0.342773,-0.630005,-0.729980,511
25246705,9985,0.343140,-0.629395,-0.727905,509
25256721,10016,0.342651,-0.628906,-0.727173,509
25266695,9974,0.343506,-0.629028,-0.727051,508
25276724,10029,0.341553,-0.628418,-0.726562,511
25286716,9992,0.341675,-0.627563,-0.728149,509
25296723,10007,0.341431,-0.627686,-0.727417,509
25306713,9990,0.341675,-0.627441,-0.729492,512
25316711,9998,0.343628,-0.627686,-0.729858,508
25326723,10012,0.344360,-0.629761,-0.729980,511
25336718,9995,0.345459,-0.630127,-0.729248,509
25346705,9987,0.345337,-0.630493,-0.730469,490
25356712,10007,0.345337,-0.630615,-0.728638,511
25366698,9986,0.345337,-0.629517,-0.729004,508
25376710,10012,0.345093,-0.630981,-0.728516,511
25386711,10001,0.346558,-0.630493,-0.729370,503
25396694,9983,0.346191,-0.630737,-0.729980,509
25406696,10002,0.346558,-0.630737,-0.727905,512
25416705,10009,0.346069,-0.632690,-0.727905,512
25426700,9995,0.347168,-0.631470,-0.726685,510
25436705,10005,0.345825,-0.630615,-0.723755,511
25446700,9995,0.343628,-0.628540,-0.723267,510
25456695,9995,0.343628,-0.629517,-0.723267,511
25466722,10027,0.343750,-0.627808,-0.722046,512
25476699,9977,0.341309,-0.629517,-0.724976,508
25486715,10016,0.340576,-0.630371,-0.728271,510
25496699,9984,0.340088,-0.630981,-0.729858,511
25506708,10009,0.338745,-0.631470,-0.731079,504
25516709,10001,0.338501,-0.630981,-0.729980,507
25526694,9985,0.337036,-0.630737,-0.726074,510
25536721,10027,0.337402,-0.633423,-0.726318,504
25546698,9977,0.336792,-0.632446,-0.726318,509
25556705,10007,0.339478,-0.632812,-0.725830,510
25566695,9990,0.340820,-0.632568,-0.725098,508
25576697,10002,0.341919,-0.633301,-0.726074,511
25586718,10021,0.344849,-0.634033,-0.727661,509
25596713,9995,0.343384,-0.633301,-0.728027,509
25606717,10004,0.344360,-0.632324,-0.728516,507
25616723,10006,0.343872,-0.632690,-0.728027,511
25626710,9987,0.343872,-0.633057,-0.727539,509
25636709,9999,0.342896,-0.631836,-0.726562,505
25646703,9994,0.341797,-0.631348,-0.727417,513
25656746,10043,0.343994,-0.631592,-0.727783,513
25666709,9963,0.343506,-0.631714,-0.727661,515
25676717,10008,0.342529,-0.630859,-0.728149,513
25686707,9990,0.344360,-0.630859,-0.726196,512
25696705,9998,0.344360,-0.629883,-0.726074,514
25706695,9990,0.345215,-0.628784,-0.726440,514
25716714,10019,0.345459,-0.627808,-0.727051,515
25726735,10021,0.345825,-0.628540,-0.727051,512
25736720,9985,0.347656,-0.628906,-0.727417,513
25746710,9990,0.346191,-0.629272,-0.727539,514
25756724,10014,0.344849,-0.629272,-0.726440,513
25766695,9971,0.344238,-0.629150,-0.727173,515
25776716,10021,0.341797,-0.629883,-0.728394,512
25786720,10004,0.341309,-0.630371,-0.727783,514
25796728,10008,0.338257,-0.631470,-0.729858,514
25806723,9995,0.338257,-0.630981,-0.730103,513
25816717,9994,0.337402,-0.632568,-0.729980,505
25826703,9986,0.338257,-0.631836,-0.729736,508
25836698,9995,0.336792,-0.631470,-0.729858,511
25846720,10022,0.338013,-0.631226,-0.727905,510
25856702,9982,0.338135,-0.632568,-0.728882,511
25866709,10007,0.338135,-0.633545,-0.727905,511
25876714,10005,0.338745,-0.633179,-0.725464,507
25886711,9997,0.338623,-0.633301,-0.725220,511
25896697,9986,0.339111,-0.633301,-0.724976,506
25906697,10000,0.337646,-0.632812,-0.726562,511
25916705,10008,0.338501,-0.632446,-0.729736,507
25926706,10001,0.338623,-0.633057,-0.731812,512
25936698,9992,0.338013,-0.631836,-0.732666,511
25946723,10025,0.339478,-0.631714,-0.734131,512
25956718,9995,0.342407,-0.630249,-0.732910,511
25966720,10002,0.343994,-0.629517,-0.731201,510
25976712,9992,0.344849,-0.629150,-0.729980,503
25986694,9982,0.347046,-0.629028,-0.728638,505
25996698,10004,0.347290,-0.627319,-0.727661,511
26006711,10013,0.348511,-0.627563,-0.724121,507
26016735,10024,0.348877,-0.627319,-0.721802,509
26026697,9962,0.348389,-0.626465,-0.721802,509
26036713,10016,0.348267,-0.628540,-0.722778,510
26046708,9995,0.348022,-0.628052,-0.723389,521
26056697,9989,0.346680,-0.627319,-0.724121,512
26066718,10021,0.343140,-0.628296,-0.727173,509
26076719,10001,0.342407,-0.628418,-0.728516,507
26086707,9988,0.340820,-0.629272,-0.729736,532
26096719,10012,0.339478,-0.630005,-0.730835,506
26106713,9994,0.338257,-0.630249,-0.732178,510
26116697,9984,0.337402,-0.631348,-0.732300,519
26126697,10000,0.335938,-0.632080,-0.730835,511
26136717,10020,0.335205,-0.632935,-0.728516,510
26146699,9982,0.334351,-0.633667,-0.728394,511
26156718,10019,0.334229,-0.633301,-0.729492,511
26166714,9996,0.334229,-0.633545,-0.732056,511
26176700,9986,0.335815,-0.633301,-0.730713,510
26186694,9994,0.337769,-0.632568,-0.727905,506
26196698,10004,0.338623,-0.632446,-0.726807,503
26206695,9997,0.338501,-0.631104,-0.726929,512
26216697,10002,0.338745,-0.630615,-0.727783,507
26226727,10030,0.338867,-0.629761,-0.728149,512
26236695,9968,0.339722,-0.630859,-0.728638,506
26246719,10024,0.338135,-0.631714,-0.728149,505
26256705,9986,0.337891,-0.630249,-0.729736,513
26266711,10006,0.337402,-0.630249,-0.730713,513
26276717,10006,0.337158,-0.631836,-0.733765,514
26286700,9983,0.338379,-0.633301,-0.735718,512
26296704,10004,0.338501,-0.632324,-0.735229,513
26306694,9990,0.339355,-0.631592,-0.734497,513
26316714,10020,0.339966,-0.631714,-0.734253,514
26326721,10007,0.341187,-0.630737,-0.734009,515
26336698,9977,0.343506,-0.627930,-0.730347,516
26346717,10019,0.343384,-0.628540,-0.727295,515
26356704,9987,0.343506,-0.627319,-0.725830,513
26366700,9996,0.343262,-0.627319,-0.725342,516
26376710,10010,0.341187,-0.629028,-0.726318,515
26386723,10013,0.341431,-0.628906,-0.726562,515
26396717,9994,0.339233,-0.629395,-0.728638,516
26406710,9993,0.338257,-0.630005,-0.727661,513
26416701,9991,0.337524,-0.629395,-0.727539,507
26426704,10003,0.336792,-0.629272,-0.726440,512
26436709,10005,0.335815,-0.630005,-0.727661,507
26446697,9988,0.335083,-0.630005,-0.729248,514
26456706,10009,0.334595,-0.631470,-0.731201,506
26466703,9997,0.334717,-0.632812,-0.731567,509
26476709,10006,0.335327,-0.633789,-0.729614,506
26486711,10002,0.334961,-0.634277,-0.730347,508
26496703,9992,0.336060,-0.634399,-0.730835,510
26506701,9998,0.335327,-0.634277,-0.730835,511
26516712,10011,0.336670,-0.633789,-0.730225,507
26526698,9986,0.336426,-0.633911,-0.729980,511
26536697,9999,0.337402,-0.632935,-0.729370,510
26546719,10022,0.337891,-0.632935,-0.727051,511
26556698,9979,0.339966,-0.632202,-0.727539,508
26566717,10019,0.339600,-0.632080,-0.725830,511
26576705,9988,0.340454,-0.632690,-0.726318,507
26586722,10017,0.340332,-0.632202,-0.727661,511
26596721,9999,0.341064,-0.632812,-0.727661,506
26606694,9973,0.343140,-0.633301,-0.729614,512
26616721,10027,0.343384,-0.632690,-0.730347,508
26626707,9986,0.343506,-0.632446,-0.728760,513
26636736,10029,0.342529,-0.631592,-0.729736,512
26646712,9976,0.343994,-0.632080,-0.729004,512
26656720,10008,0.344360,-0.631226,-0.727051,512
26666717,9997,0.344360,-0.631592,-0.725708,511
26676722,10005,0.346436,-0.631470,-0.726562,510
26686721,9999,0.345825,-0.630981,-0.726562,512
26696717,9996,0.347412,-0.630493,-0.724976,513
26706703,9986,0.348877,-0.631714,-0.724487,510
26716696,9993,0.349731,-0.630981,-0.724121,509
26726694,9998,0.350586,-0.630005,-0.723267,510
26736716,10022,0.352173,-0.629517,-0.720581,506
26746715,9999,0.352905,-0.629639,-0.719360,507
26756720,10005,0.352173,-0.628784,-0.716553,511
26766749,10029,0.350586,-0.629028,-0.716919,509
26776720,9971,0.349243,-0.627930,-0.720825,505
26786714,9994,0.349243,-0.629395,-0.722900,505
26796695,9981,0.347534,-0.631226,-0.724976,511
26806723,10028,0.348633,-0.632690,-0.725586,508
26816699,9976,0.344727,-0.634888,-0.724121,511
26826720,10021,0.343018,-0.637329,-0.724976,511
26836712,9992,0.340942,-0.637085,-0.723145,510
26846734,10022,0.341309,-0.636963,-0.723267,513
26856699,9965,0.340332,-0.637085,-0.722656,511
26866723,10024,0.340210,-0.637207,-0.723267,513
26876708,9985,0.342773,-0.634033,-0.720825,513
26886711,10003,0.342529,-0.636963,-0.723022,511
26896713,10002,0.343384,-0.636230,-0.727417,513
26906712,9999,0.345337,-0.636841,-0.730835,514
26916725,10013,0.347412,-0.637085,-0.730347,513
26926719,9994,0.349609,-0.631348,-0.725464,511
26936715,9996,0.349243,-0.630493,-0.723877,517
26946695,9980,0.350342,-0.629028,-0.721802,508
26956699,10004,0.351563,-0.628418,-0.719238,515
26966723,10024,0.352783,-0.628052,-0.717773,517
26976712,9989,0.352539,-0.628662,-0.717529,514
26986703,9991,0.352905,-0.630737,-0.717773,513
26996706,10003,0.353027,-0.631958,-0.719604,514
27006703,9997,0.351807,-0.631592,-0.723389,511
27016716,10013,0.350342,-0.631226,-0.725586,513
27026723,10007,0.348022,-0.630615,-0.726440,510
27036707,9984,0.344971,-0.629517,-0.727295,510
27046722,10015,0.343140,-0.631470,-0.727051,507
27056721,9999,0.342651,-0.633057,-0.725952,507
27066730,10009,0.340820,-0.634766,-0.724121,512
27076694,9964,0.341064,-0.638550,-0.723633,508
27086695,10001,0.340942,-0.641479,-0.721680,513
27096723,10028,0.340942,-0.642334,-0.721558,511
27106719,9996,0.340820,-0.642578,-0.721680,512
27116711,9992,0.340576,-0.640747,-0.723267,512
27126712,10001,0.340942,-0.639282,-0.723755,508
27136703,9991,0.341309,-0.637573,-0.724487,512
27146729,10026,0.341919,-0.637085,-0.725952,506
27156721,9992,0.343506,-0.637085,-0.727539,506
27166698,9977,0.345581,-0.637451,-0.728027,509
27176723,10025,0.347046,-0.636475,-0.727661,511
27186695,9972,0.348755,-0.636230,-0.724121,511
27196702,10007,0.350708,-0.632935,-0.720703,511
27206718,10016,0.351685,-0.632812,-0.718384,513
27216720,10002,0.352417,-0.632324,-0.716309,509
27226716,9996,0.352051,-0.631592,-0.718628,511
27236711,9995,0.351929,-0.632202,-0.719116,507
27246713,10002,0.351318,-0.632690,-0.718628,512
27256700,9987,0.350464,-0.632446,-0.718750,511
27266712,10012,0.349731,-0.631714,-0.719849,511
27276695,9983,0.349609,-0.631836,-0.721191,512
27286714,10019,0.348755,-0.630859,-0.722046,511
27296704,9990,0.346802,-0.630249,-0.721802,505
27306694,9990,0.343506,-0.631714,-0.720459,511
27316702,10008,0.343994,-0.631592,-0.722412,508
27326716,10014,0.342651,-0.632935,-0.723145,511
27336709,9993,0.343628,-0.633789,-0.724976,509
27346695,9986,0.343750,-0.634033,-0.725098,505
27356736,10041,0.343140,-0.635132,-0.721069,509
27366701,9965,0.342896,-0.633911,-0.717773,509
27376723,10022,0.342407,-0.634521,-0.718628,511
27386711,9988,0.343994,-0.635864,-0.720703,512
27396711,10000,0.345093,-0.636475,-0.722168,507
27406694,9983,0.345825,-0.635986,-0.723511,509
27416710,10016,0.348633,-0.638672,-0.724243,507
27426706,9996,0.349121,-0.638794,-0.722656,512
27436707,10001,0.347778,-0.638794,-0.721802,512
27446703,9996,0.346680,-0.638306,-0.722412,507
27456695,9992,0.345703,-0.638550,-0.722412,513
27466706,10011,0.344849,-0.638306,-0.724121,512
27476707,10001,0.345825,-0.638916,-0.725952,513
27486723,10016,0.345947,-0.638428,-0.729126,512
27496697,9974,0.348389,-0.637939,-0.731079,513
27506699,10002,0.349854,-0.636719,-0.732788,514
27516697,9998,0.352417,-0.634277,-0.730591,510
27526709,10012,0.353516,-0.632690,-0.729004,517
27536696,9987,0.355225,-0.631836,-0.724976,513
27546694,9998,0.356567,-0.632324,-0.723755,513
27556709,10015,0.355713,-0.634277,-0.721436,516
27566718,10009,0.356079,-0.637451,-0.720581,513
27576709,9991,0.354004,-0.634399,-0.719482,510
27586706,9997,0.353882,-0.637329,-0.717163,513
27596694,9988,0.356323,-0.636963,-0.716553,514
27606706,10012,0.350098,-0.639160,-0.708130,513
27616711,10005,0.346436,-0.633789,-0.709473,507
27626715,10004,0.351563,-0.639282,-0.702759,513
27636694,9979,0.348022,-0.632080,-0.707886,510
27646700,10006,0.341919,-0.643433,-0.708618,510
27656708,10008,0.340942,-0.644409,-0.711426,512
27666721,10013,0.342041,-0.633789,-0.710205,509
27676724,10003,0.344238,-0.641235,-0.710449,511
27686698,9974,0.343628,-0.642090,-0.711670,509
27696697,9999,0.343750,-0.639648,-0.714111,505
27706714,10017,0.344116,-0.639282,-0.714966,510
27716735,10021,0.344116,-0.641113,-0.715210,507
27726719,9984,0.343994,-0.642090,-0.713989,512
27736699,9980,0.343018,-0.646851,-0.713867,510
27746694,9995,0.345093,-0.646240,-0.715820,511
27756703,10009,0.344604,-0.646851,-0.715210,514
27766714,10011,0.344971,-0.646973,-0.713257,511
27776721,10007,0.347290,-0.645386,-0.714600,506
27786704,9983,0.352905,-0.645996,-0.713379,505
27796703,9999,0.354614,-0.645508,-0.714111,512
27806714,10011,0.356567,-0.645508,-0.713989,512
27816714,10000,0.359619,-0.645752,-0.714966,512
27826707,9993,0.356689,-0.640747,-0.716187,511
27836694,9987,0.357910,-0.639893,-0.715576,512
27846711,10017,0.360840,-0.641846,-0.712524,510
27856699,9988,0.360229,-0.642700,-0.711426,506
27866696,9997,0.360229,-0.640991,-0.710205,512
27876711,10015,0.360962,-0.638916,-0.709961,512
27886708,9997,0.360596,-0.637939,-0.709229,508
27896700,9992,0.359253,-0.636108,-0.710327,509
27906714,10014,0.357422,-0.637329,-0.711060,512
27916721,10007,0.355469,-0.637451,-0.714722,511
27926709,9988,0.354736,-0.637939,-0.715210,510
27936724,10015,0.352905,-0.637451,-0.716309,506
27946722,9998,0.351318,-0.638794,-0.717896,510
27956694,9972,0.349243,-0.640625,-0.717163,511
27966695,10001,0.348755,-0.640991,-0.715942,508
27976700,10005,0.347412,-0.639771,-0.716675,506
27986715,10015,0.347778,-0.638550,-0.715942,507
27996717,10002,0.346680,-0.637451,-0.715088,506
28006719,10002,0.344971,-0.637939,-0.714111,509
28016703,9984,0.344727,-0.638062,-0.714233,511
28026703,10000,0.343506,-0.638550,-0.715942,509
28036736,10033,0.342041,-0.637939,-0.720947,507
28046717,9981,0.338257,-0.638916,-0.725708,513
28056703,9986,0.337646,-0.645752,-0.731934,512
28066698,9995,0.338867,-0.648926,-0.733154,510
28076695,9997,0.339111,-0.647461,-0.733887,511
28086717,10022,0.339844,-0.644165,-0.733154,512
28096709,9992,0.342651,-0.640625,-0.727417,516
28106719,10010,0.348999,-0.641357,-0.710083,512
28116730,10011,0.351685,-0.643799,-0.705444,515
28126724,9994,0.354492,-0.644165,-0.703979,509
28136707,9983,0.355469,-0.643188,-0.705566,515
28146704,9997,0.356934,-0.642212,-0.708862,516
28156713,10009,0.357422,-0.643555,-0.711304,510
28166719,10006,0.361694,-0.644775,-0.714233,516
28176713,9994,0.364136,-0.641235,-0.714478,511
28186701,9988,0.364868,-0.639893,-0.713135,516
28196712,10011,0.365234,-0.637085,-0.713135,514
28206709,9997,0.364502,-0.636230,-0.711670,515
28216714,10005,0.366699,-0.639526,-0.713623,514
28226709,9995,0.368164,-0.640869,-0.714600,512
28236698,9989,0.371704,-0.641968,-0.714600,513
28246709,10011,0.372559,-0.642822,-0.714355,513
28256721,10012,0.373413,-0.643799,-0.709351,509
28266697,9976,0.368652,-0.646362,-0.699585,506
28276709,10012,0.360718,-0.640015,-0.692993,512
28286694,9985,0.356812,-0.627930,-0.691284,512
28296719,10025,0.351440,-0.618652,-0.692871,510
28306719,10000,0.346191,-0.644897,-0.700317,507
28316704,9985,0.349854,-0.658813,-0.695679,512
28326699,9995,0.352661,-0.666382,-0.693604,507
28336709,10010,0.348999,-0.654053,-0.692017,509
28346723,10014,0.346680,-0.646362,-0.694946,507
28356698,9975,0.350098,-0.647095,-0.699341,506
28366699,10001,0.351196,-0.643555,-0.699829,513
28376697,9998,0.353394,-0.649902,-0.703979,508
28386723,10026,0.353882,-0.653564,-0.708008,512
28396715,9992,0.356201,-0.654053,-0.711304,509
28406699,9984,0.354126,-0.653809,-0.711792,512
28416708,10009,0.354004,-0.654053,-0.708984,512
28426707,9999,0.354858,-0.654541,-0.703125,507
28436695,9988,0.360107,-0.655518,-0.700195,512
28446715,10020,0.360962,-0.655762,-0.698486,512
28456711,9996,0.364380,-0.655273,-0.696045,510
28466703,9992,0.369141,-0.656738,-0.693726,513
28476712,10009,0.372192,-0.658936,-0.692261,509
28486723,10011,0.376953,-0.660522,-0.686523,508
28496718,9995,0.374634,-0.658081,-0.682129,511
28506705,9987,0.374390,-0.656494,-0.683228,512
28516712,10007,0.371460,-0.652222,-0.683594,513
28526720,10008,0.369873,-0.649414,-0.683472,512
28536697,9977,0.367188,-0.647949,-0.688599,510
28546694,9997,0.366089,-0.650513,-0.690063,511
28556712,10018,0.364868,-0.653564,-0.693726,512
28566717,10005,0.361694,-0.658203,-0.696777,505
28576733,10016,0.359009,-0.659058,-0.699951,511
28586717,9984,0.354736,-0.662109,-0.705078,506
28596697,9980,0.348145,-0.658447,-0.706543,510
28606720,10023,0.345581,-0.656494,-0.706665,508
28616718,9998,0.343628,-0.654907,-0.705811,511
28626706,9988,0.346924,-0.653809,-0.704468,512
28636713,10007,0.350464,-0.653076,-0.703613,510
28646697,9984,0.357422,-0.652344,-0.697876,509
28656711,10014,0.361328,-0.653687,-0.694214,509
28666722,10011,0.364014,-0.654785,-0.693848,505
28676695,9973,0.366333,-0.654663,-0.694702,507
28686717,10022,0.367798,-0.654541,-0.694092,513
28696700,9983,0.371948,-0.651978,-0.698364,509
28706713,10013,0.373657,-0.652344,-0.700195,506
28716742,10029,0.373901,-0.650757,-0.702271,508
28726701,9959,0.372192,-0.653198,-0.702759,510
28736696,9995,0.370117,-0.652588,-0.703735,514
28746701,10005,0.370117,-0.652588,-0.705200,512
28756714,10013,0.367065,-0.651611,-0.703125,516
28766695,9981,0.365601,-0.651978,-0.702759,508
28776720,10025,0.364502,-0.651978,-0.702515,517
28786721,10001,0.365723,-0.649536,-0.704590,518
28796695,9974,0.368774,-0.650146,-0.708618,515
28806701,10006,0.372559,-0.652588,-0.716797,517
28816694,9993,0.371948,-0.656860,-0.717651,511
28826701,10007,0.368530,-0.658813,-0.716309,515
28836707,10006,0.364990,-0.661865,-0.713379,517
28846719,10012,0.362671,-0.663452,-0.704346,514
28856750,10031,0.358154,-0.656250,-0.687744,512
28866711,9961,0.349976,-0.648437,-0.683350,509
28876704,9993,0.346069,-0.607910,-0.675293,514
28886717,10013,0.343018,-0.656860,-0.676392,514
28896697,9980,0.345215,-0.672729,-0.673584,514
28906715,10018,0.350220,-0.659790,-0.671875,512
28916714,9999,0.361816,-0.659424,-0.676147,514
28926724,10010,0.372925,-0.671143,-0.684570,513
28936695,9971,0.375366,-0.667480,-0.687012,511
28946709,10014,0.376221,-0.657959,-0.688232,512
28956710,10001,0.375732,-0.653320,-0.690796,508
28966717,10007,0.376831,-0.647461,-0.691406,510
28976702,9985,0.377319,-0.643555,-0.691650,512
28986721,10019,0.378784,-0.641846,-0.691772,513
28996732,10011,0.379150,-0.642700,-0.689453,511
29006713,9981,0.381470,-0.646729,-0.687744,511
29016695,9982,0.382690,-0.651489,-0.678345,510
29026708,10013,0.381226,-0.655884,-0.677124,513
29036724,10016,0.380371,-0.658203,-0.677490,511
29046706,9982,0.379639,-0.660278,-0.680298,511
29056703,9997,0.379028,-0.660767,-0.684326,510
29066722,10019,0.376831,-0.661621,-0.687866,512
29076720,9998,0.372437,-0.659546,-0.691528,511
29086694,9974,0.371460,-0.658569,-0.694214,513
29096695,10001,0.371582,-0.658203,-0.695801,512
29106694,9999,0.369019,-0.661133,-0.693237,512
29116723,10029,0.365967,-0.664917,-0.693481,509
29126698,9975,0.361450,-0.669312,-0.692627,512
29136744,10046,0.360962,-0.670044,-0.694580,514
29146699,9955,0.362549,-0.667236,-0.692383,512
29156696,9997,0.364990,-0.663818,-0.689453,513
29166696,10000,0.367798,-0.658203,-0.686768,511
29176707,10011,0.369995,-0.656372,-0.684326,505
29186716,10009,0.371948,-0.654663,-0.682129,511
29196700,9984,0.373657,-0.657227,-0.684082,512
29206695,9995,0.375854,-0.658081,-0.685791,507
29216700,10005,0.376099,-0.660278,-0.687256,509
29226701,10001,0.377808,-0.657715,-0.686646,511
29236697,9996,0.377686,-0.654541,-0.683838,512
29246697,10000,0.377319,-0.654053,-0.683960,510
29256715,10018,0.377075,-0.653687,-0.686768,510
29266707,9992,0.376465,-0.653687,-0.689697,510
29276704,9997,0.376221,-0.654785,-0.690918,511
29286697,9993,0.377197,-0.656982,-0.687988,511
29296723,10026,0.377441,-0.656738,-0.685547,510
29306707,9984,0.375366,-0.654419,-0.684082,511
29316714,10007,0.376343,-0.651855,-0.684814,507
29326716,10002,0.378540,-0.646973,-0.687012,513
29336701,9985,0.379761,-0.646118,-0.693481,507
29346704,10003,0.381958,-0.646362,-0.713379,508
29356712,10008,0.382446,-0.648071,-0.724487,509
29366694,9982,0.384277,-0.649902,-0.726196,515
29376713,10019,0.380005,-0.643433,-0.721558,515
29386710,9997,0.378784,-0.670410,-0.704102,512
29396702,9992,0.372192,-0.655640,-0.672241,509
29406695,9993,0.366699,-0.666992,-0.670410,511
29416720,10025,0.360840,-0.667969,-0.672363,516
29426717,9997,0.362793,-0.658936,-0.674927,517
29436715,9998,0.363281,-0.656494,-0.675537,512
29446710,9995,0.367554,-0.657715,-0.668945,521
29456721,10011,0.379028,-0.655151,-0.666992,514
29466694,9973,0.385376,-0.654907,-0.665649,515
29476700,10006,0.388184,-0.653320,-0.664551,515
29486707,10007,0.388184,-0.648926,-0.664795,513
29496709,10002,0.386597,-0.646240,-0.669922,512
29506697,9988,0.380371,-0.646606,-0.683350,512
29516702,10005,0.378052,-0.649048,-0.690552,514
29526714,10012,0.376343,-0.652100,-0.694580,510
29536696,9982,0.376343,-0.654175,-0.698120,514
29546709,10013,0.376953,-0.654053,-0.700195,525
29556723,10014,0.380493,-0.657593,-0.707153,508
29566711,9988,0.382202,-0.660278,-0.708496,510
29576712,10001,0.380981,-0.662109,-0.708008,510
29586723,10011,0.378906,-0.663574,-0.704590,508
29596707,9984,0.378296,-0.662720,-0.700684,507
29606703,9996,0.376465,-0.661743,-0.693970,511
29616700,9997,0.375854,-0.661621,-0.682007,508
29626721,10021,0.376221,-0.660645,-0.677246,511
29636704,9983,0.377930,-0.660767,-0.676758,509
29646701,9997,0.378296,-0.661011,-0.679321,509
29656715,10014,0.380737,-0.660889,-0.682007,512
29666709,9994,0.381470,-0.658325,-0.687744,514
29676723,10014,0.379517,-0.657227,-0.688354,513
29686697,9974,0.379761,-0.654053,-0.686401,509
29696740,10043,0.377441,-0.651245,-0.686646,508
29706698,9958,0.377808,-0.648437,-0.684448,513
29716698,10000,0.377808,-0.646484,-0.686157,511
29726712,10014,0.380981,-0.646484,-0.688354,505
29736702,9990,0.381470,-0.647461,-0.689575,510
29746703,10001,0.383057,-0.648926,-0.692261,512
29756712,10009,0.383301,-0.649536,-0.695068,506
29766715,10003,0.380371,-0.650146,-0.699219,505
29776722,10007,0.376709,-0.650391,-0.698975,513
29786700,9978,0.374878,-0.650024,-0.699097,512
29796724,10024,0.373291,-0.647827,-0.699097,512
29806709,9985,0.370361,-0.652588,-0.694946,512
29816699,9990,0.369141,-0.656738,-0.692383,507
29826699,10000,0.366577,-0.663208,-0.687744,511
29836706,10007,0.366089,-0.660889,-0.683716,510
29846698,9992,0.367554,-0.659668,-0.682251,507
29856711,10013,0.368286,-0.665771,-0.681274,511
29866716,10005,0.368164,-0.663696,-0.680420,508
29876712,9996,0.368652,-0.660645,-0.680420,513
29886699,9987,0.370605,-0.655029,-0.684082,507
29896718,10019,0.371094,-0.654053,-0.686035,513
29906705,9987,0.373535,-0.653442,-0.689209,510
29916711,10006,0.376831,-0.654297,-0.694092,507
29926703,9992,0.378784,-0.653931,-0.695435,512
29936718,10015,0.376709,-0.649780,-0.690186,511
29946723,10005,0.374146,-0.647583,-0.686523,513
29956721,9998,0.371826,-0.645630,-0.683716,511
29966709,9988,0.370361,-0.645996,-0.682983,512
29976712,10003,0.368408,-0.644897,-0.685181,511
29986699,9987,0.365112,-0.647705,-0.683350,511
29996720,10021,0.363525,-0.650146,-0.682251,510
30006710,9990,0.361206,-0.653320,-0.683350,512
30016698,9988,0.360474,-0.656250,-0.685425,514
30026723,10025,0.360107,-0.659790,-0.688721,509
30036700,9977,0.358032,-0.661499,-0.691650,515
30046719,10019,0.359253,-0.661499,-0.697021,514
30056703,9984,0.358765,-0.660645,-0.701050,515
30066717,10014,0.359131,-0.658813,-0.705811,515
30076704,9987,0.357056,-0.656738,-0.709717,516
30086701,9997,0.359009,-0.656494,-0.712769,516
30096710,10009,0.359741,-0.658203,-0.711792,515
30106713,10003,0.359375,-0.659180,-0.711426,515
30116697,9984,0.358887,-0.659668,-0.709229,509
30126699,10002,0.358887,-0.660645,-0.708008,516
30136722,10023,0.359863,-0.659058,-0.705322,515
30146705,9983,0.359985,-0.655151,-0.702881,513
30156719,10014,0.362915,-0.652832,-0.702271,514
30166712,9993,0.364380,-0.650024,-0.704468,514
30176701,9989,0.365356,-0.649658,-0.705566,510
30186710,10009,0.367310,-0.649170,-0.705200,513
30196719,10009,0.367432,-0.649170,-0.706665,514
30206698,9979,0.364380,-0.650757,-0.703369,517
30216717,10019,0.360229,-0.649048,-0.703003,512
30226717,10000,0.358521,-0.648560,-0.704834,509
30236712,9995,0.355713,-0.651245,-0.705200,506
30246735,10023,0.352051,-0.650269,-0.707764,509
30256697,9962,0.350952,-0.649414,-0.709961,511
30266702,10005,0.350342,-0.649292,-0.706787,505
30276706,10004,0.351440,-0.649658,-0.703857,512
30286703,9997,0.348877,-0.648315,-0.699219,510
30296707,10004,0.354248,-0.647583,-0.693970,510
30306706,9999,0.353394,-0.646606,-0.687744,511
30316696,9990,0.351440,-0.643433,-0.689819,512
30326694,9998,0.351196,-0.641724,-0.693481,512
30336733,10039,0.351807,-0.646729,-0.696045,509
30346703,9970,0.349854,-0.648071,-0.697021,511
30356702,9999,0.348267,-0.649536,-0.701538,513
30366713,10011,0.345703,-0.648315,-0.716797,512
30376703,9990,0.345581,-0.646118,-0.723633,512
30386695,9992,0.348267,-0.646240,-0.727539,512
30396716,10021,0.349609,-0.646240,-0.729736,512
30406700,9984,0.353882,-0.644409,-0.730469,510
30416702,10002,0.362061,-0.643799,-0.721436,507
30426696,9994,0.363403,-0.645630,-0.711426,510
30436700,10004,0.363525,-0.645752,-0.705200,511
30446719,10019,0.364746,-0.645874,-0.703125,509
30456697,9978,0.367920,-0.645264,-0.700317,510
30466721,10024,0.367065,-0.645752,-0.697021,512
30476715,9994,0.364990,-0.648560,-0.703735,510
30486695,9980,0.365845,-0.649414,-0.711670,511
30496720,10025,0.364624,-0.650146,-0.714722,510
30506719,9999,0.361938,-0.648804,-0.717285,508
30516713,9994,0.357910,-0.648804,-0.715576,509
30526715,10002,0.353760,-0.647095,-0.711426,510
30536723,10008,0.353271,-0.645386,-0.707642,510
30546704,9981,0.351318,-0.643066,-0.705322,511
30556696,9992,0.349365,-0.640503,-0.703369,511
30566714,10018,0.352905,-0.640503,-0.702026,510
30576697,9983,0.356934,-0.641235,-0.700073,508
30586699,10002,0.358154,-0.643433,-0.701172,512
30596715,10016,0.357422,-0.645386,-0.705322,511
30606713,9998,0.355103,-0.648315,-0.708374,511
30616709,9996,0.352051,-0.649780,-0.710937,506
30626701,9992,0.349976,-0.649414,-0.712524,511
30636699,9998,0.353638,-0.645630,-0.704834,505
30646718,10019,0.354736,-0.642212,-0.697144,513
30656722,10004,0.356323,-0.641235,-0.692017,513
30666702,9980,0.359253,-0.640747,-0.688477,512
30676717,10015,0.360229,-0.643921,-0.690186,502
30686708,9991,0.362793,-0.651001,-0.700317,513
30696695,9987,0.362427,-0.655273,-0.706421,514
30706715,10020,0.360596,-0.656372,-0.710815,509
30716698,9983,0.358032,-0.656006,-0.716919,513
30726724,10026,0.358276,-0.656616,-0.718506,511
30736716,9992,0.356445,-0.654419,-0.724243,513
30746722,10006,0.351685,-0.653076,-0.721924,511
30756708,9986,0.350708,-0.652344,-0.716431,507
30766722,10014,0.349854,-0.652222,-0.707520,513
30776717,9995,0.350708,-0.656128,-0.700439,508
30786720,10003,0.351440,-0.656372,-0.697266,508
30796699,9979,0.352417,-0.652466,-0.691650,512
30806707,10008,0.353882,-0.652832,-0.693115,514
30816703,9996,0.351685,-0.646851,-0.696899,512
30826719,10016,0.354248,-0.641357,-0.698120,510
30836722,10003,0.356323,-0.643921,-0.703247,512
30846711,9989,0.361450,-0.632812,-0.709717,513
30856705,9994,0.363647,-0.630127,-0.711914,511
30866721,10016,0.363770,-0.633057,-0.711792,510
30876695,9974,0.369263,-0.633545,-0.710327,506
30886694,9999,0.371216,-0.633545,-0.707275,504
30896707,10013,0.371216,-0.636841,-0.703857,508
30906697,9990,0.372437,-0.640625,-0.699951,506
30916717,10020,0.369629,-0.643433,-0.698608,507
30926700,9983,0.366821,-0.645386,-0.699951,507
30936713,10013,0.364990,-0.646362,-0.702637,511
30946742,10029,0.362183,-0.647095,-0.705566,511
30956708,9966,0.356689,-0.648315,-0.710449,505
30966718,10010,0.354248,-0.650635,-0.709717,508
30976711,9993,0.352905,-0.652954,-0.710815,511
30986720,10009,0.350952,-0.652222,-0.710937,511
30996706,9986,0.349121,-0.653564,-0.710327,512
31006704,9998,0.349854,-0.653687,-0.706543,507
31016711,10007,0.349609,-0.652588,-0.704590,510
31026695,9984,0.350952,-0.650635,-0.703735,510
31036703,10008,0.352051,-0.649048,-0.704346,511
31046721,10018,0.354370,-0.646484,-0.703979,510
31056698,9977,0.357056,-0.644287,-0.704590,512
31066712,10014,0.357788,-0.641724,-0.702637,508
31076746,10034,0.358887,-0.640991,-0.704102,486
31086711,9965,0.358032,-0.641357,-0.708252,512
31096722,10011,0.356445,-0.640015,-0.713013,512
31106705,9983,0.358398,-0.640747,-0.715454,511
31116696,9991,0.364746,-0.647583,-0.716064,511
31126702,10006,0.365601,-0.648804,-0.712891,509
31136704,10002,0.366455,-0.649292,-0.709106,512
31146702,9998,0.368286,-0.648560,-0.705322,511
31156721,10019,0.368774,-0.647217,-0.700806,511
31166714,9993,0.367310,-0.645996,-0.694092,511
31176705,9991,0.362671,-0.645264,-0.692017,511
31186720,10015,0.360474,-0.646240,-0.692505,509
31196717,9997,0.358154,-0.648071,-0.693848,510
31206694,9977,0.356567,-0.651123,-0.695801,511
31216703,10009,0.354248,-0.653809,-0.700195,512
31226717,10014,0.349365,-0.657349,-0.705078,509
31236708,9991,0.349243,-0.656494,-0.711548,507
31246700,9992,0.347900,-0.654785,-0.714233,514
31256698,9998,0.347290,-0.653198,-0.714233,510
31266712,10014,0.349121,-0.653442,-0.713135,509
31276714,10002,0.352661,-0.649902,-0.708130,513
31286712,9998,0.354370,-0.648193,-0.703491,509
31296700,9988,0.356445,-0.646851,-0.701660,512
31306694,9994,0.358398,-0.644897,-0.700439,516
31316705,10011,0.361450,-0.644043,-0.699585,513
31326717,10012,0.362183,-0.642822,-0.701172,514
31336742,10025,0.364868,-0.643311,-0.702026,510
31346715,9973,0.364990,-0.643921,-0.702637,515
31356700,9985,0.366211,-0.643799,-0.704834,515
31366721,10021,0.364014,-0.642944,-0.706665,513
31376699,9978,0.363037,-0.644287,-0.707397,514
31386721,10022,0.361206,-0.643799,-0.707031,514
31396714,9993,0.360474,-0.645264,-0.703735,513
31406709,9995,0.361084,-0.645630,-0.699951,512
31416709,10000,0.359741,-0.646118,-0.700195,505
31426715,10006,0.359619,-0.648682,-0.699463,512
31436703,9988,0.357910,-0.651855,-0.701172,509
31446714,10011,0.356079,-0.651978,-0.701050,510
31456704,9990,0.354492,-0.650635,-0.703247,512
31466715,10011,0.351318,-0.649414,-0.705811,509
31476695,9980,0.350464,-0.649536,-0.708740,511
31486718,10023,0.347290,-0.647949,-0.708618,509
31496712,9994,0.344604,-0.651855,-0.702515,505
31506723,10011,0.343384,-0.646362,-0.707642,511
31516714,9991,0.346191,-0.653564,-0.705200,510
31526719,10005,0.346069,-0.655884,-0.703857,508
31536719,10000,0.347290,-0.655396,-0.706177,508
31546718,9999,0.350098,-0.654785,-0.715698,506
31556713,9995,0.350342,-0.653931,-0.717041,509
31566734,10021,0.352051,-0.650513,-0.718994,508
31576713,9979,0.356934,-0.647949,-0.717163,511
31586720,10007,0.360718,-0.645752,-0.714600,511
31596708,9988,0.364502,-0.642456,-0.706055,509
31606710,10002,0.369019,-0.645386,-0.702637,512
31616714,10004,0.371094,-0.645630,-0.699951,512
31626704,9990,0.373535,-0.648682,-0.698975,511
31636713,10009,0.372803,-0.651123,-0.695923,512
31646712,9999,0.371338,-0.653442,-0.694702,508
31656722,10010,0.368530,-0.655640,-0.692993,512
31666699,9977,0.365601,-0.655273,-0.691895,511
31676696,9997,0.362915,-0.654663,-0.693726,505
31686710,10014,0.360352,-0.654907,-0.696045,511
31696722,10012,0.359375,-0.655640,-0.697144,511
31706714,9992,0.358765,-0.656738,-0.695312,508
31716709,9995,0.358032,-0.656128,-0.694214,509
31726698,9989,0.355835,-0.655884,-0.693604,511
31736703,10005,0.356445,-0.654907,-0.695557,511
31746710,10007,0.356323,-0.653564,-0.698364,506
31756711,10001,0.356201,-0.650635,-0.698975,510
31766714,10003,0.354614,-0.651978,-0.699585,511
31776721,10007,0.354980,-0.649048,-0.700684,508
31786722,10001,0.355835,-0.649780,-0.702393,512
31796722,10000,0.355347,-0.648437,-0.703613,506
31806714,9992,0.354248,-0.648926,-0.702148,507
31816703,9989,0.355957,-0.648926,-0.699219,512
31826719,10016,0.358765,-0.649536,-0.698853,506
31836718,9999,0.360352,-0.649780,-0.698730,509
31846697,9979,0.361572,-0.649658,-0.699585,508
31856701,10004,0.363770,-0.648682,-0.700562,509
31866709,10008,0.364868,-0.645142,-0.697510,512
31876725,10016,0.364746,-0.643555,-0.699341,514
31886703,9978,0.364624,-0.644287,-0.697510,512
31896705,10002,0.364014,-0.646118,-0.697754,512
31906715,10010,0.362671,-0.649536,-0.697510,514
31916695,9980,0.360596,-0.650757,-0.694824,513
31926700,10005,0.359985,-0.657471,-0.696655,514
31936701,10001,0.360718,-0.661255,-0.700684,515
31946699,9998,0.359497,-0.661255,-0.705078,511
31956699,10000,0.359863,-0.659668,-0.706909,510
31966710,10011,0.359497,-0.658203,-0.710815,510
31976716,10006,0.353394,-0.649658,-0.709473,514
31986713,9997,0.348389,-0.651367,-0.707031,513
31996722,10009,0.347900,-0.652100,-0.704590,513
32006745,10023,0.347046,-0.654419,-0.703491,506
32016718,9973,0.348389,-0.652466,-0.702148,513
32026712,9994,0.352539,-0.652222,-0.702271,512
32036714,10002,0.353516,-0.649170,-0.703125,511
32046702,9988,0.352173,-0.647095,-0.701416,513
32056712,10010,0.352295,-0.648682,-0.703369,511
32066697,9985,0.350098,-0.651001,-0.702148,505
32076721,10024,0.349976,-0.653198,-0.702515,508
32086723,10002,0.348389,-0.656372,-0.704346,510
32096716,9993,0.345459,-0.653564,-0.702271,509
32106695,9979,0.345215,-0.651367,-0.702148,511
32116706,10011,0.344727,-0.650269,-0.703247,506
32126701,9995,0.345459,-0.649292,-0.705200,506
32136718,10017,0.351196,-0.650269,-0.709717,511
32146699,9981,0.353882,-0.650513,-0.710571,512
32156716,10017,0.355103,-0.649902,-0.711304,511
32166700,9984,0.357422,-0.648682,-0.713623,512
32176709,10009,0.357300,-0.646973,-0.713013,507
32186702,9993,0.358643,-0.645264,-0.710693,510
32196713,10011,0.358765,-0.645508,-0.707031,511
32206703,9990,0.358765,-0.645264,-0.704224,511
32216715,10012,0.359131,-0.646973,-0.700928,507
32226695,9980,0.358887,-0.648926,-0.700195,510
32236721,10026,0.357544,-0.651245,-0.701904,512
32246703,9982,0.355225,-0.650879,-0.701538,509
32256719,10016,0.352539,-0.650024,-0.702637,511
32266712,9993,0.351074,-0.650391,-0.708984,512
32276715,10003,0.347778,-0.646606,-0.710693,511
32286722,10007,0.349854,-0.649048,-0.708740,509
32296699,9977,0.349487,-0.650757,-0.707031,509
32306698,9999,0.348999,-0.652222,-0.708008,505
32316694,9996,0.349243,-0.650635,-0.708130,510
32326705,10011,0.349487,-0.652954,-0.709595,511
32336700,9995,0.349487,-0.652466,-0.713501,527
32346717,10017,0.350586,-0.650635,-0.713867,511
32356721,10004,0.350708,-0.648926,-0.710571,512
32366721,10000,0.350708,-0.649292,-0.706787,506
32376719,9998,0.350586,-0.648804,-0.703003,509
32386707,9988,0.349854,-0.650513,-0.701904,506
32396749,10042,0.348755,-0.653076,-0.700806,506
32406718,9969,0.348999,-0.655396,-0.699097,508
32416719,10001,0.349121,-0.655518,-0.699341,511
32426702,9983,0.349854,-0.655273,-0.700562,511
32436715,10013,0.351196,-0.653564,-0.702637,512
32446716,10001,0.351929,-0.652222,-0.703369,513
32456709,9993,0.353516,-0.649048,-0.703735,515
32466698,9989,0.353394,-0.647339,-0.703003,513
32476703,10005,0.353638,-0.647949,-0.703369,513
32486711,10008,0.352783,-0.648315,-0.703491,509
32496696,9985,0.352051,-0.649536,-0.706665,509
32506722,10026,0.352173,-0.652954,-0.709473,514
32516705,9983,0.353271,-0.653809,-0.707764,512
32526716,10011,0.352173,-0.654053,-0.706543,514
32536750,10034,0.352051,-0.652710,-0.705688,512
32546724,9974,0.350952,-0.650391,-0.704590,510
32556702,9978,0.351318,-0.649536,-0.704346,513
32566699,9997,0.350952,-0.649658,-0.704102,511
32576696,9997,0.351196,-0.649414,-0.703613,510
32586708,10012,0.352539,-0.649048,-0.703247,510
32596705,9997,0.353271,-0.650024,-0.703125,508
32606716,10011,0.353882,-0.651855,-0.703247,505
32616721,10005,0.354980,-0.652710,-0.703491,510
32626695,9974,0.353149,-0.653687,-0.703369,512
32636701,10006,0.353027,-0.653442,-0.702148,511
32646695,9994,0.351685,-0.653687,-0.703125,510
32656721,10026,0.351318,-0.654907,-0.703735,512
32666703,9982,0.350464,-0.654541,-0.703369,510
32676695,9992,0.348877,-0.653931,-0.703857,511
32686720,10025,0.349976,-0.654297,-0.704956,505
32696699,9979,0.348511,-0.653809,-0.705078,511
32706709,10010,0.348999,-0.652588,-0.704956,509
32716705,9996,0.349365,-0.653320,-0.705933,512
32726699,9994,0.349365,-0.652832,-0.705444,510
32736712,10013,0.351318,-0.653076,-0.704224,506
32746716,10004,0.350952,-0.653198,-0.703247,508
32756719,10003,0.350830,-0.654541,-0.702026,513
32766701,9982,0.350830,-0.653687,-0.701904,509
32776702,10001,0.352661,-0.654419,-0.701050,507
32786714,10012,0.352173,-0.654053,-0.701904,512
32796721,10007,0.353271,-0.654297,-0.702148,510
32806702,9981,0.353271,-0.653442,-0.703369,512
32816721,10019,0.354370,-0.652466,-0.704224,511
32826704,9983,0.353271,-0.652954,-0.704346,510
32836720,10016,0.350220,-0.653198,-0.703491,508
32846701,9981,0.349243,-0.653198,-0.702515,516
32856698,9997,0.347534,-0.653931,-0.701538,512
32866705,10007,0.346436,-0.654663,-0.703247,510
32876704,9999,0.346313,-0.656372,-0.706421,511
32886706,10002,0.350098,-0.655151,-0.706909,511
32896716,10010,0.350220,-0.654053,-0.703979,507
32906708,9992,0.350830,-0.653687,-0.701050,508
32916717,10009,0.351196,-0.652100,-0.698853,508
32926719,10002,0.351563,-0.650879,-0.696899,509
32936706,9987,0.350342,-0.650635,-0.697021,509
32946699,9993,0.350098,-0.652344,-0.700073,505
32956701,10002,0.349609,-0.654419,-0.698853,505
32966717,10016,0.350586,-0.656250,-0.702271,509
32976698,9981,0.348877,-0.654297,-0.703857,510
32986713,10015,0.348877,-0.654907,-0.707153,511
32996695,9982,0.346313,-0.657837,-0.713013,508
33006701,10006,0.346558,-0.657959,-0.712402,510
33016699,9998,0.347168,-0.655029,-0.708862,510
33026695,9996,0.346680,-0.652954,-0.706055,512
33036714,10019,0.346313,-0.653564,-0.704468,512
33046698,9984,0.350220,-0.653687,-0.702759,511
33056742,10044,0.352051,-0.653320,-0.704468,513
33066714,9972,0.353638,-0.653442,-0.704956,513
33076707,9993,0.356689,-0.652344,-0.703735,516
33086696,9989,0.358032,-0.650879,-0.703979,511
33096721,10025,0.358398,-0.648804,-0.705200,510
33106708,9987,0.359375,-0.646973,-0.705322,513
33116710,10002,0.359863,-0.647095,-0.704834,508
33126706,9996,0.359619,-0.647095,-0.702881,510
33136699,9993,0.359253,-0.647461,-0.700928,514
33146711,10012,0.359253,-0.648804,-0.699097,514
33156723,10012,0.357178,-0.649048,-0.701538,511
33166718,9995,0.354248,-0.650024,-0.701294,511
33176715,9997,0.353760,-0.652344,-0.704102,516
33186701,9986,0.353638,-0.654907,-0.705688,510
33196707,10006,0.352051,-0.655273,-0.705200,512
33206698,9991,0.349976,-0.653076,-0.705444,507
33216720,10022,0.349609,-0.653320,-0.705566,512
33226704,9984,0.349243,-0.652954,-0.705322,512
33236714,10010,0.349243,-0.654541,-0.704712,511
33246703,9989,0.349121,-0.655029,-0.703491,510
33256706,10003,0.347778,-0.656372,-0.702881,509
33266715,10009,0.346924,-0.657593,-0.703491,508
33276694,9979,0.347900,-0.657593,-0.702759,506
33286726,10032,0.347534,-0.656494,-0.703247,508
33296705,9979,0.348755,-0.656250,-0.703613,511
33306711,10006,0.348267,-0.653442,-0.702759,511
33316716,10005,0.350830,-0.652588,-0.705933,507
33326728,10012,0.353027,-0.650757,-0.703613,507
33336704,9976,0.354004,-0.649780,-0.702271,522
33346697,9993,0.354980,-0.650757,-0.701660,504
33356723,10026,0.356445,-0.651855,-0.701782,511
33366697,9974,0.357666,-0.652466,-0.702759,510
33376723,10026,0.357300,-0.651489,-0.701050,511
33386719,9996,0.358154,-0.651855,-0.699585,508
33396709,9990,0.357910,-0.651855,-0.699463,515
33406716,10007,0.357056,-0.651123,-0.700439,511
33416700,9984,0.357056,-0.652588,-0.700073,510
33426713,10013,0.355835,-0.653564,-0.700562,512
33436718,10005,0.353882,-0.653442,-0.700439,508
33446706,9988,0.354980,-0.655029,-0.701904,513
33456719,10013,0.355103,-0.654419,-0.703125,508
33466703,9984,0.353027,-0.654419,-0.703857,512
33476707,10004,0.352783,-0.655029,-0.704834,510
33486702,9995,0.352783,-0.653442,-0.706055,492
33496713,10011,0.353882,-0.652832,-0.706665,509
33506710,9997,0.353882,-0.652588,-0.706177,510
33516701,9991,0.353638,-0.651123,-0.705200,511
33526703,10002,0.353027,-0.650635,-0.702881,511
33536712,10009,0.353760,-0.652100,-0.703369,512
33546706,9994,0.353394,-0.651611,-0.703125,507
33556713,10007,0.354126,-0.649902,-0.703735,507
33566704,9991,0.355469,-0.650391,-0.702271,510
33576722,10018,0.356567,-0.651245,-0.703369,510
33586700,9978,0.356079,-0.653320,-0.703003,511
33596698,9998,0.356445,-0.653931,-0.702393,508
33606703,10005,0.355835,-0.654175,-0.700439,508
33616696,9993,0.353271,-0.655396,-0.700073,506
33626714,10018,0.354614,-0.657104,-0.699951,512
33636715,10001,0.355103,-0.654175,-0.698975,507
33646718,10003,0.353882,-0.654297,-0.699829,512
33656720,10002,0.357178,-0.651733,-0.701294,508
33666697,9977,0.356934,-0.651855,-0.702881,508
33676718,10021,0.358521,-0.650391,-0.703613,514
33686707,9989,0.359131,-0.650635,-0.705078,513
33696714,10007,0.360352,-0.651733,-0.702271,517
33706721,10007,0.361328,-0.650269,-0.701782,516
33716695,9974,0.361328,-0.649780,-0.700684,515
33726699,10004,0.362305,-0.648560,-0.699585,514
33736715,10016,0.361084,-0.648193,-0.698486,519
33746698,9983,0.359009,-0.649536,-0.697021,513
33756716,10018,0.357788,-0.650513,-0.697632,514
33766723,10007,0.356567,-0.651611,-0.697754,512
33776721,9998,0.354980,-0.654419,-0.699341,513
33786702,9981,0.352905,-0.656006,-0.703247,514
33796710,10008,0.350220,-0.657349,-0.707031,509
33806698,9988,0.350220,-0.657837,-0.705933,511
33816699,10001,0.349609,-0.656494,-0.703613,512
33826707,10008,0.347900,-0.655640,-0.702881,513
33836699,9992,0.346924,-0.656006,-0.703247,511
33846702,10003,0.346191,-0.657227,-0.702515,513
33856700,9998,0.345703,-0.658203,-0.701416,510
33866696,9996,0.346191,-0.658569,-0.700684,512
33876716,10020,0.346558,-0.660034,-0.700562,513
33886707,9991,0.348633,-0.659546,-0.701416,512
33896719,10012,0.347778,-0.658569,-0.699707,510
33906711,9992,0.350708,-0.657471,-0.700562,510
33916712,10001,0.352417,-0.656250,-0.700439,507
33926697,9985,0.352295,-0.653931,-0.699707,510
33936714,10017,0.354126,-0.653076,-0.699829,508
33946704,9990,0.355957,-0.652710,-0.698730,508
33956707,10003,0.357788,-0.653564,-0.698120,511
33966715,10008,0.357178,-0.652954,-0.700928,507
33976750,10035,0.356934,-0.655029,-0.703247,510
33986709,9959,0.356567,-0.654419,-0.705322,512
33996700,9991,0.356812,-0.656128,-0.704956,510
34006718,10018,0.356445,-0.656372,-0.703857,510
34016695,9977,0.356201,-0.654785,-0.701660,508
34026701,10006,0.355469,-0.655151,-0.700317,510
34036721,10020,0.355225,-0.654053,-0.698364,506
34046713,9992,0.352661,-0.654053,-0.695679,506
34056721,10008,0.352173,-0.654297,-0.693970,511
34066713,9992,0.349487,-0.656250,-0.692383,511
34076700,9987,0.349731,-0.658325,-0.694702,510
34086711,10011,0.348511,-0.660156,-0.695923,513
34096698,9987,0.348145,-0.660522,-0.699341,510
34106732,10034,0.348267,-0.661133,-0.699585,512
34116713,9981,0.348145,-0.658325,-0.701660,511
34126706,9993,0.348633,-0.657593,-0.702148,491
34136701,9995,0.349976,-0.656494,-0.702393,506
34146698,9997,0.350708,-0.655396,-0.702271,506
34156721,10023,0.353027,-0.653687,-0.702515,511
34166704,9983,0.354248,-0.653320,-0.701416,512
34176713,10009,0.355835,-0.656616,-0.696899,510
34186699,9986,0.354980,-0.657349,-0.694946,510
34196716,10017,0.353516,-0.657227,-0.692749,509
34206697,9981,0.353271,-0.658203,-0.693970,507
34216712,10015,0.352295,-0.657837,-0.698242,504
34226721,10009,0.348022,-0.659302,-0.700562,512
34236738,10017,0.346558,-0.657227,-0.703491,507
34246717,9979,0.347534,-0.655884,-0.705688,510
34256694,9977,0.346924,-0.655396,-0.706299,507
34266723,10029,0.347168,-0.654541,-0.706421,510
34276721,9998,0.351807,-0.654541,-0.705688,513
34286711,9990,0.353638,-0.652954,-0.703369,513
34296696,9985,0.355713,-0.653198,-0.701294,515
34306699,10003,0.356079,-0.653931,-0.703003,515
34316706,10007,0.358398,-0.653320,-0.701294,508
34326709,10003,0.359741,-0.653076,-0.700684,515
34336709,10000,0.359497,-0.653076,-0.698975,513
34346715,10006,0.360107,-0.652588,-0.699829,509
34356716,10001,0.357788,-0.652344,-0.698853,514
34366739,10023,0.356934,-0.652954,-0.699951,509
34376721,9982,0.356934,-0.653320,-0.702637,510
34386722,10001,0.355103,-0.654907,-0.705322,508
34396720,9998,0.353271,-0.654907,-0.705444,512
34406707,9987,0.352661,-0.653442,-0.704346,507
34416697,9990,0.352051,-0.655273,-0.703491,512
34426718,10021,0.351074,-0.655762,-0.701904,512
34436701,9983,0.351563,-0.654297,-0.700195,507
34446713,10012,0.349854,-0.655029,-0.698853,511
34456720,10007,0.350586,-0.656250,-0.696655,509
34466704,9984,0.350220,-0.656128,-0.698730,505
34476712,10008,0.349487,-0.657471,-0.700195,510
34486698,9986,0.349609,-0.656738,-0.701904,510
34496702,10004,0.346924,-0.655762,-0.703003,509
34506703,10001,0.348511,-0.656006,-0.703979,510
34516703,10000,0.347656,-0.655151,-0.704346,507
34526710,10007,0.347900,-0.653931,-0.704468,506
34536696,9986,0.348633,-0.653687,-0.705200,507
34546706,10010,0.349487,-0.651733,-0.703125,512
34556711,10005,0.350464,-0.652466,-0.702026,510
34566715,10004,0.352051,-0.654541,-0.701782,512
34576718,10003,0.352295,-0.653931,-0.700684,512
34586699,9981,0.352051,-0.655151,-0.702759,512
34596696,9997,0.352173,-0.653809,-0.704102,542
34606706,10010,0.352661,-0.654785,-0.703613,511
34616704,9998,0.352173,-0.654907,-0.705078,511
34626728,10024,0.351685,-0.653564,-0.704346,509
34636699,9971,0.350708,-0.654785,-0.705811,510
34646712,10013,0.349487,-0.653931,-0.706055,511
34656714,10002,0.348511,-0.654297,-0.703857,506
34666697,9983,0.347900,-0.653442,-0.702515,506
34676696,9999,0.347046,-0.652710,-0.703735,507
34686702,10006,0.348511,-0.653564,-0.703491,512
34696696,9994,0.348389,-0.653076,-0.701294,509
34706708,10012,0.348877,-0.651733,-0.697510,511
34716723,10015,0.348999,-0.651978,-0.697632,512
34726725,10002,0.348877,-0.651855,-0.699951,508
34736713,9988,0.348633,-0.653809,-0.703003,511
34746708,9995,0.350464,-0.652954,-0.703003,510
34756711,10003,0.352173,-0.654053,-0.700684,510
34766714,10003,0.352051,-0.653442,-0.700562,510
34776720,10006,0.352905,-0.653076,-0.701538,510
34786707,9987,0.350220,-0.651978,-0.702881,504
34796720,10013,0.348633,-0.653320,-0.704102,511
34806712,9992,0.346802,-0.655151,-0.707153,511
34816703,9991,0.343994,-0.658325,-0.707153,511
34826716,10013,0.343262,-0.658203,-0.708252,516
34836695,9979,0.341919,-0.657715,-0.708130,508
34846709,10014,0.340820,-0.656982,-0.709229,513
34856736,10027,0.340576,-0.656860,-0.710205,513
34866713,9977,0.341064,-0.654663,-0.711792,515
34876701,9988,0.341553,-0.653687,-0.710937,512
34886694,9993,0.342773,-0.653198,-0.712158,510
34896727,10033,0.345093,-0.653320,-0.714478,513
34906712,9985,0.348145,-0.653564,-0.716064,508
34916706,9994,0.348877,-0.654297,-0.687622,511
34926723,10017,0.350098,-0.655029,-0.713989,515
34936723,10000,0.349609,-0.653564,-0.710571,513
34946718,9995,0.349365,-0.652100,-0.706543,508
34956715,9997,0.349487,-0.650146,-0.702271,513
34966704,9989,0.349976,-0.649292,-0.699097,515
34976700,9996,0.350464,-0.648804,-0.696655,512
34986695,9995,0.350342,-0.649536,-0.695557,511
34996728,10033,0.350952,-0.651123,-0.695068,513
35006700,9972,0.349243,-0.651978,-0.694702,510
35016706,10006,0.349365,-0.651245,-0.692505,511
35026723,10017,0.348999,-0.651123,-0.695068,511
35036706,9983,0.348511,-0.652588,-0.697754,510
35046702,9996,0.348755,-0.652100,-0.700317,504
35056716,10014,0.348511,-0.652710,-0.702759,509
35066719,10003,0.346436,-0.652954,-0.704468,506
35076717,9998,0.346436,-0.654541,-0.707275,510
35086715,9998,0.344238,-0.656006,-0.708862,511
35096710,9995,0.343872,-0.656250,-0.710083,509
35106712,10002,0.341309,-0.656128,-0.708740,505
35116723,10011,0.340820,-0.656494,-0.709961,509
35126707,9984,0.340210,-0.655884,-0.709839,509
35136711,10004,0.339844,-0.655762,-0.706177,510
35146695,9984,0.338867,-0.656128,-0.703491,507
35156715,10020,0.340210,-0.656860,-0.704346,511
35166701,9986,0.339600,-0.657471,-0.705078,510
35176709,10008,0.339600,-0.657471,-0.705078,508
35186699,9990,0.340088,-0.656982,-0.705933,510
35196721,10022,0.342041,-0.657104,-0.706665,508
35206716,9995,0.344116,-0.656128,-0.707642,510
35216720,10004,0.345093,-0.654663,-0.705322,508
35226715,9995,0.345825,-0.651978,-0.704712,510
35236712,9997,0.346802,-0.651978,-0.703979,512
35246700,9988,0.348022,-0.647827,-0.704468,505
35256714,10014,0.348267,-0.648804,-0.706299,513
35266699,9985,0.348633,-0.648071,-0.708252,505
35276694,9995,0.348999,-0.649536,-0.710083,505
35286710,10016,0.349609,-0.649048,-0.712280,508
35296728,10018,0.351440,-0.649902,-0.712036,510
35306708,9980,0.350098,-0.649536,-0.710327,511
35316720,10012,0.349731,-0.648437,-0.708130,507
35326708,9988,0.346924,-0.648315,-0.710327,511
35336695,9987,0.347046,-0.647461,-0.711060,510
35346695,10000,0.345459,-0.647461,-0.710571,510
35356701,10006,0.345337,-0.648315,-0.707886,508
35366720,10019,0.345337,-0.647705,-0.705444,510
35376709,9989,0.345581,-0.647583,-0.703125,511
35386694,9985,0.344116,-0.647095,-0.703613,505
35396723,10029,0.344727,-0.649536,-0.706299,505
35406698,9975,0.339355,-0.652466,-0.710205,510
35416715,10017,0.337036,-0.654785,-0.711182,512
35426726,10011,0.336060,-0.656738,-0.715088,513
35436707,9981,0.332397,-0.656494,-0.715576,510
35446706,9999,0.333008,-0.656372,-0.716187,515
35456715,10009,0.333252,-0.654419,-0.714233,511
35466710,9995,0.332642,-0.653076,-0.712646,511
35476720,10010,0.332642,-0.652588,-0.711304,515
35486718,9998,0.333374,-0.650879,-0.713013,512
35496695,9977,0.335815,-0.652100,-0.713867,514
35506719,10024,0.336670,-0.651489,-0.717163,510
35516711,9992,0.340210,-0.652100,-0.719727,512
35526702,9991,0.342651,-0.650757,-0.721558,515
35536710,10008,0.343384,-0.650024,-0.720703,514
35546709,9999,0.343994,-0.647583,-0.717896,513
35556712,10003,0.343140,-0.645020,-0.713013,510
35566698,9986,0.342773,-0.643311,-0.704346,514
35576718,10020,0.343872,-0.642212,-0.702515,511
35586698,9980,0.344360,-0.642456,-0.702881,510
35596694,9996,0.344727,-0.645752,-0.704346,510
35606719,10025,0.344849,-0.646851,-0.706299,509
35616714,9995,0.344116,-0.648315,-0.713257,507
35626711,9997,0.343140,-0.648804,-0.716675,510
35636708,9997,0.339844,-0.650146,-0.718018,509
35646702,9994,0.337891,-0.649536,-0.718628,511
35656710,10008,0.335693,-0.649902,-0.718018,507
35666717,10007,0.334351,-0.650757,-0.717773,510
35676696,9979,0.332764,-0.651367,-0.716064,507
35686708,10012,0.331909,-0.652466,-0.715576,510
35696695,9987,0.332642,-0.653076,-0.715088,506
35706718,10023,0.333008,-0.652222,-0.714600,509
35716719,10001,0.333618,-0.652710,-0.713135,512
35726703,9984,0.337402,-0.650757,-0.711670,506
35736720,10017,0.338257,-0.649292,-0.711060,512
35746717,9997,0.338623,-0.649292,-0.708862,511
35756709,9992,0.338867,-0.648804,-0.708618,507
35766714,10005,0.339355,-0.648682,-0.709106,511
35776713,9999,0.339233,-0.649292,-0.710815,508
35786707,9994,0.339966,-0.649658,-0.712402,512
35796712,10005,0.338867,-0.649292,-0.712036,508
35806716,10004,0.338745,-0.649292,-0.711304,510
35816713,9997,0.338989,-0.648071,-0.713379,511
35826717,10004,0.337402,-0.647583,-0.714966,508
35836710,9993,0.336426,-0.646362,-0.715576,511
35846709,9999,0.334839,-0.647217,-0.716064,511
35856716,10007,0.334229,-0.645752,-0.718262,511
35866714,9998,0.335205,-0.645996,-0.719116,511
35876723,10009,0.335938,-0.648193,-0.719971,511
35886715,9992,0.336548,-0.652344,-0.720093,508
35896721,10006,0.339233,-0.652710,-0.719360,506
35906706,9985,0.340210,-0.652710,-0.718140,511
35916694,9988,0.342041,-0.653442,-0.715332,514
35926702,10008,0.344360,-0.652100,-0.712524,512
35936724,10022,0.347290,-0.650269,-0.700562,513
35946709,9985,0.349243,-0.649780,-0.698242,510
35956718,10009,0.347290,-0.650391,-0.696899,511
35966701,9983,0.347900,-0.651978,-0.696655,506
35976700,9999,0.346924,-0.652222,-0.699463,511
35986698,9998,0.346191,-0.653076,-0.702759,511
35996720,10022,0.344238,-0.653564,-0.708130,504
36006704,9984,0.343506,-0.652832,-0.710083,510
36016722,10018,0.340698,-0.651733,-0.712891,511
36026708,9986,0.338135,-0.650146,-0.714233,509
36036720,10012,0.336670,-0.648315,-0.715088,509
36046704,9984,0.334106,-0.650146,-0.712036,511
36056706,10002,0.333374,-0.651733,-0.712402,510
36066713,10007,0.333618,-0.651978,-0.711548,511
36076704,9991,0.333984,-0.651245,-0.711792,511
36086694,9990,0.335693,-0.650391,-0.711304,513
36096694,10000,0.336914,-0.649780,-0.709839,514
36106724,10030,0.341309,-0.649414,-0.711182,511
36116716,9992,0.343384,-0.646484,-0.711182,512
36126704,9988,0.344604,-0.645874,-0.710815,516
36136703,9999,0.345459,-0.645996,-0.711792,517
36146721,10018,0.346313,-0.647217,-0.713745,512
36156694,9973,0.352051,-0.648437,-0.708496,508
36166714,10020,0.351318,-0.647583,-0.708374,513
36176721,10007,0.348755,-0.650024,-0.706299,525
36186712,9991,0.350830,-0.652222,-0.704956,509
36196708,9996,0.350342,-0.650024,-0.704956,514
36206697,9989,0.344849,-0.650024,-0.707642,509
36216701,10004,0.341553,-0.650024,-0.709106,510
36226724,10023,0.338989,-0.652710,-0.712524,510
36236708,9984,0.338501,-0.652710,-0.714478,514
36246694,9986,0.336670,-0.653931,-0.715088,506
36256700,10006,0.335449,-0.654785,-0.714478,512
36266706,10006,0.331787,-0.654297,-0.713989,511
36276720,10014,0.332031,-0.653809,-0.713135,507
36286704,9984,0.331299,-0.652710,-0.710205,511
36296716,10012,0.330933,-0.652466,-0.708740,512
36306708,9992,0.329468,-0.652344,-0.709595,511
36316698,9990,0.331665,-0.651733,-0.711426,509
36326696,9998,0.333008,-0.650757,-0.709839,511
36336723,10027,0.333984,-0.650879,-0.710815,510
36346717,9994,0.333374,-0.651245,-0.710571,507
36356697,9980,0.334473,-0.648926,-0.711304,512
36366703,10006,0.333984,-0.649536,-0.711304,511
36376699,9996,0.333740,-0.649292,-0.711914,512
36386712,10013,0.333496,-0.649414,-0.711792,509
36396697,9985,0.333374,-0.650757,-0.712524,512
36406698,10001,0.334961,-0.651001,-0.712524,505
36416712,10014,0.335327,-0.652344,-0.713989,508
36426709,9997,0.336670,-0.652100,-0.719116,512
36436720,10011,0.339233,-0.651733,-0.718262,511
36446723,10003,0.338501,-0.651489,-0.715454,511
36456712,9989,0.339111,-0.651489,-0.714355,506
36466716,10004,0.338257,-0.650024,-0.713379,511
36476702,9986,0.337891,-0.648437,-0.713257,508
36486734,10032,0.337891,-0.649048,-0.714111,511
36496707,9973,0.337036,-0.648804,-0.713013,512
36506696,9989,0.337891,-0.647217,-0.712891,507
36516695,9999,0.337646,-0.647827,-0.711670,507
36526722,10027,0.338135,-0.645508,-0.712891,512
36536700,9978,0.337158,-0.646729,-0.713379,512
36546699,9999,0.335938,-0.646851,-0.716309,505
36556711,10012,0.335938,-0.646729,-0.716675,505
36566720,10009,0.337280,-0.646240,-0.715820,504
36576709,9989,0.335938,-0.646484,-0.716064,509
36586700,9991,0.335693,-0.646973,-0.715942,512
36596705,10005,0.334717,-0.647095,-0.715698,506
36606722,10017,0.333862,-0.646851,-0.715942,508
36616712,9990,0.333374,-0.646606,-0.716919,506
36626708,9996,0.333496,-0.647949,-0.717407,510
36636703,9995,0.332886,-0.648560,-0.720459,510
36646704,10001,0.334961,-0.647583,-0.721313,508
36656703,9999,0.333984,-0.648315,-0.721313,511
36666723,10020,0.336060,-0.649414,-0.719360,504
36676711,9988,0.336182,-0.649414,-0.718628,511
36686706,9995,0.335571,-0.648682,-0.715820,513
36696698,9992,0.336182,-0.648437,-0.712036,508
36706714,10016,0.335083,-0.649170,-0.712524,513
36716711,9997,0.333496,-0.648804,-0.712769,511
36726711,10000,0.334961,-0.648682,-0.712036,511
36736719,10008,0.335815,-0.647217,-0.714111,509
36746720,10001,0.335693,-0.646484,-0.718872,509
36756719,9999,0.338135,-0.645264,-0.719360,511
36766707,9988,0.339233,-0.645508,-0.719482,515
36776701,9994,0.338989,-0.643555,-0.719727,509
36786712,10011,0.340088,-0.644165,-0.719971,511
36796718,10006,0.341309,-0.643188,-0.718018,514
36806714,9996,0.342407,-0.642090,-0.715820,513
36816723,10009,0.342041,-0.643677,-0.715576,514
36826716,9993,0.340210,-0.643677,-0.714478,515
36836696,9980,0.338257,-0.644287,-0.714600,511
36846710,10014,0.337280,-0.645630,-0.714966,509
36856718,10008,0.338501,-0.644165,-0.720093,513
36866715,9997,0.338257,-0.642578,-0.721924,514
36876716,10001,0.337646,-0.642090,-0.723145,508
36886711,9995,0.336914,-0.642334,-0.723877,514
36896747,10036,0.335938,-0.643799,-0.722900,513
36906696,9949,0.335571,-0.646240,-0.716187,505
36916700,10004,0.335083,-0.647339,-0.714111,511
36926722,10022,0.334839,-0.648437,-0.712280,512
36936703,9981,0.333862,-0.649292,-0.710571,510
36946719,10016,0.333618,-0.650269,-0.710205,511
36956707,9988,0.333618,-0.649170,-0.711914,509
36966707,10000,0.333862,-0.648804,-0.713989,511
36976719,10012,0.334961,-0.648804,-0.715942,510
36986703,9984,0.336792,-0.647827,-0.718506,510
36996721,10018,0.336304,-0.645996,-0.719482,509
37006717,9996,0.336670,-0.645142,-0.719727,507
37016700,9983,0.338501,-0.643188,-0.718506,505
37026699,9999,0.339722,-0.644165,-0.717407,507
37036722,10023,0.341064,-0.644409,-0.715698,508
37046696,9974,0.341187,-0.643555,-0.715088,512
37056695,9999,0.342896,-0.643677,-0.715332,512
37066697,10002,0.343628,-0.644531,-0.714844,512
37076695,9998,0.344482,-0.643799,-0.716064,510
37086703,10008,0.344482,-0.644531,-0.715210,514
37096705,10002,0.344727,-0.643433,-0.715332,511
37106697,9992,0.344238,-0.642944,-0.716064,513
37116696,9999,0.344238,-0.643433,-0.716064,513
37126709,10013,0.343628,-0.643311,-0.713989,511
37136694,9985,0.343262,-0.642578,-0.714722,508
37146696,10002,0.342896,-0.643188,-0.715454,506
37156696,10000,0.342773,-0.642578,-0.716675,512
37166716,10020,0.341553,-0.643555,-0.716797,512
37176703,9987,0.340088,-0.645020,-0.716064,512
37186696,9993,0.339111,-0.645874,-0.716187,510
37196703,10007,0.338013,-0.645752,-0.718262,507
37206708,10005,0.338135,-0.645874,-0.718628,540
37216707,9999,0.338501,-0.645264,-0.718140,511
37226719,10012,0.338989,-0.645996,-0.714844,512
37236705,9986,0.337280,-0.644653,-0.714600,511
37246724,10019,0.336670,-0.644897,-0.713623,511
37256717,9993,0.337646,-0.644043,-0.715088,508
37266694,9977,0.337036,-0.642334,-0.716187,509
37276712,10018,0.338501,-0.643677,-0.718994,513
37286722,10010,0.339844,-0.645752,-0.718994,508
37296705,9983,0.340332,-0.645020,-0.716919,512
37306704,9999,0.339478,-0.645508,-0.717896,504
37316694,9990,0.338135,-0.645630,-0.717041,511
37326704,10010,0.339966,-0.645264,-0.716064,510
37336718,10014,0.337646,-0.645752,-0.716431,510
37346717,9999,0.338379,-0.644775,-0.716919,513
37356718,10001,0.339233,-0.643433,-0.716797,509
37366717,9999,0.339478,-0.641846,-0.717041,512
37376724,10007,0.339966,-0.642456,-0.716675,511
37386715,9991,0.340698,-0.642456,-0.717896,514
37396719,10004,0.341187,-0.643066,-0.715820,514
37406700,9981,0.340088,-0.642822,-0.716553,513
37416701,10001,0.340454,-0.643311,-0.717896,513
37426722,10021,0.340698,-0.643188,-0.717041,516
37436717,9995,0.341431,-0.644165,-0.716919,514
37446715,9998,0.341064,-0.642456,-0.718872,515
37456699,9984,0.342163,-0.641357,-0.720215,515
37466707,10008,0.342041,-0.641357,-0.718872,513
37476698,9991,0.341919,-0.641846,-0.718384,511
37486700,10002,0.341797,-0.641846,-0.718628,512
37496714,10014,0.341675,-0.641602,-0.719727,511
37506709,9995,0.341309,-0.641602,-0.719604,509
37516739,10030,0.341309,-0.642212,-0.718872,512
37526717,9978,0.341919,-0.642700,-0.718018,511
37536714,9997,0.341675,-0.642334,-0.716553,512
37546706,9992,0.342041,-0.642456,-0.715088,511
37556695,9989,0.339600,-0.642334,-0.717041,510
37566720,10025,0.338623,-0.643799,-0.716187,511
37576719,9999,0.337524,-0.645020,-0.716919,511
37586696,9977,0.336914,-0.645752,-0.715820,505
37596707,10011,0.336304,-0.646118,-0.718750,512
37606706,9999,0.335083,-0.645264,-0.720825,509
37616709,10003,0.335693,-0.643921,-0.719238,511
37626711,10002,0.334839,-0.643799,-0.716675,512
37636701,9990,0.335083,-0.642822,-0.716064,508
37646714,10013,0.335938,-0.642090,-0.715332,508
37656720,10006,0.336182,-0.641846,-0.715576,512
37666715,9995,0.336548,-0.643433,-0.717407,511
37676703,9988,0.336426,-0.646484,-0.719238,510
37686704,10001,0.336426,-0.646729,-0.720459,514
37696720,10016,0.336182,-0.648437,-0.721924,507
37706708,9988,0.334473,-0.647339,-0.723389,513
37716715,10007,0.333252,-0.647339,-0.722656,509
37726706,9991,0.332520,-0.647583,-0.722778,511
37736714,10008,0.332397,-0.647339,-0.720825,510
37746706,9992,0.332764,-0.647217,-0.721680,514
37756702,9996,0.333740,-0.647583,-0.720093,512
37766713,10011,0.334717,-0.646484,-0.718872,512
37776705,9992,0.335449,-0.645630,-0.718018,515
37786713,10008,0.336060,-0.645020,-0.715820,511
37796736,10023,0.337524,-0.643433,-0.716797,511
37806716,9980,0.338501,-0.642090,-0.718018,512
37816722,10006,0.338745,-0.641357,-0.718506,511
37826716,9994,0.342163,-0.640137,-0.715088,506
37836714,9998,0.343262,-0.640259,-0.711914,509
37846701,9987,0.343018,-0.640137,-0.709961,511
37856723,10022,0.345215,-0.640625,-0.711426,510
37866710,9987,0.344971,-0.641113,-0.713379,509
37876714,10004,0.343262,-0.640503,-0.714844,503
37886711,9997,0.341797,-0.641479,-0.714478,511
37896697,9986,0.342285,-0.642944,-0.716553,509
37906705,10008,0.341064,-0.645264,-0.718384,512
37916699,9994,0.338623,-0.645752,-0.718140,506
37926694,9995,0.336304,-0.647949,-0.717896,509
37936722,10028,0.335327,-0.649658,-0.715698,512
37946711,9989,0.333740,-0.650391,-0.716187,506
37956696,9985,0.333008,-0.650513,-0.717163,513
37966723,10027,0.334106,-0.650879,-0.718018,512
37976731,10008,0.334106,-0.649658,-0.720093,508
37986720,9989,0.336182,-0.648315,-0.719116,513
37996722,10002,0.337524,-0.647217,-0.719116,513
38006707,9985,0.337769,-0.646973,-0.717651,515
38016697,9990,0.338379,-0.646118,-0.715698,509
38026700,10003,0.338501,-0.646362,-0.714722,515
38036720,10020,0.340698,-0.646851,-0.712402,516
38046698,9978,0.341187,-0.645996,-0.711914,509
38056699,10001,0.340332,-0.645874,-0.712280,510
38066719,10020,0.340454,-0.645386,-0.711670,515
38076704,9985,0.339111,-0.645874,-0.711792,515
38086697,9993,0.339233,-0.645386,-0.711670,508
38096702,10005,0.338135,-0.645630,-0.714111,514
38106713,10011,0.337646,-0.645752,-0.715332,510
38116710,9997,0.337036,-0.646240,-0.716309,507
38126735,10025,0.337280,-0.646362,-0.716919,508
38136710,9975,0.338135,-0.645996,-0.715454,509
38146703,9993,0.339966,-0.644897,-0.714478,511
38156720,10017,0.339844,-0.645752,-0.714478,510
38166717,9997,0.340698,-0.645508,-0.713745,511
38176707,9990,0.340454,-0.646240,-0.714478,507
38186714,10007,0.341919,-0.646851,-0.712891,508
38196712,9998,0.342896,-0.647461,-0.713135,511
38206719,10007,0.343750,-0.647217,-0.712158,521
38216718,9999,0.343384,-0.647461,-0.712769,511
38226724,10006,0.342896,-0.647217,-0.715088,506
38236713,9989,0.343384,-0.646851,-0.714722,510
38246700,9987,0.343872,-0.645874,-0.714722,511
38256701,10001,0.342773,-0.645630,-0.714233,512
38266699,9998,0.343506,-0.645630,-0.715210,505
38276694,9995,0.343506,-0.645020,-0.715576,508
38286711,10017,0.343506,-0.645386,-0.715210,513
38296709,9998,0.344116,-0.644897,-0.714600,506
38306707,9998,0.342773,-0.645874,-0.713135,511
38316704,9997,0.341553,-0.646240,-0.714722,509
38326706,10002,0.341309,-0.646851,-0.714111,514
38336707,10001,0.339722,-0.646973,-0.714478,510
38346718,10011,0.338745,-0.646973,-0.713135,506
38356702,9984,0.338501,-0.648071,-0.714844,508
38366721,10019,0.337646,-0.647339,-0.715332,512
38376709,9988,0.337769,-0.645874,-0.715820,507
38386710,10001,0.336914,-0.645630,-0.715698,513
38396718,10008,0.337524,-0.645996,-0.716064,516
38406727,10009,0.338135,-0.645508,-0.716919,512
38416694,9967,0.340210,-0.645630,-0.719116,512
38426697,10003,0.339844,-0.646240,-0.718872,506
38436707,10010,0.341553,-0.646484,-0.715088,510
38446709,10002,0.341553,-0.647095,-0.712524,508
38456710,10001,0.340820,-0.646240,-0.710327,510
38466713,10003,0.340088,-0.645996,-0.711914,510
38476717,10004,0.341309,-0.644775,-0.713501,512
38486721,10004,0.341553,-0.645752,-0.713867,513
38496719,9998,0.342285,-0.646118,-0.713745,511
38506695,9976,0.341919,-0.646362,-0.714233,513
38516724,10029,0.341675,-0.646973,-0.715454,507
38526699,9975,0.338623,-0.645630,-0.716187,512
38536711,10012,0.337402,-0.645508,-0.718750,510
38546715,10004,0.335449,-0.647705,-0.719116,512
38556715,10000,0.333984,-0.647949,-0.719116,510
38566708,9993,0.334717,-0.647217,-0.719971,511
38576709,10001,0.336182,-0.646240,-0.718994,513
38586727,10018,0.337158,-0.646362,-0.717896,515
38596716,9989,0.338501,-0.646240,-0.716675,510
38606722,10006,0.339233,-0.645386,-0.716431,515
38616700,9978,0.340210,-0.646118,-0.715210,513
38626694,9994,0.341431,-0.645874,-0.715332,516
38636720,10026,0.342773,-0.645264,-0.714722,515
38646712,9992,0.343140,-0.645630,-0.715698,516
38656715,10003,0.344116,-0.644165,-0.715576,516
38666723,10008,0.343628,-0.645020,-0.714966,513
38676723,10000,0.340820,-0.644531,-0.713257,515
38686714,9991,0.339111,-0.644775,-0.714355,514
38696700,9986,0.337524,-0.644897,-0.715210,506
38706698,9998,0.336060,-0.645630,-0.715820,511
38716734,10036,0.335815,-0.646240,-0.716797,512
38726704,9970,0.334473,-0.646606,-0.716187,513
38736695,9991,0.334717,-0.648315,-0.718506,509
38746743,10048,0.335938,-0.646606,-0.716309,512
38756711,9968,0.335571,-0.645874,-0.718140,509
38766698,9987,0.335449,-0.646362,-0.716064,512
38776702,10004,0.336182,-0.646240,-0.715576,511
38786708,10006,0.335449,-0.647339,-0.714844,509
38796723,10015,0.335327,-0.648437,-0.712402,512
38806718,9995,0.335693,-0.649536,-0.713135,506
38816702,9984,0.336182,-0.649292,-0.713745,510
38826719,10017,0.335693,-0.647827,-0.714478,512
38836711,9992,0.336060,-0.647705,-0.714722,506
38846700,9989,0.335815,-0.646240,-0.715088,511
38856706,10006,0.336182,-0.645142,-0.714111,512
38866700,9994,0.335205,-0.645020,-0.713379,505
38876700,10000,0.336060,-0.645264,-0.715210,508
38886740,10040,0.336914,-0.644897,-0.715088,509
38896695,9955,0.336670,-0.645386,-0.715210,510
38906708,10013,0.337280,-0.647705,-0.715332,513
38916735,10027,0.338501,-0.647339,-0.715210,513
38926720,9985,0.337280,-0.646362,-0.715698,506
38936697,9977,0.336182,-0.647095,-0.716187,514
38946694,9997,0.336548,-0.646973,-0.716064,510
38956704,10010,0.334839,-0.646240,-0.718628,512
38966708,10004,0.333984,-0.646484,-0.718994,511
38976716,10008,0.333862,-0.646851,-0.719482,511
38986699,9983,0.335815,-0.646851,-0.719849,512
38996723,10024,0.335571,-0.646484,-0.719482,511
39006719,9996,0.335815,-0.646851,-0.719971,512
39016711,9992,0.336304,-0.644653,-0.719482,511
39026717,10006,0.338135,-0.645142,-0.719116,510
39036703,9986,0.339966,-0.645264,-0.717896,511
39046715,10012,0.340576,-0.643555,-0.717041,512
39056712,9997,0.343018,-0.642822,-0.714355,509
39066709,9997,0.342041,-0.641968,-0.709961,512
39076711,10002,0.342651,-0.641479,-0.708984,510
39086715,10004,0.343018,-0.641846,-0.711426,510
39096706,9991,0.343872,-0.642700,-0.713989,511
39106711,10005,0.343994,-0.644775,-0.717041,510
39116697,9986,0.343750,-0.645020,-0.718018,509
39126702,10005,0.341675,-0.645020,-0.717651,512
39136716,10014,0.338745,-0.645020,-0.718750,509
39146717,10001,0.336914,-0.644531,-0.718628,510
39156709,9992,0.334473,-0.645630,-0.718018,511
39166716,10007,0.334961,-0.646606,-0.717651,512
39176701,9985,0.333740,-0.647583,-0.719971,509
39186707,10006,0.333618,-0.646606,-0.717407,513
39196702,9995,0.333374,-0.647705,-0.716431,514
39206709,10007,0.333252,-0.648193,-0.717407,509
39216722,10013,0.334229,-0.647461,-0.718994,515
39226728,10006,0.333984,-0.646729,-0.718994,516
39236695,9967,0.333740,-0.645996,-0.720825,514
39246695,10000,0.335815,-0.645874,-0.719604,515
39256732,10037,0.337036,-0.645630,-0.716797,516
39266721,9989,0.337646,-0.645752,-0.715332,517
39276701,9980,0.338745,-0.644165,-0.715088,515
39286694,9993,0.338989,-0.643188,-0.715454,511
39296707,10013,0.338989,-0.643677,-0.714111,515
39306699,9992,0.339966,-0.642456,-0.713989,515
39316719,10020,0.340698,-0.642822,-0.714355,509
39326715,9996,0.340820,-0.642334,-0.714966,509
39336703,9988,0.339966,-0.643311,-0.718384,514
39346712,10009,0.339355,-0.642334,-0.718628,506
39356706,9994,0.338745,-0.643555,-0.716797,513
39366695,9989,0.338501,-0.643066,-0.714478,512
39376694,9999,0.337891,-0.643433,-0.715576,511
39386711,10017,0.336914,-0.644531,-0.716675,503
39396717,10006,0.336548,-0.646729,-0.716431,511
39406713,9996,0.336548,-0.647949,-0.715576,506
39416710,9997,0.335449,-0.648193,-0.716187,509
39426721,10011,0.334717,-0.648193,-0.718140,510
39436716,9995,0.335327,-0.648804,-0.717896,511
39446721,10005,0.333252,-0.649170,-0.718994,513
39456714,9993,0.332886,-0.647827,-0.719116,510
39466694,9980,0.332764,-0.647217,-0.718018,511
39476694,10000,0.332397,-0.647095,-0.717651,510
39486716,10022,0.333008,-0.647095,-0.717163,510
39496715,9999,0.335205,-0.646118,-0.715942,509
39506704,9989,0.334473,-0.646851,-0.714966,510
39516719,10015,0.336548,-0.645996,-0.715698,511
39526701,9982,0.338135,-0.645996,-0.716064,508
39536708,10007,0.338013,-0.645386,-0.717163,508
39546705,9997,0.337402,-0.643677,-0.717773,506
39556704,9999,0.338013,-0.642578,-0.715210,514
39566728,10024,0.338135,-0.643433,-0.716309,514
39576714,9986,0.337280,-0.642456,-0.717163,513
39586708,9994,0.337524,-0.644043,-0.718872,511
39596715,10007,0.336670,-0.643555,-0.720215,511
39606696,9981,0.335327,-0.644287,-0.719360,511
39616716,10020,0.336060,-0.643677,-0.719727,507
39626712,9996,0.335571,-0.643799,-0.719482,509
39636707,9995,0.333862,-0.643921,-0.719604,510
39646716,10009,0.335571,-0.644287,-0.718140,510
39656703,9987,0.334595,-0.643555,-0.718628,511
39666696,9993,0.335083,-0.643433,-0.720947,509
39676702,10006,0.335327,-0.644531,-0.722534,509
39686717,10015,0.336304,-0.644531,-0.723511,508
39696714,9997,0.337524,-0.645264,-0.724243,512
39706700,9986,0.337402,-0.644775,-0.722290,511
39716717,10017,0.336670,-0.644653,-0.717529,507
39726746,10029,0.337891,-0.642334,-0.717285,509
39736716,9970,0.337524,-0.642212,-0.717529,511
39746706,9990,0.338623,-0.642334,-0.719482,507
39756724,10018,0.338745,-0.642822,-0.718506,508
39766697,9973,0.339478,-0.644409,-0.715210,507
39776709,10012,0.338013,-0.645020,-0.716187,509
39786714,10005,0.336792,-0.644409,-0.718506,512
39796716,10002,0.334717,-0.646240,-0.718872,510
39806702,9986,0.333008,-0.646729,-0.719482,507
39816707,10005,0.331177,-0.647461,-0.719971,513
39826712,10005,0.332275,-0.646729,-0.720337,506
39836701,9989,0.333618,-0.646729,-0.719482,511
39846699,9998,0.333618,-0.645264,-0.719971,509
39856713,10014,0.335571,-0.644409,-0.719727,514
39866725,10012,0.336060,-0.643799,-0.719482,511
39876708,9983,0.337891,-0.641724,-0.716309,516
39886705,9997,0.340942,-0.642700,-0.718628,514
39896700,9995,0.341431,-0.642212,-0.716919,514
39906703,10003,0.342163,-0.642456,-0.716309,513
39916707,10004,0.343872,-0.642822,-0.715332,515
39926705,9998,0.343140,-0.641968,-0.715332,516
39936702,9997,0.341919,-0.640625,-0.714844,514
39946702,10000,0.341187,-0.640991,-0.714478,514
39956720,10018,0.341309,-0.641602,-0.714966,511
39966698,9978,0.339844,-0.642212,-0.716919,512
39976700,10002,0.339722,-0.642090,-0.719116,513
39986696,9996,0.338867,-0.644531,-0.720459,511
39996710,10014,0.337280,-0.644531,-0.719727,513
40006713,10003,0.337036,-0.644287,-0.719482,511
40016701,9988,0.337036,-0.645142,-0.718872,506
40026701,10000,0.337036,-0.645508,-0.718750,513
40036745,10044,0.335327,-0.646606,-0.718384,507
40046705,9960,0.336304,-0.646851,-0.717773,509
40056700,9995,0.335205,-0.646484,-0.715942,508
40066721,10021,0.336426,-0.647217,-0.715576,506
40076707,9986,0.336426,-0.646484,-0.716919,508
40086704,9997,0.336182,-0.645752,-0.717529,508
40096720,10016,0.336426,-0.644043,-0.718262,510
40106714,9994,0.335938,-0.642700,-0.717285,511
40116719,10005,0.336792,-0.641602,-0.717896,504
40126707,9988,0.337036,-0.641846,-0.718750,512
40136695,9988,0.337158,-0.643066,-0.720215,512
40146721,10026,0.339233,-0.643921,-0.721069,512
40156710,9989,0.339722,-0.642944,-0.719360,509
40166729,10019,0.341064,-0.643066,-0.717285,511
40176706,9977,0.341797,-0.642334,-0.716675,512
40186751,10045,0.342651,-0.641724,-0.714966,510
40196695,9944,0.342651,-0.642212,-0.713989,508
40206714,10019,0.341431,-0.642212,-0.714844,510
40216694,9980,0.343018,-0.642944,-0.715576,507
40226713,10019,0.342773,-0.643799,-0.716919,513
40236704,9991,0.341187,-0.643433,-0.718262,509
40246722,10018,0.342163,-0.644409,-0.719849,512
40256716,9994,0.341064,-0.642700,-0.720093,509
40266705,9989,0.339966,-0.641602,-0.719482,512
40276694,9989,0.340332,-0.641846,-0.719482,508
40286723,10029,0.340698,-0.641846,-0.718384,512
40296713,9990,0.339844,-0.641479,-0.715454,509
40306711,9998,0.339966,-0.642456,-0.716797,511
40316711,10000,0.338013,-0.643311,-0.718262,506
40326715,10004,0.338501,-0.643066,-0.718018,509
40336697,9982,0.338501,-0.644165,-0.718140,512
40346710,10013,0.337402,-0.643555,-0.715332,510
40356713,10003,0.336914,-0.644409,-0.715210,508
40366698,9985,0.336548,-0.642944,-0.716919,510
40376714,10016,0.337646,-0.641724,-0.719238,510
40386720,10006,0.337769,-0.642090,-0.721558,511
40396714,9994,0.338745,-0.643921,-0.722168,509
40406695,9981,0.337891,-0.644531,-0.721436,511
40416710,10015,0.337891,-0.643677,-0.718018,511
40426720,10010,0.336670,-0.644897,-0.718384,510
40436708,9988,0.337036,-0.645264,-0.718994,507
40446704,9996,0.336670,-0.645996,-0.718628,507
40456701,9997,0.334351,-0.646729,-0.718750,512
40466710,10009,0.335938,-0.645508,-0.721191,512
40476709,9999,0.339478,-0.642334,-0.722778,514
40486695,9986,0.340210,-0.640869,-0.722046,515
40496720,10025,0.340332,-0.639160,-0.721436,513
40506698,9978,0.341431,-0.638550,-0.720459,515
40516710,10012,0.342529,-0.637207,-0.718628,515
40526705,9995,0.343506,-0.637573,-0.718384,516
40536707,10002,0.343994,-0.638550,-0.718628,514
40546722,10015,0.344482,-0.639038,-0.718628,515
40556719,9997,0.344971,-0.640381,-0.720337,516
40566715,9996,0.344360,-0.639282,-0.721313,512
40576698,9983,0.343506,-0.640259,-0.719971,513
40586720,10022,0.341064,-0.639648,-0.717651,510
40596703,9983,0.339844,-0.640137,-0.717529,516
40606705,10002,0.339722,-0.639893,-0.717529,512
40616698,9993,0.338379,-0.641724,-0.718750,513
40626719,10021,0.338501,-0.641479,-0.718506,512
40636748,10029,0.337769,-0.642578,-0.718018,514
40646723,9975,0.337891,-0.644165,-0.718994,512
40656719,9996,0.338257,-0.643799,-0.719482,510
40666702,9983,0.336548,-0.643433,-0.720459,512
40676711,10009,0.336792,-0.643066,-0.719604,512
40686722,10011,0.337646,-0.642700,-0.718750,509
40696694,9972,0.337158,-0.642944,-0.718506,510
40706724,10030,0.337280,-0.643311,-0.718872,513
40716694,9970,0.337891,-0.642700,-0.719116,512
40726713,10019,0.336426,-0.643555,-0.718506,508
40736708,9995,0.337402,-0.641846,-0.719116,506
40746720,10012,0.338379,-0.641846,-0.717773,511
40756695,9975,0.338867,-0.641724,-0.718018,510
40766701,10006,0.338501,-0.641479,-0.718750,509
40776719,10018,0.338379,-0.640625,-0.718994,508
40786727,10008,0.340210,-0.640869,-0.719116,509
40796706,9979,0.339478,-0.641968,-0.718872,509
40806717,10011,0.339355,-0.642456,-0.718628,512
40816708,9991,0.338501,-0.643433,-0.718140,512
40826696,9988,0.339233,-0.644531,-0.718140,512
40836698,10002,0.338257,-0.644653,-0.717529,509
40846711,10013,0.337769,-0.644653,-0.716553,512
40856721,10010,0.337891,-0.644531,-0.718018,511
40866698,9977,0.338013,-0.644287,-0.719360,510
40876717,10019,0.338379,-0.643555,-0.721313,505
40886702,9985,0.338623,-0.641968,-0.720703,511
40896702,10000,0.337769,-0.641113,-0.720581,506
40906709,10007,0.337402,-0.640381,-0.719482,511
40916721,10012,0.337158,-0.641113,-0.718506,511
40926704,9983,0.336914,-0.641113,-0.719116,511
40936699,9995,0.338379,-0.642578,-0.718872,513
40946697,9998,0.336914,-0.641602,-0.719238,511
40956696,9999,0.337524,-0.642334,-0.719849,509
40966700,10004,0.338135,-0.641602,-0.719238,508
40976702,10002,0.336670,-0.642578,-0.717651,509
40986714,10012,0.335327,-0.642700,-0.717041,511
40996717,10003,0.335205,-0.641235,-0.716309,504
41006698,9981,0.335571,-0.640869,-0.720215,511
41016712,10014,0.334839,-0.642456,-0.720703,510
41026704,9992,0.335205,-0.643677,-0.720093,505
41036720,10016,0.334106,-0.644287,-0.720093,507
41046723,10003,0.333618,-0.644775,-0.720337,510
41056711,9988,0.332397,-0.644043,-0.722534,507
41066700,9989,0.331421,-0.645752,-0.723022,512
41076700,10000,0.330566,-0.646240,-0.721436,511
41086699,9999,0.329468,-0.645996,-0.721436,510
41096714,10015,0.330566,-0.643799,-0.720581,512
41106699,9985,0.332886,-0.644043,-0.721313,513
41116696,9997,0.335205,-0.642334,-0.720825,514
41126722,10026,0.335449,-0.641479,-0.720825,515
41136712,9990,0.337524,-0.640503,-0.719849,511
41146703,9991,0.337524,-0.640137,-0.721436,517
41156704,10001,0.337158,-0.639771,-0.721680,517
41166718,10014,0.339233,-0.640503,-0.720093,516
41176723,10005,0.337891,-0.641846,-0.720703,516
41186694,9971,0.339233,-0.641479,-0.720337,516
41196708,10014,0.338379,-0.641113,-0.721191,511
41206706,9998,0.337158,-0.641602,-0.720093,516
41216695,9989,0.335938,-0.641968,-0.720337,512
41226711,10016,0.333252,-0.640991,-0.718872,514
41236719,10008,0.332031,-0.641479,-0.720093,509
41246700,9981,0.331909,-0.642334,-0.722046,513
41256703,10003,0.329834,-0.642090,-0.721436,508
41266696,9993,0.329102,-0.643066,-0.722290,513
41276719,10023,0.328735,-0.642822,-0.723267,507
41286712,9993,0.329102,-0.643799,-0.721924,511
41296694,9982,0.330566,-0.644043,-0.722534,512
41306716,10022,0.330200,-0.644287,-0.721069,508
41316699,9983,0.330688,-0.644165,-0.719482,510
41326719,10020,0.330200,-0.644409,-0.721069,509
41336703,9984,0.329956,-0.645264,-0.720093,512
41346698,9995,0.331421,-0.643799,-0.719727,509
41356697,9999,0.331543,-0.644409,-0.719971,511
41366741,10044,0.331299,-0.642822,-0.720947,505
41376707,9966,0.332642,-0.642456,-0.722778,511
41386725,10018,0.333618,-0.640991,-0.723022,512
41396704,9979,0.334717,-0.641357,-0.723022,508
41406701,9997,0.333374,-0.641357,-0.723389,512
41416703,10002,0.333984,-0.640137,-0.724487,512
41426704,10001,0.334839,-0.640259,-0.722534,511
41436700,9996,0.334717,-0.641724,-0.720825,509
41446697,9997,0.336182,-0.641235,-0.719849,505
41456710,10013,0.335449,-0.641235,-0.719360,512
41466714,10004,0.333862,-0.641602,-0.718750,511
41476701,9987,0.334839,-0.642822,-0.719360,512
41486708,10007,0.334106,-0.642456,-0.720093,510
41496719,10011,0.333496,-0.641479,-0.723389,512
41506720,10001,0.333252,-0.641968,-0.723877,506
41516716,9996,0.332520,-0.641724,-0.724731,512
41526722,10006,0.333374,-0.641113,-0.724243,512
41536707,9985,0.332764,-0.640869,-0.724121,513
41546732,10025,0.333130,-0.640625,-0.722290,506
41556700,9968,0.332886,-0.641724,-0.722656,512
41566695,9995,0.332642,-0.642456,-0.722412,510
41576720,10025,0.333374,-0.641479,-0.722656,511
41586717,9997,0.334473,-0.642090,-0.722290,508
41596724,10007,0.333374,-0.642456,-0.722046,509
41606722,9998,0.332397,-0.642212,-0.718750,507
41616724,10002,0.333374,-0.642334,-0.715942,512
41626722,9998,0.333740,-0.641602,-0.718140,509
41636705,9983,0.334717,-0.642212,-0.722290,510
41646708,10003,0.334473,-0.641479,-0.726807,509
41656701,9993,0.333862,-0.636353,-0.731323,505
41666721,10020,0.330078,-0.636475,-0.724731,508
41676709,9988,0.336548,-0.638794,-0.722900,511
41686723,10014,0.333496,-0.638794,-0.719727,508
41696739,10016,0.331787,-0.642090,-0.722412,511
41706710,9971,0.328491,-0.642456,-0.724854,511
41716720,10010,0.329346,-0.642212,-0.727661,515
41726711,9991,0.327026,-0.641479,-0.725586,509
41736706,9995,0.331299,-0.638794,-0.724365,515
41746694,9988,0.331421,-0.639526,-0.726685,512
41756713,10019,0.330200,-0.639648,-0.724854,514
41766719,10006,0.332764,-0.637695,-0.722168,509
41776722,10003,0.333862,-0.639648,-0.720581,513
41786715,9993,0.336426,-0.642822,-0.718018,514
41796723,10008,0.337769,-0.643311,-0.719482,519
41806706,9983,0.334961,-0.643311,-0.722656,516
41816702,9996,0.338135,-0.643188,-0.725098,515
41826695,9993,0.336304,-0.642456,-0.725830,515
41836722,10027,0.334961,-0.634521,-0.723267,518
41846698,9976,0.333862,-0.635620,-0.725098,510
41856705,10007,0.333008,-0.629150,-0.722168,514
41866715,10010,0.335205,-0.636719,-0.723267,508
41876723,10008,0.333374,-0.644653,-0.723389,507
41886718,9995,0.334229,-0.643555,-0.723999,511
41896710,9992,0.335083,-0.643066,-0.723022,512
41906702,9992,0.334961,-0.644165,-0.723389,508
41916704,10002,0.329956,-0.638794,-0.722412,507
41926710,10006,0.331543,-0.638306,-0.721802,509
41936718,10008,0.329712,-0.638672,-0.723145,503
41946697,9979,0.329102,-0.639526,-0.725220,509
41956719,10022,0.327515,-0.640625,-0.726196,511
41966713,9994,0.329956,-0.639648,-0.726807,510
41976717,10004,0.328857,-0.638306,-0.731689,509
41986700,9983,0.324341,-0.645874,-0.728638,513
41996710,10010,0.326660,-0.644531,-0.722778,514
42006725,10015,0.331055,-0.642456,-0.722534,511
42016703,9978,0.327393,-0.640137,-0.721924,512
42026707,10004,0.329102,-0.639282,-0.722778,512
42036703,9996,0.329590,-0.634399,-0.727661,512
42046707,10004,0.330811,-0.638184,-0.723145,513
42056704,9997,0.333740,-0.640747,-0.716553,513
42066707,10003,0.335815,-0.643799,-0.715576,512
42076710,10003,0.337280,-0.642700,-0.720581,513
42086717,10007,0.332886,-0.641846,-0.724854,511
42096712,9995,0.332764,-0.645264,-0.721436,505
42106701,9989,0.334106,-0.643311,-0.718140,508
42116713,10012,0.335938,-0.639160,-0.718750,511
42126714,10001,0.335815,-0.635742,-0.720459,512
42136729,10015,0.335205,-0.636597,-0.722778,513
42146743,10014,0.336670,-0.638916,-0.723389,508
42156708,9965,0.334595,-0.638428,-0.724731,495
42166721,10013,0.334106,-0.639893,-0.723877,508
42176694,9973,0.335815,-0.641357,-0.726440,511
42186708,10014,0.332031,-0.640869,-0.723022,507
42196699,9991,0.330566,-0.642334,-0.720703,510
42206709,10010,0.331909,-0.643677,-0.721680,506
42216703,9994,0.331299,-0.643921,-0.725952,509
42226697,9994,0.331177,-0.643188,-0.726929,508
42236703,10006,0.328979,-0.641724,-0.730103,510
42246711,10008,0.329346,-0.640991,-0.720215,511
42256710,9999,0.329590,-0.639893,-0.718872,512
42266703,9993,0.332031,-0.638428,-0.720215,512
42276715,10012,0.331787,-0.638672,-0.722168,512
42286724,10009,0.333374,-0.639038,-0.723267,510
42296714,9990,0.332764,-0.639648,-0.722290,511
42306716,10002,0.331909,-0.641968,-0.719360,504
42316715,9999,0.331421,-0.642212,-0.721680,511
42326698,9983,0.331055,-0.641846,-0.723999,512
42336708,10010,0.330566,-0.640747,-0.725830,510
42346720,10012,0.328369,-0.642090,-0.724365,508
42356699,9979,0.328979,-0.640503,-0.726196,511
42366710,10011,0.329224,-0.640991,-0.726562,512
42376708,9998,0.329712,-0.640381,-0.726440,517
42386711,10003,0.332153,-0.639893,-0.726929,513
42396721,10010,0.333008,-0.639404,-0.724731,512
42406723,10002,0.334839,-0.639526,-0.721191,510
42416733,10010,0.338501,-0.640503,-0.720215,513
42426700,9967,0.338745,-0.640869,-0.721436,514
42436708,10008,0.339966,-0.641235,-0.723633,514
42446698,9990,0.337158,-0.639893,-0.725586,514
42456706,10008,0.337158,-0.638550,-0.725342,514
42466708,10002,0.335327,-0.639526,-0.723633,514
42476700,9992,0.333496,-0.640015,-0.722290,516
42486721,10021,0.333008,-0.637939,-0.721558,514
42496706,9985,0.332275,-0.638672,-0.722290,514
42506698,9992,0.330322,-0.639526,-0.722778,512
42516718,10020,0.330688,-0.639404,-0.724121,513
42526704,9986,0.329956,-0.640869,-0.725098,511
42536709,10005,0.329834,-0.639160,-0.724976,510
42546705,9996,0.329346,-0.637939,-0.724487,511
42556714,10009,0.326660,-0.637939,-0.726196,507
42566705,9991,0.328003,-0.639648,-0.725586,506
42576739,10034,0.326782,-0.640991,-0.725586,509
42586714,9975,0.326416,-0.641724,-0.724365,504
42596711,9997,0.325684,-0.643188,-0.724731,511
42606700,9989,0.326172,-0.644165,-0.724243,507
42616718,10018,0.326904,-0.644043,-0.724609,511
42626702,9984,0.328613,-0.641724,-0.723877,511
42636710,10008,0.330811,-0.641113,-0.723145,511
42646716,10006,0.329346,-0.637695,-0.724121,511
42656720,10004,0.332886,-0.640991,-0.723877,505
42666695,9975,0.335327,-0.636597,-0.729980,507
42676715,10020,0.333496,-0.640869,-0.725220,511
42686699,9984,0.334961,-0.636841,-0.725708,507
42696699,10000,0.333618,-0.639160,-0.723999,512
42706700,10001,0.333984,-0.642822,-0.722778,496
42716697,9997,0.332153,-0.640503,-0.719604,511
42726695,9998,0.333008,-0.640503,-0.722290,512
42736700,10005,0.334229,-0.641846,-0.720215,512
42746714,10014,0.331299,-0.640137,-0.720459,511
42756705,9991,0.329346,-0.638428,-0.722534,512
42766703,9998,0.328857,-0.640259,-0.724365,506
42776695,9992,0.327881,-0.640015,-0.725342,512
42786717,10022,0.328857,-0.643188,-0.727417,509
42796714,9997,0.328003,-0.643066,-0.727295,511
42806709,9995,0.328247,-0.643188,-0.727051,513
42816706,9997,0.328857,-0.641357,-0.726318,508
42826721,10015,0.328979,-0.639282,-0.724243,508
42836718,9997,0.328247,-0.639038,-0.720825,512
42846716,9998,0.330078,-0.639038,-0.720459,510
42856742,10026,0.329346,-0.638306,-0.722168,507
42866709,9967,0.329712,-0.638672,-0.723511,508
42876704,9995,0.328857,-0.638916,-0.726685,508
42886697,9993,0.330200,-0.640991,-0.726807,505
42896716,10019,0.331543,-0.641235,-0.724487,511
42906712,9996,0.330444,-0.639893,-0.725220,510
42916698,9986,0.330322,-0.640747,-0.724365,510
42926722,10024,0.332031,-0.640259,-0.725098,510
42936718,9996,0.333252,-0.639404,-0.724243,509
42946719,10001,0.334351,-0.638794,-0.725464,509
42956695,9976,0.333374,-0.638184,-0.723511,510
42966719,10024,0.333374,-0.638184,-0.722168,512
42976694,9975,0.332275,-0.639404,-0.721680,511
42986723,10029,0.331909,-0.641724,-0.722534,511
42996717,9994,0.329956,-0.642700,-0.724121,511
43006709,9992,0.326538,-0.643066,-0.726074,506
43016699,9990,0.324463,-0.642700,-0.726318,507
43026719,10020,0.324463,-0.642578,-0.726440,513
43036700,9981,0.326416,-0.643555,-0.728760,511
43046719,10019,0.328003,-0.641479,-0.726807,513
43056716,9997,0.330322,-0.640747,-0.726196,516
43066695,9979,0.332275,-0.639160,-0.725220,516
43076710,10015,0.334106,-0.637695,-0.722168,512
43086720,10010,0.335815,-0.637939,-0.720459,516
43096719,9999,0.337646,-0.638062,-0.719849,515
43106701,9982,0.338257,-0.638062,-0.721313,509
43116696,9995,0.338989,-0.637817,-0.722534,516
43126703,10007,0.337769,-0.637451,-0.721802,514
43136720,10017,0.337036,-0.638184,-0.721680,514
43146703,9983,0.334961,-0.638062,-0.722046,507
43156694,9991,0.335449,-0.637329,-0.722168,509
43166717,10023,0.333252,-0.638672,-0.725220,507
43176724,10007,0.332642,-0.640259,-0.724243,513
43186697,9973,0.332764,-0.641113,-0.722534,512
43196700,10003,0.331909,-0.642578,-0.722778,511
43206699,9999,0.331787,-0.640991,-0.723022,505
43216713,10014,0.332275,-0.642090,-0.722534,510
43226719,10006,0.331543,-0.641846,-0.721802,510
43236702,9983,0.331421,-0.642334,-0.721802,505
43246705,10003,0.330566,-0.643555,-0.722534,511
43256727,10022,0.329834,-0.644653,-0.723999,508
43266734,10007,0.328613,-0.643188,-0.723877,512
43276704,9970,0.328003,-0.644531,-0.723389,512
43286720,10016,0.329102,-0.643799,-0.722778,510
43296716,9996,0.329956,-0.643188,-0.722290,511
43306720,10004,0.329956,-0.642822,-0.721802,511
43316721,10001,0.332520,-0.641235,-0.721313,512
43326721,10000,0.336304,-0.640259,-0.720215,511
43336713,9992,0.336914,-0.641235,-0.721924,511
43346696,9983,0.338135,-0.639526,-0.721436,511
43356695,9999,0.338623,-0.639526,-0.720825,507
43366703,10008,0.339844,-0.638184,-0.720337,507
43376704,10001,0.336792,-0.640381,-0.722290,510
43386714,10010,0.338257,-0.640503,-0.720703,510
43396708,9994,0.337891,-0.640747,-0.720459,508
43406713,10005,0.337280,-0.641113,-0.719482,511
43416710,9997,0.336304,-0.641357,-0.720093,513
43426699,9989,0.334595,-0.641846,-0.720947,511
43436719,10020,0.334717,-0.641479,-0.721802,506
43446711,9992,0.334473,-0.641235,-0.722046,511
43456723,10012,0.332642,-0.641724,-0.722168,507
43466704,9981,0.332397,-0.642090,-0.721802,510
43476706,10002,0.330688,-0.641724,-0.723389,512
43486695,9989,0.332153,-0.644409,-0.723267,510
43496706,10011,0.331543,-0.643066,-0.723389,510
43506698,9992,0.331055,-0.641724,-0.722900,507
43516713,10015,0.331909,-0.644043,-0.722046,509
43526710,9997,0.332764,-0.644653,-0.722168,510
43536697,9987,0.333252,-0.641602,-0.722778,506
43546706,10009,0.335327,-0.642090,-0.721069,511
43556716,10010,0.335938,-0.641846,-0.717896,512
43566702,9986,0.337769,-0.641479,-0.716187,512
43576718,10016,0.337769,-0.641235,-0.715454,511
43586706,9988,0.338867,-0.640991,-0.716187,509
43596720,10014,0.340576,-0.639526,-0.719238,509
43606708,9988,0.341309,-0.640015,-0.721191,510
43616708,10000,0.343750,-0.641357,-0.722412,512
43626696,9988,0.341919,-0.640991,-0.720947,503
43636718,10022,0.341309,-0.640015,-0.720947,510
43646695,9977,0.340698,-0.643066,-0.717896,510
43656699,10004,0.338745,-0.644165,-0.718140,511
43666702,10003,0.337036,-0.645020,-0.718262,505
43676698,9996,0.335327,-0.645630,-0.718384,512
43686738,10040,0.335938,-0.645630,-0.719116,511
43696728,9990,0.335083,-0.644287,-0.720459,510
43706702,9974,0.336670,-0.641235,-0.721313,510
43716701,9999,0.338745,-0.640869,-0.721680,512
43726710,10009,0.338013,-0.640991,-0.719971,515
43736712,10002,0.339355,-0.640137,-0.719604,511
43746705,9993,0.339966,-0.639648,-0.718994,519
43756703,9998,0.341309,-0.641113,-0.718384,515
43766701,9998,0.342041,-0.642944,-0.717651,511
43776715,10014,0.342773,-0.643433,-0.716553,511
43786721,10006,0.341675,-0.645752,-0.714233,514
43796695,9974,0.340576,-0.643921,-0.715210,513
43806721,10026,0.339478,-0.641602,-0.715942,511
43816699,9978,0.339355,-0.641724,-0.716187,515
43826724,10025,0.338501,-0.642456,-0.716187,512
43836717,9993,0.337524,-0.642090,-0.718506,512
43846722,10005,0.337036,-0.642456,-0.719849,513
43856717,9995,0.338135,-0.644531,-0.719116,514
43866711,9994,0.338623,-0.644287,-0.718262,509
43876720,10009,0.337402,-0.643555,-0.717773,508
43886723,10003,0.337891,-0.644409,-0.716553,510
43896706,9983,0.337524,-0.644165,-0.717896,507
43906699,9993,0.337891,-0.643921,-0.718872,510
43916720,10021,0.339478,-0.643433,-0.717529,506
43926724,10004,0.339233,-0.643433,-0.714966,510
43936699,9975,0.339844,-0.644165,-0.715942,512
43946708,10009,0.339478,-0.643555,-0.716431,506
43956716,10008,0.339600,-0.642334,-0.716919,505
43966716,10000,0.341187,-0.641968,-0.716797,509
43976718,10002,0.341309,-0.641479,-0.717407,508
43986727,10009,0.341919,-0.641357,-0.716553,513
43996699,9972,0.342163,-0.641724,-0.717896,505
44006697,9998,0.342041,-0.641113,-0.717651,511
44016701,10004,0.342773,-0.641113,-0.716553,512
44026714,10013,0.342896,-0.642212,-0.718140,508
44036707,9993,0.343018,-0.642700,-0.717285,512
44046701,9994,0.342285,-0.642822,-0.717285,512
44056722,10021,0.341064,-0.643188,-0.717041,509
44066714,9992,0.341309,-0.644287,-0.716919,512
44076715,10001,0.340820,-0.642456,-0.718384,513
44086713,9998,0.341187,-0.642700,-0.718262,512
44096711,9998,0.342285,-0.641724,-0.719971,511
44106722,10011,0.342896,-0.641113,-0.719360,506
44116698,9976,0.341797,-0.640625,-0.719116,510
44126745,10047,0.343994,-0.640869,-0.716431,514
44136705,9960,0.343750,-0.638794,-0.715088,512
44146703,9998,0.341309,-0.640381,-0.714722,511
44156699,9996,0.341187,-0.642334,-0.714600,509
44166719,10020,0.340942,-0.642212,-0.715210,506
44176703,9984,0.340210,-0.642944,-0.717407,511
44186716,10013,0.340088,-0.641724,-0.719727,510
44196719,10003,0.339478,-0.643677,-0.718262,511
44206699,9980,0.338745,-0.642212,-0.717407,508
44216722,10023,0.338013,-0.643066,-0.716553,512
44226723,10001,0.337036,-0.642334,-0.717773,506
44236705,9982,0.337891,-0.641724,-0.720093,511
44246696,9991,0.339844,-0.643311,-0.720825,511
44256705,10009,0.339600,-0.643677,-0.720703,510
44266754,10049,0.339355,-0.645020,-0.719971,503
44276701,9947,0.338257,-0.644775,-0.720703,510
44286723,10022,0.336304,-0.644775,-0.720703,506
44296720,9997,0.334473,-0.646240,-0.718750,507
44306699,9979,0.333618,-0.645874,-0.718506,511
44316711,10012,0.333496,-0.646606,-0.719604,514
44326705,9994,0.333496,-0.644775,-0.721680,512
44336698,9993,0.333862,-0.644531,-0.722778,512
44346705,10007,0.338013,-0.642822,-0.722656,512
44356695,9990,0.338623,-0.641602,-0.722656,514
44366708,10013,0.340454,-0.639526,-0.720947,511
44376706,9998,0.341553,-0.638916,-0.718872,515
44386716,10010,0.342651,-0.638672,-0.717163,513
44396703,9987,0.342896,-0.638550,-0.715698,513
44406699,9996,0.343750,-0.639648,-0.716064,516
44416708,10009,0.343994,-0.640503,-0.716919,530
44426702,9994,0.343872,-0.640381,-0.716309,512
44436715,10013,0.342285,-0.641602,-0.716553,516
44446712,9997,0.340820,-0.641846,-0.717407,512
44456723,10011,0.337769,-0.642334,-0.719238,509
44466707,9984,0.336060,-0.643799,-0.720337,513
44476724,10017,0.333862,-0.642944,-0.721313,514
44486723,9999,0.335083,-0.644531,-0.719727,515
44496718,9995,0.334351,-0.644287,-0.719971,511
44506699,9981,0.333008,-0.645996,-0.718994,512
44516699,10000,0.332031,-0.646118,-0.718262,512
44526723,10024,0.332886,-0.645874,-0.719360,509
44536720,9997,0.332275,-0.645630,-0.719727,508
44546701,9981,0.332642,-0.646729,-0.719604,510
44556702,10001,0.331787,-0.645630,-0.717651,509
44566706,10004,0.333008,-0.645508,-0.717529,512
44576698,9992,0.333252,-0.644531,-0.717041,511
44586694,9996,0.332397,-0.644775,-0.718506,510
44596715,10021,0.333984,-0.644531,-0.719360,511
44606709,9994,0.334229,-0.643311,-0.719238,510
44616701,9992,0.335571,-0.643555,-0.717407,512
44626721,10020,0.335083,-0.642578,-0.717285,512
44636720,9999,0.336060,-0.641846,-0.716797,509
44646716,9996,0.335693,-0.641846,-0.717041,510
44656716,10000,0.337036,-0.641846,-0.718262,512
44666704,9988,0.337646,-0.642944,-0.718140,508
44676723,10019,0.337769,-0.643066,-0.718384,512
44686694,9971,0.338013,-0.642944,-0.719116,510
44696740,10046,0.337891,-0.644043,-0.718140,510
44706720,9980,0.337524,-0.645142,-0.718018,504
44716702,9982,0.337402,-0.644043,-0.719116,511
44726697,9995,0.335327,-0.643799,-0.718628,511
44736695,9998,0.334106,-0.644287,-0.718262,512
44746707,10012,0.334473,-0.643311,-0.718628,512
44756721,10014,0.334717,-0.642456,-0.720825,510
44766719,9998,0.334229,-0.642334,-0.721436,512
44776715,9996,0.333496,-0.641846,-0.720703,508
44786713,9998,0.334229,-0.643188,-0.722168,512
44796717,10004,0.334351,-0.642700,-0.723145,509
44806695,9978,0.334717,-0.641846,-0.723633,512
44816695,10000,0.334839,-0.642578,-0.722534,509
44826722,10027,0.335083,-0.642090,-0.720947,511
44836705,9983,0.333862,-0.641602,-0.717041,507
44846731,10026,0.333984,-0.641113,-0.718262,506
44856705,9974,0.333984,-0.641235,-0.718628,506
44866702,9997,0.334717,-0.641724,-0.720947,511
44876702,10000,0.334839,-0.642456,-0.722778,511
44886700,9998,0.335083,-0.642334,-0.723022,510
44896723,10023,0.333252,-0.642090,-0.723999,511
44906714,9991,0.332642,-0.642456,-0.724243,511
44916724,10010,0.331543,-0.641968,-0.723633,510
44926709,9985,0.330200,-0.641357,-0.723145,510
44936706,9997,0.331055,-0.642456,-0.722534,507
44946703,9997,0.330200,-0.642212,-0.722778,512
44956701,9998,0.329834,-0.641602,-0.721313,507
44966710,10009,0.330933,-0.641113,-0.721680,510
44976703,9993,0.332275,-0.640747,-0.722900,507
44986708,10005,0.333374,-0.640869,-0.723633,512
44996744,10036,0.334961,-0.640015,-0.723267,514
45006699,9955,0.336060,-0.638428,-0.721313,515
45016694,9995,0.335693,-0.637817,-0.723633,515
45026696,10002,0.337402,-0.639160,-0.724243,511
45036709,10013,0.336548,-0.639282,-0.723389,514
45046694,9985,0.336182,-0.640137,-0.721558,516
45056720,10026,0.334961,-0.639282,-0.723511,515
45066696,9976,0.333374,-0.640503,-0.724365,516
45076705,10009,0.332397,-0.639893,-0.723022,514
45086721,10016,0.332031,-0.639893,-0.723267,513
45096702,9981,0.330688,-0.640991,-0.724243,509
45106723,10021,0.331177,-0.641113,-0.724365,523
45116698,9975,0.330322,-0.640503,-0.725098,509
45126717,10019,0.329834,-0.640747,-0.724976,513
45136694,9977,0.329956,-0.640137,-0.724976,515
45146740,10046,0.330200,-0.640991,-0.723022,510
45156710,9970,0.330200,-0.641235,-0.723022,508
45166723,10013,0.328857,-0.641602,-0.722290,507
45176710,9987,0.328857,-0.642090,-0.722412,513
45186699,9989,0.328613,-0.642578,-0.723022,510
45196710,10011,0.327881,-0.641602,-0.721924,504
45206712,10002,0.328613,-0.641968,-0.723877,505
45216696,9984,0.328125,-0.640991,-0.726196,512
45226696,10000,0.328247,-0.640991,-0.726074,509
45236708,10012,0.329590,-0.640625,-0.727173,510
45246701,9993,0.329224,-0.639893,-0.726318,511
45256697,9996,0.329956,-0.639160,-0.726074,508
45266699,10002,0.331055,-0.639526,-0.724121,510
45276712,10013,0.332520,-0.640015,-0.723389,508
45286702,9990,0.333008,-0.639648,-0.722900,507
45296707,10005,0.332764,-0.641113,-0.720825,512
45306743,10036,0.333008,-0.640015,-0.721313,504
45316704,9961,0.332886,-0.641357,-0.722290,509
45326720,10016,0.331055,-0.641113,-0.722412,512
45336696,9976,0.331909,-0.641846,-0.721436,511
45346719,10023,0.331665,-0.640015,-0.723511,505
45356696,9977,0.330688,-0.640991,-0.724365,512
45366699,10003,0.328979,-0.639648,-0.725342,510
45376716,10017,0.330200,-0.641235,-0.725098,509
45386699,9983,0.329102,-0.639404,-0.724976,512
45396717,10018,0.329468,-0.639648,-0.726074,512
45406717,10000,0.329468,-0.640015,-0.726440,511
45416695,9978,0.329956,-0.640625,-0.723877,505
45426718,10023,0.329956,-0.639526,-0.724487,510
45436704,9986,0.329712,-0.640747,-0.724731,508
45446720,10016,0.329224,-0.640869,-0.725098,508
45456716,9996,0.329834,-0.641113,-0.723999,511
45466718,10002,0.329346,-0.641968,-0.723633,511
45476699,9981,0.329346,-0.639893,-0.722778,505
45486697,9998,0.329468,-0.639282,-0.723511,508
45496701,10004,0.330444,-0.639160,-0.724365,512
45506695,9994,0.329712,-0.639771,-0.725342,512
45516719,10024,0.330566,-0.640381,-0.724731,510
45526702,9983,0.331665,-0.640625,-0.724609,505
45536698,9996,0.330566,-0.640869,-0.722656,512
45546697,9999,0.329712,-0.640869,-0.722656,508
45556721,10024,0.329590,-0.641235,-0.723511,510
45566718,9997,0.327637,-0.642578,-0.723389,510
45576712,9994,0.326660,-0.642944,-0.724854,513
45586694,9982,0.326904,-0.641235,-0.727417,510
45596721,10027,0.328125,-0.640503,-0.728516,512
45606760,10039,0.328247,-0.640503,-0.728027,508
45616712,9952,0.330200,-0.639282,-0.726807,512
45626699,9987,0.330566,-0.639160,-0.725830,511
45636718,10019,0.332886,-0.638916,-0.723877,516
45646696,9978,0.333008,-0.637817,-0.723999,510
45656716,10020,0.333984,-0.639404,-0.723389,511
45666705,9989,0.333374,-0.639038,-0.724731,513
45676713,10008,0.333374,-0.639771,-0.725220,515
45686712,9999,0.332275,-0.639404,-0.724976,513
45696699,9987,0.331909,-0.638428,-0.725098,510
45706712,10013,0.330200,-0.639771,-0.723145,514
45716713,10001,0.330566,-0.638794,-0.723877,511
45726711,9998,0.330444,-0.638428,-0.725342,513
45736716,10005,0.330322,-0.639038,-0.724487,510
45746719,10003,0.329712,-0.640137,-0.724243,510
45756725,10006,0.328979,-0.639771,-0.724731,512
45766722,9997,0.328857,-0.639160,-0.725586,512
45776711,9989,0.329712,-0.638916,-0.725830,511
45786697,9986,0.329224,-0.639648,-0.726074,511
45796698,10001,0.329102,-0.640259,-0.724609,514
45806720,10022,0.327148,-0.641235,-0.724976,507
45816708,9988,0.326660,-0.642090,-0.724976,512
45826717,10009,0.327026,-0.642700,-0.724121,513
45836703,9986,0.326660,-0.642090,-0.723999,506
45846695,9992,0.325928,-0.641602,-0.725464,506
45856716,10021,0.326294,-0.641357,-0.725098,508
45866719,10003,0.326050,-0.641724,-0.724731,512
