t_us,dt_us,ax,ay,az,ppg
11987072,10001,-0.234131,-0.098389,0.962769,532
11997073,10001,-0.233032,-0.098022,0.959839,527
12007099,10026,-0.234253,-0.095947,0.957886,531
12017071,9972,-0.233765,-0.093384,0.956909,531
12027092,10021,-0.233032,-0.091187,0.956543,525
12037075,9983,-0.231812,-0.091064,0.955688,527
12047072,9997,-0.230957,-0.090820,0.954102,529
12057100,10028,-0.231201,-0.093872,0.952759,523
12067079,9979,-0.231079,-0.097168,0.951904,522
12077079,10000,-0.229004,-0.099487,0.953491,514
12087080,10001,-0.226318,-0.100830,0.955444,523
12097107,10027,-0.225830,-0.103882,0.954590,515
12107072,9965,-0.223267,-0.102051,0.955688,520
12117086,10014,-0.223511,-0.100586,0.956055,519
12127091,10005,-0.224976,-0.103027,0.955078,517
12137079,9988,-0.225586,-0.105103,0.953003,516
12147075,9996,-0.225830,-0.106079,0.953369,517
12157074,9999,-0.226685,-0.110962,0.953735,510
12167093,10019,-0.227051,-0.110474,0.954956,515
12177082,9989,-0.228149,-0.108887,0.954102,514
12187099,10017,-0.229004,-0.108643,0.955688,515
12197086,9987,-0.228760,-0.108154,0.955566,517
12207088,10002,-0.230713,-0.102905,0.953491,515
12217095,10007,-0.231445,-0.099731,0.951294,518
12227081,9986,-0.231201,-0.096802,0.951294,514
12237093,10012,-0.231689,-0.095581,0.951050,515
12247074,9981,-0.232178,-0.095947,0.950317,507
12257084,10010,-0.232056,-0.096558,0.954224,509
12267080,9996,-0.231079,-0.097534,0.954468,513
12277082,10002,-0.233643,-0.099487,0.954346,508
12287075,9993,-0.234131,-0.102539,0.953857,508
12297079,10004,-0.233521,-0.105713,0.954834,511
12307083,10004,-0.233887,-0.105469,0.955811,512
12317082,9999,-0.231934,-0.105835,0.958252,510
12327099,10017,-0.230835,-0.106201,0.960083,511
12337088,9989,-0.230835,-0.106689,0.958740,509
12347099,10011,-0.231201,-0.107178,0.959473,510
12357090,9991,-0.229492,-0.104492,0.960205,504
12367093,10003,-0.225830,-0.097412,0.959717,507
12377088,9995,-0.227173,-0.095703,0.957886,501
12387099,10011,-0.226685,-0.095215,0.957397,508
12397076,9977,-0.227173,-0.093506,0.956665,505
12407071,9995,-0.225464,-0.092407,0.957520,503
12417125,10054,-0.225830,-0.092896,0.960205,508
12427097,9972,-0.223755,-0.094116,0.960815,503
12437088,9991,-0.224731,-0.094604,0.957764,504
12447095,10007,-0.226807,-0.094360,0.957642,499
12457087,9992,-0.225708,-0.095093,0.956665,507
12467074,9987,-0.226196,-0.095215,0.957397,506
12477091,10017,-0.227173,-0.095947,0.957764,498
12487082,9991,-0.227661,-0.097168,0.958618,503
12497079,9997,-0.227295,-0.099243,0.960083,502
12507097,10018,-0.225708,-0.098633,0.957153,507
12517071,9974,-0.226196,-0.102051,0.956055,503
12527085,10014,-0.226562,-0.104492,0.954834,510
12537087,10002,-0.227539,-0.107178,0.953857,509
12547083,9996,-0.228027,-0.107056,0.953613,500
12557074,9991,-0.229492,-0.106201,0.952637,508
12567778,10704,-0.230591,-0.107544,0.955322,504
12577116,9338,-0.230469,-0.107910,0.956421,504
12587075,9959,-0.229614,-0.108154,0.954834,505
12597093,10018,-0.226318,-0.106567,0.953491,503
12607090,9997,-0.226685,-0.103516,0.953979,503
12617096,10006,-0.226562,-0.098511,0.953979,503
12627079,9983,-0.225830,-0.095947,0.954834,502
12637073,9994,-0.225708,-0.093872,0.960571,497
12647094,10021,-0.227661,-0.094482,0.960571,503
12657083,9989,-0.227051,-0.093750,0.959351,503
12667086,10003,-0.227173,-0.092896,0.961182,497
12677076,9990,-0.226807,-0.094360,0.961792,503
12687083,10007,-0.226562,-0.095459,0.965820,507
12697097,10014,-0.224365,-0.096069,0.965820,510
12707073,9976,-0.223999,-0.097046,0.965454,516
12717096,10023,-0.221436,-0.096802,0.964966,518
12727078,9982,-0.221558,-0.098633,0.962280,522
12737086,10008,-0.221436,-0.098755,0.961060,524
12747074,9988,-0.221680,-0.098633,0.961182,518
12757073,9999,-0.221436,-0.096436,0.959839,527
12767098,10025,-0.220459,-0.095825,0.961304,526
12777098,10000,-0.220093,-0.096924,0.959839,526
12787081,9983,-0.219727,-0.097900,0.957520,524
12797082,10001,-0.218506,-0.102417,0.956299,522
12807091,10009,-0.218872,-0.101074,0.954956,523
12817099,10008,-0.219604,-0.098633,0.954102,525
12827081,9982,-0.218506,-0.095581,0.952637,523
12837075,9994,-0.221680,-0.094360,0.950317,522
12847076,10001,-0.223389,-0.093872,0.949707,517
12857089,10013,-0.222900,-0.095215,0.950806,517
12867089,10000,-0.223022,-0.092896,0.950684,517
12877095,10006,-0.222656,-0.092651,0.950562,510
12887088,9993,-0.222900,-0.093994,0.950928,516
12897078,9990,-0.221313,-0.097168,0.952148,510
12907079,10001,-0.224487,-0.099976,0.958374,509
12917107,10028,-0.223022,-0.099976,0.962280,507
12927083,9976,-0.223511,-0.100464,0.965088,511
12937077,9994,-0.221069,-0.100708,0.964233,510
12947088,10011,-0.220581,-0.101196,0.963989,509
12957100,10012,-0.220337,-0.100464,0.961548,511
12967073,9973,-0.221802,-0.094727,0.960571,502
12977073,10000,-0.221558,-0.091919,0.960571,508
12987322,10249,-0.220459,-0.090454,0.962769,501
12997097,9775,-0.219238,-0.087524,0.961914,507
13007071,9974,-0.221069,-0.086426,0.960571,508
13017092,10021,-0.222534,-0.090454,0.958252,509
13027073,9981,-0.222290,-0.093140,0.958130,503
13037094,10021,-0.223999,-0.095337,0.958252,504
13047077,9983,-0.223877,-0.096313,0.960083,504
13057100,10023,-0.222412,-0.096069,0.959351,503
13067100,10000,-0.222290,-0.096313,0.958252,505
13077072,9972,-0.219482,-0.098633,0.954712,503
13087085,10013,-0.220093,-0.097778,0.956299,509
13097097,10012,-0.219604,-0.096313,0.958008,510
13107079,9982,-0.219604,-0.095947,0.958984,500
13117100,10021,-0.219849,-0.095215,0.960693,507
13127072,9972,-0.219727,-0.091675,0.960693,505
13137097,10025,-0.219849,-0.089722,0.958618,501
13147100,10003,-0.219604,-0.087646,0.956421,505
13157086,9986,-0.223145,-0.085571,0.953003,505
13167083,9997,-0.221924,-0.091187,0.952759,506
13177097,10014,-0.218994,-0.092407,0.954102,506
13187085,9988,-0.219727,-0.092529,0.953247,503
13197099,10014,-0.219238,-0.094360,0.954102,496
13207100,10001,-0.220337,-0.093994,0.954590,501
13217072,9972,-0.219238,-0.096924,0.957031,497
13227073,10001,-0.219116,-0.098633,0.958374,499
13237076,10003,-0.219360,-0.098022,0.956665,494
13247085,10009,-0.218506,-0.096924,0.957275,500
13257085,10000,-0.218262,-0.097778,0.956543,501
13267079,9994,-0.218994,-0.098022,0.957642,499
13277094,10015,-0.218750,-0.095947,0.956787,490
13287084,9990,-0.218018,-0.093018,0.957642,497
13297101,10017,-0.217285,-0.093506,0.960449,499
13307091,9990,-0.215820,-0.093628,0.961182,499
13317085,9994,-0.216919,-0.093262,0.960205,500
13327074,9989,-0.218018,-0.091797,0.959351,495
13337086,10012,-0.217896,-0.090698,0.963379,493
13347078,9992,-0.216431,-0.090332,0.961304,499
13357093,10015,-0.217651,-0.090332,0.958008,495
13367077,9984,-0.216553,-0.089355,0.956055,500
13377093,10016,-0.215820,-0.088867,0.957397,494
13387109,10016,-0.214844,-0.088501,0.959473,499
13397099,9990,-0.215820,-0.088623,0.961548,495
13407103,10004,-0.218628,-0.089233,0.960937,497
13417073,9970,-0.219116,-0.093506,0.962280,495
13427082,10009,-0.222168,-0.096680,0.961670,494
13437074,9992,-0.224854,-0.100464,0.961182,494
13447095,10021,-0.227783,-0.102661,0.961670,498
13457094,9999,-0.228760,-0.100342,0.964111,498
13467084,9990,-0.227539,-0.097900,0.965454,502
13477092,10008,-0.226807,-0.095581,0.962891,508
13487086,9994,-0.228394,-0.095703,0.961304,504
13497092,10006,-0.227661,-0.097900,0.959839,505
13507071,9979,-0.228882,-0.097046,0.957520,518
13517080,10009,-0.228271,-0.094482,0.957275,513
13527086,10006,-0.228516,-0.093140,0.956055,522
13537072,9986,-0.229370,-0.093506,0.955811,525
13547085,10013,-0.228760,-0.095947,0.955688,523
13557073,9988,-0.227173,-0.098389,0.953735,525
13567075,10002,-0.226929,-0.100952,0.953613,523
13577086,10011,-0.224731,-0.098755,0.953979,527
13587097,10011,-0.224121,-0.095093,0.953613,532
13597090,9993,-0.224487,-0.092529,0.951416,523
13607094,10004,-0.227051,-0.092407,0.949585,523
13617095,10001,-0.225098,-0.090820,0.953979,521
13627072,9977,-0.227173,-0.093140,0.956421,516
13637089,10017,-0.226440,-0.096680,0.955933,511
13647096,10007,-0.227173,-0.097900,0.956909,516
13657090,9994,-0.225586,-0.097778,0.956787,515
13667082,9992,-0.227173,-0.093750,0.957397,511
13677073,9991,-0.227905,-0.093506,0.957886,511
13687079,10006,-0.227905,-0.096558,0.958130,512
13697094,10015,-0.229004,-0.100464,0.958252,505
13707083,9989,-0.229492,-0.102417,0.958496,509
13717080,9997,-0.228149,-0.098755,0.958618,506
13727106,10026,-0.231445,-0.101929,0.958130,504
13737089,9983,-0.230835,-0.100342,0.961304,503
13747085,9996,-0.230469,-0.097534,0.961182,503
13757099,10014,-0.230347,-0.094849,0.959717,501
13767095,9996,-0.231201,-0.090698,0.958496,503
13777093,9998,-0.230957,-0.095459,0.959351,499
13787100,10007,-0.230103,-0.099121,0.963379,501
13797081,9981,-0.230225,-0.098145,0.963135,497
13807078,9997,-0.233032,-0.095093,0.962891,501
13817092,10014,-0.233765,-0.093750,0.962769,503
13827091,9999,-0.232422,-0.093628,0.961182,498
13837081,9990,-0.232666,-0.095459,0.961548,506
13847082,10001,-0.231445,-0.099487,0.960205,504
13857084,10002,-0.231323,-0.102539,0.959839,503
13867086,10002,-0.229492,-0.100098,0.957886,498
13877096,10010,-0.231079,-0.096558,0.955566,504
13887080,9984,-0.226196,-0.102539,0.951782,507
13897098,10018,-0.227661,-0.101929,0.947510,506
13907090,9992,-0.226685,-0.099365,0.947876,504
13917094,10004,-0.225708,-0.096924,0.946533,500
13927077,9983,-0.228516,-0.092407,0.945068,505
13937084,10007,-0.228638,-0.088867,0.951172,499
13947081,9997,-0.228882,-0.090698,0.951172,503
13957097,10016,-0.229370,-0.093262,0.951416,504
13967095,9998,-0.231689,-0.094116,0.947998,503
13977091,9996,-0.232056,-0.093140,0.946899,497
13987100,10009,-0.231323,-0.091187,0.945923,502
13997098,9998,-0.233887,-0.089844,0.946045,500
14007093,9995,-0.235474,-0.091675,0.946533,501
14017074,9981,-0.236206,-0.092285,0.949951,500
14027081,10007,-0.236450,-0.092041,0.951294,499
14037090,10009,-0.238037,-0.091553,0.953369,501
14047115,10025,-0.239990,-0.093872,0.958862,501
14057094,9979,-0.239624,-0.092163,0.960571,501
14067099,10005,-0.239868,-0.092285,0.962036,499
14077074,9975,-0.239868,-0.093018,0.965454,502
14087073,9999,-0.237305,-0.094482,0.968872,505
14097092,10019,-0.235474,-0.096313,0.971069,499
14107084,9992,-0.232178,-0.097900,0.969727,499
14117084,10000,-0.231812,-0.100220,0.968506,507
14127082,9998,-0.228882,-0.099731,0.963867,508
14137074,9992,-0.228027,-0.096191,0.958374,508
14147099,10025,-0.226685,-0.093384,0.954102,507
14157089,9990,-0.227661,-0.089355,0.950806,500
14167075,9986,-0.228760,-0.088379,0.948486,499
14177075,10000,-0.230591,-0.089233,0.950928,505
14187080,10005,-0.228638,-0.091187,0.953247,507
14197083,10003,-0.229370,-0.093872,0.951782,506
14207095,10012,-0.231567,-0.097656,0.947510,507
14217085,9990,-0.231323,-0.100098,0.948975,505
14227085,10000,-0.232910,-0.102417,0.950684,509
14237075,9990,-0.233765,-0.102905,0.950562,514
14247089,10014,-0.235229,-0.100464,0.953735,516
14257094,10005,-0.235229,-0.095581,0.956055,518
14267100,10006,-0.236938,-0.095337,0.958252,519
14277099,9999,-0.234985,-0.097656,0.958252,523
14287080,9981,-0.237671,-0.100586,0.956299,525
14297090,10010,-0.238647,-0.101807,0.955322,521
14307078,9988,-0.237671,-0.103760,0.958252,529
14317076,9998,-0.234375,-0.103516,0.960327,528
14327074,9998,-0.235474,-0.102295,0.957520,522
14337071,9997,-0.235962,-0.101318,0.957397,526
14347093,10022,-0.233521,-0.100586,0.954834,527
14357098,10005,-0.236450,-0.101318,0.955688,525
14367109,10011,-0.235596,-0.099854,0.958984,521
14377074,9965,-0.235474,-0.098022,0.961426,519
14387086,10012,-0.233521,-0.097412,0.961670,518
14397095,10009,-0.232056,-0.097168,0.959229,519
14407096,10001,-0.231567,-0.098633,0.955566,519
14417079,9983,-0.231445,-0.100830,0.951782,518
14427085,10006,-0.228882,-0.102905,0.953857,509
14437080,9995,-0.226562,-0.100098,0.957153,515
14447075,9995,-0.226807,-0.098145,0.958618,515
14457093,10018,-0.228027,-0.097656,0.959839,512
14467097,10004,-0.227905,-0.098022,0.960083,512
14477100,10003,-0.227783,-0.100464,0.964966,504
14487080,9980,-0.228394,-0.102295,0.965698,511
14497075,9995,-0.229980,-0.104858,0.961670,508
14507081,10006,-0.231934,-0.107544,0.959229,513
14517121,10040,-0.230835,-0.105957,0.959961,514
14527092,9971,-0.230835,-0.103271,0.963501,507
14537105,10013,-0.230469,-0.098633,0.965942,512
14547088,9983,-0.232422,-0.098511,0.966309,514
14557074,9986,-0.232666,-0.102661,0.966064,518
14567081,10007,-0.233032,-0.107788,0.965942,516
14577099,10018,-0.233154,-0.109619,0.965454,518
14587079,9980,-0.232178,-0.111938,0.964111,520
14597073,9994,-0.233032,-0.110962,0.960327,519
14607075,10002,-0.231567,-0.109497,0.960205,522
14617080,10005,-0.232788,-0.107178,0.963379,520
14627088,10008,-0.234009,-0.105347,0.963135,519
14637072,9984,-0.236450,-0.103882,0.961792,516
14647078,10006,-0.236816,-0.101440,0.962280,521
14657099,10021,-0.236572,-0.100952,0.961426,512
14667100,10001,-0.237305,-0.100342,0.959106,519
14677093,9993,-0.237305,-0.099121,0.956909,519
14687083,9990,-0.236206,-0.096191,0.955200,520
14697098,10015,-0.234131,-0.092773,0.956055,518
14707084,9986,-0.230591,-0.093994,0.954956,512
14717074,9990,-0.230225,-0.093628,0.952271,519
14727089,10015,-0.230591,-0.094604,0.947632,518
14737095,10006,-0.230835,-0.095459,0.946655,511
14747090,9995,-0.232056,-0.095825,0.942383,513
14757081,9991,-0.232666,-0.093628,0.941406,513
14767093,10012,-0.228638,-0.095581,0.944580,521
14777088,9995,-0.231445,-0.098999,0.942383,523
14787074,9986,-0.230591,-0.102295,0.938599,523
14797087,10013,-0.232056,-0.099487,0.931396,520
14807074,9987,-0.230713,-0.095825,0.926270,521
14817080,10006,-0.227661,-0.100342,0.933350,518
14827091,10011,-0.225342,-0.103394,0.943848,509
14837079,9988,-0.224121,-0.101074,0.953369,511
14847078,9999,-0.216187,-0.095581,0.958374,503
14857075,9997,-0.228149,-0.099487,0.953979,498
14867077,10002,-0.228271,-0.113770,0.957275,489
14877073,9996,-0.224121,-0.114502,0.962769,488
14887077,10004,-0.222412,-0.108276,0.965942,482
14897086,10009,-0.224609,-0.101929,0.966919,484
14907073,9987,-0.225098,-0.093872,0.965088,476
14917089,10016,-0.223511,-0.099121,0.962646,471
14927097,10008,-0.224609,-0.103516,0.960205,466
14937095,9998,-0.224487,-0.104004,0.964355,466
14947086,9991,-0.222046,-0.099731,0.965088,476
14957085,9999,-0.224365,-0.099121,0.963257,480
14967084,9999,-0.226685,-0.089966,0.960693,479
14977091,10007,-0.227173,-0.083862,0.959351,484
14987099,10008,-0.228760,-0.081299,0.958496,483
14997075,9976,-0.230713,-0.083984,0.959106,492
15007098,10023,-0.230591,-0.085449,0.958740,497
15017072,9974,-0.233154,-0.089233,0.955444,503
15027071,9999,-0.231445,-0.093384,0.954102,507
15037092,10021,-0.232788,-0.093506,0.954102,510
15047095,10003,-0.232666,-0.092529,0.958130,514
15057100,10005,-0.231934,-0.092529,0.960205,519
15067082,9982,-0.232300,-0.093628,0.960327,521
15077078,9996,-0.234375,-0.096191,0.956421,521
15087100,10022,-0.237305,-0.094360,0.951904,515
15097100,10000,-0.237427,-0.090942,0.949585,526
15107080,9980,-0.235840,-0.087158,0.950195,518
15117082,10002,-0.237915,-0.083618,0.952515,523
15127079,9997,-0.237793,-0.082275,0.958374,524
15137100,10021,-0.236938,-0.082397,0.959106,526
15147077,9977,-0.238647,-0.086060,0.963013,526
15157095,10018,-0.237549,-0.088135,0.963623,525
15167073,9978,-0.239746,-0.089111,0.963135,521
15177096,10023,-0.238892,-0.088867,0.964722,524
15187103,10007,-0.233765,-0.087646,0.965210,522
15197072,9969,-0.231689,-0.086670,0.965942,527
15207077,10005,-0.230347,-0.089111,0.967773,530
15217091,10014,-0.229370,-0.092041,0.966431,528
15227084,9993,-0.227173,-0.095947,0.964966,525
15237075,9991,-0.226074,-0.099365,0.962280,525
15247078,10003,-0.225952,-0.100342,0.961182,524
15257092,10014,-0.225342,-0.098877,0.964233,525
15267093,10001,-0.226318,-0.095093,0.963013,524
15277082,9989,-0.229980,-0.091553,0.964600,525
15287076,9994,-0.229492,-0.084839,0.968506,527
15297099,10023,-0.232056,-0.084595,0.968628,522
15307097,9998,-0.232056,-0.084106,0.969849,518
15317100,10003,-0.230347,-0.087158,0.970581,524
15327078,9978,-0.229980,-0.088989,0.969360,516
15337083,10005,-0.229614,-0.089478,0.970825,524
15347111,10028,-0.226685,-0.092529,0.970581,525
15357078,9967,-0.227295,-0.090332,0.969727,517
15367111,10033,-0.226685,-0.088257,0.970703,525
15377093,9982,-0.226929,-0.086060,0.969849,526
15387075,9982,-0.226074,-0.084351,0.969238,525
15397097,10022,-0.224365,-0.082642,0.965210,526
15407086,9989,-0.226807,-0.081055,0.964722,518
15417094,10008,-0.226562,-0.077515,0.966187,524
15427089,9995,-0.226440,-0.072876,0.966675,523
15437074,9985,-0.226929,-0.070435,0.966187,518
15447099,10025,-0.225220,-0.071655,0.960571,517
15457073,9974,-0.222900,-0.080444,0.958252,517
15467095,10022,-0.224243,-0.084595,0.956665,514
15477073,9978,-0.224121,-0.083374,0.957031,515
15487093,10020,-0.222534,-0.082153,0.959106,515
15497072,9979,-0.223511,-0.080811,0.959351,507
15507106,10034,-0.224243,-0.080688,0.955322,512
15517071,9965,-0.225098,-0.084839,0.954956,512
15527092,10021,-0.223022,-0.085937,0.953613,510
15537090,9998,-0.224609,-0.085571,0.952515,511
15547078,9988,-0.224365,-0.086548,0.950073,505
15557097,10019,-0.228027,-0.083130,0.943604,507
15567092,9995,-0.229370,-0.081543,0.943481,509
15577071,9979,-0.228882,-0.083130,0.942627,505
15587079,10008,-0.231812,-0.083740,0.941528,507
15597096,10017,-0.232910,-0.081543,0.940430,503
15607086,9990,-0.235352,-0.081299,0.941284,510
15617097,10011,-0.234741,-0.087280,0.943115,508
15627082,9985,-0.238037,-0.088989,0.940552,510
15637091,10009,-0.239868,-0.086792,0.940186,501
15647093,10002,-0.241455,-0.085327,0.941406,501
15657086,9993,-0.242065,-0.083984,0.945190,507
15667081,9995,-0.244507,-0.078369,0.945679,505
15677075,9994,-0.243530,-0.081055,0.944458,510
15687087,10012,-0.243164,-0.081177,0.946045,514
15697081,9994,-0.242798,-0.078857,0.946167,501
15707084,10003,-0.243408,-0.074951,0.944580,511
15717078,9994,-0.244385,-0.070312,0.947876,503
15727098,10020,-0.242676,-0.066895,0.953979,504
15737077,9979,-0.242920,-0.069946,0.956055,509
15747097,10020,-0.241821,-0.072754,0.958130,506
15757098,10001,-0.239624,-0.074219,0.958374,503
15767085,9987,-0.240601,-0.075806,0.958252,501
15777084,9999,-0.240479,-0.072144,0.960449,505
15787074,9990,-0.240845,-0.070068,0.959595,508
15797077,10003,-0.240356,-0.069458,0.960205,505
15807095,10018,-0.240723,-0.070801,0.962402,514
15817094,9999,-0.241455,-0.073486,0.961914,515
15827097,10003,-0.240845,-0.078125,0.963989,512
15837100,10003,-0.243042,-0.081055,0.964355,520
15847115,10015,-0.242432,-0.079834,0.965088,516
15857072,9957,-0.241211,-0.079834,0.968018,522
15867078,10006,-0.240845,-0.080078,0.969604,529
15877071,9993,-0.241455,-0.079468,0.972412,530
15887093,10022,-0.240234,-0.082397,0.973267,530
15897090,9997,-0.240112,-0.082886,0.973511,533
15907088,9998,-0.239502,-0.082764,0.972046,527
15917092,10004,-0.238892,-0.080933,0.969482,526
15927080,9988,-0.239990,-0.077393,0.969238,530
15937075,9995,-0.237305,-0.066895,0.968140,532
15947076,10001,-0.238037,-0.065796,0.967407,526
15957096,10020,-0.237183,-0.067383,0.966919,524
15967097,10001,-0.237549,-0.069702,0.967773,529
15977124,10027,-0.233887,-0.071533,0.965210,528
15987074,9950,-0.234863,-0.074463,0.959473,526
15997071,9997,-0.232910,-0.071777,0.953735,523
16007084,10013,-0.232544,-0.068970,0.952026,523
16017089,10005,-0.231812,-0.065918,0.948730,523
16027071,9982,-0.234253,-0.064941,0.945068,517
16037082,10011,-0.234009,-0.064941,0.945557,512
16047091,10009,-0.233398,-0.068359,0.943481,518
16057079,9988,-0.236084,-0.066895,0.942017,512
16067074,9995,-0.236694,-0.065063,0.941162,515
16077094,10020,-0.238647,-0.061401,0.940430,514
16087081,9987,-0.238647,-0.062256,0.942749,508
16097083,10002,-0.238281,-0.069336,0.943481,505
16107088,10005,-0.242310,-0.072632,0.945923,511
16117076,9988,-0.242676,-0.075195,0.947021,510
16127079,10003,-0.242065,-0.075806,0.950317,505
16137072,9993,-0.239746,-0.075928,0.953369,510
16147090,10018,-0.241211,-0.074097,0.954224,510
16157083,9993,-0.241699,-0.069458,0.954102,502
16167079,9996,-0.242432,-0.068848,0.953857,508
16177079,10000,-0.244263,-0.068848,0.955200,509
16187091,10012,-0.245605,-0.070557,0.955566,508
16197091,10000,-0.245483,-0.069214,0.959106,506
16207098,10007,-0.246460,-0.063110,0.958496,508
16217094,9996,-0.246948,-0.065552,0.957275,505
16227083,9989,-0.246216,-0.065430,0.957153,497
16237099,10016,-0.246582,-0.064575,0.958496,495
16247084,9985,-0.246826,-0.064453,0.958496,505
16257095,10011,-0.248779,-0.064575,0.958618,502
16267091,9996,-0.249756,-0.062378,0.956055,498
16277095,10004,-0.251831,-0.062256,0.956177,506
16287098,10003,-0.252686,-0.062866,0.954834,497
16297090,9992,-0.252441,-0.063232,0.953369,506
16307102,10012,-0.255493,-0.063477,0.951050,505
16317076,9974,-0.255737,-0.064087,0.949463,504
16327090,10014,-0.255005,-0.063354,0.951416,506
16337101,10011,-0.255859,-0.063354,0.952881,497
16347082,9981,-0.257324,-0.064453,0.951294,504
16357084,10002,-0.257446,-0.067017,0.952393,505
16367071,9987,-0.257080,-0.070923,0.950195,502
16377083,10012,-0.254395,-0.070435,0.948608,500
16387092,10009,-0.252930,-0.069946,0.950562,496
16397096,10004,-0.251831,-0.069946,0.950684,500
16407094,9998,-0.250366,-0.068237,0.953125,503
16417072,9978,-0.250244,-0.066895,0.953979,501
16427073,10001,-0.248413,-0.070190,0.951416,505
16437118,10045,-0.248169,-0.068237,0.953125,503
16447100,9982,-0.246460,-0.066040,0.953125,502
16457085,9985,-0.245117,-0.063721,0.954834,509
16467101,10016,-0.245850,-0.063599,0.956299,501
16477094,9993,-0.244019,-0.064697,0.959229,500
16487079,9985,-0.242676,-0.063599,0.957886,497
16497089,10010,-0.243164,-0.063599,0.958740,503
16507082,9993,-0.240845,-0.064575,0.957886,502
16517088,10006,-0.241455,-0.065186,0.956177,501
16527098,10010,-0.241821,-0.063477,0.955933,501
16537100,10002,-0.240601,-0.064331,0.955322,502
16547094,9994,-0.241455,-0.065308,0.956299,497
16557077,9983,-0.239990,-0.067993,0.956299,502
16567096,10019,-0.239258,-0.068970,0.955200,494
16577088,9992,-0.240967,-0.071045,0.953979,503
16587124,10036,-0.243164,-0.071411,0.950195,504
16597094,9970,-0.243896,-0.069336,0.948975,504
16607082,9988,-0.245728,-0.067505,0.949829,511
16617081,9999,-0.247314,-0.066040,0.953125,511
16627090,10009,-0.246094,-0.065308,0.953491,516
16637097,10007,-0.248413,-0.067749,0.953735,520
16647095,9998,-0.248535,-0.069336,0.954102,520
16657091,9996,-0.248901,-0.070068,0.953735,518
16667097,10006,-0.250000,-0.068848,0.954346,526
16677084,9987,-0.251099,-0.068115,0.954224,524
16687080,9996,-0.251465,-0.067749,0.954468,531
16697091,10011,-0.253174,-0.070190,0.957397,529
16707079,9988,-0.250977,-0.067993,0.957153,534
16717094,10015,-0.250244,-0.066895,0.957886,531
16727094,10000,-0.250366,-0.069824,0.956055,530
16737089,9995,-0.251709,-0.072266,0.953979,526
16747089,10000,-0.250977,-0.078369,0.949707,519
16757094,10005,-0.249878,-0.080200,0.949829,524
16767103,10009,-0.250122,-0.080811,0.949829,523
16777101,9998,-0.251831,-0.081543,0.949707,521
16787096,9995,-0.251465,-0.080444,0.949341,519
16797076,9980,-0.250610,-0.078369,0.950684,520
16807090,10014,-0.252075,-0.076172,0.951416,509
16817071,9981,-0.252075,-0.072998,0.955811,509
16827098,10027,-0.250488,-0.070312,0.958984,516
16837097,9999,-0.250732,-0.070190,0.961304,513
16847089,9992,-0.250122,-0.069336,0.959106,512
16857071,9982,-0.248413,-0.071411,0.966309,513
16867094,10023,-0.250977,-0.071167,0.963257,518
16877098,10004,-0.251953,-0.069092,0.964844,520
16887096,9998,-0.248047,-0.067505,0.968506,520
16897090,9994,-0.247192,-0.067505,0.968872,513
16907086,9996,-0.246582,-0.070923,0.970337,514
16917082,9996,-0.247314,-0.070557,0.970215,517
16927103,10021,-0.247681,-0.068481,0.968872,520
16937079,9976,-0.250122,-0.065796,0.966309,524
16947081,10002,-0.249512,-0.061035,0.964600,525
16958835,11754,-0.248047,-0.067261,0.962158,522
16967096,8261,-0.250488,-0.075317,0.957764,530
16977080,9984,-0.255005,-0.081665,0.953247,533
16987094,10014,-0.259644,-0.084351,0.951538,534
16997090,9996,-0.267456,-0.084229,0.950073,534
17007079,9989,-0.270020,-0.079834,0.950317,538
17017100,10021,-0.267212,-0.069580,0.949829,538
17027093,9993,-0.269653,-0.069702,0.948975,539
17037094,10001,-0.270264,-0.073242,0.945435,533
17047072,9978,-0.268677,-0.075195,0.944336,540
17057079,10007,-0.269653,-0.075073,0.942139,540
17067090,10011,-0.270874,-0.074097,0.942505,537
17077100,10010,-0.268433,-0.069214,0.946655,544
17087090,9990,-0.268066,-0.069214,0.950195,546
17097074,9984,-0.265869,-0.072632,0.950684,542
17107093,10019,-0.266235,-0.077881,0.951050,544
17117097,10004,-0.266235,-0.082764,0.948975,543
17127073,9976,-0.260986,-0.084229,0.951904,538
17137096,10023,-0.255615,-0.084351,0.953491,537
17147083,9987,-0.250732,-0.079346,0.953613,530
17157093,10010,-0.248413,-0.079590,0.952881,531
17167096,10003,-0.244019,-0.082520,0.949463,530
17177076,9980,-0.243530,-0.068604,0.945801,528
17187082,10006,-0.244507,-0.059448,0.945557,531
17197096,10014,-0.245850,-0.052002,0.945312,532
17207101,10005,-0.244385,-0.048706,0.950073,532
17217082,9981,-0.242065,-0.051025,0.950195,533
17227091,10009,-0.241089,-0.057129,0.949707,528
17237087,9996,-0.245117,-0.067383,0.951538,534
17247099,10012,-0.244263,-0.067139,0.950562,534
17258606,11507,-0.246094,-0.067749,0.951538,534
17267100,8494,-0.244263,-0.069336,0.952393,530
17277077,9977,-0.247192,-0.073608,0.956421,526
17287077,10000,-0.244873,-0.078613,0.958862,514
17297083,10006,-0.244385,-0.078247,0.954590,519
17307088,10005,-0.247192,-0.076660,0.952271,512
17317088,10000,-0.246948,-0.074951,0.950928,507
17327075,9987,-0.245361,-0.073853,0.951050,506
17337084,10009,-0.246704,-0.072144,0.949341,505
17347073,9989,-0.250122,-0.068237,0.946045,502
17357099,10026,-0.254150,-0.069092,0.944946,499
17367101,10002,-0.255249,-0.071899,0.946411,500
17377093,9992,-0.255493,-0.072754,0.951538,501
17387114,10021,-0.256836,-0.072998,0.954468,505
17397087,9973,-0.259766,-0.076660,0.952393,507
17407075,9988,-0.261230,-0.077393,0.951782,501
17417074,9999,-0.259521,-0.076416,0.950439,508
17427075,10001,-0.258423,-0.077759,0.950562,507
17437097,10022,-0.258423,-0.079102,0.951904,511
17447082,9985,-0.255615,-0.082642,0.953125,506
17457095,10013,-0.254272,-0.083862,0.955688,506
17467071,9976,-0.251709,-0.082031,0.956177,503
17477087,10016,-0.252686,-0.080444,0.957642,504
17487083,9996,-0.251465,-0.079834,0.956177,512
17497089,10006,-0.249878,-0.078125,0.956909,510
17507095,10006,-0.247192,-0.073730,0.952881,513
17517094,9999,-0.247192,-0.070557,0.951050,519
17527115,10021,-0.247803,-0.066406,0.947510,527
17537074,9959,-0.245605,-0.058838,0.949829,529
17547074,10000,-0.243042,-0.051880,0.957031,522
17557084,10010,-0.244751,-0.048584,0.951782,533
17567083,9999,-0.246216,-0.052368,0.948853,537
17577095,10012,-0.247559,-0.033569,0.945801,539
17587085,9990,-0.251831,-0.051392,0.947510,547
17597079,9994,-0.248291,-0.080078,0.945923,552
17607096,10017,-0.249878,-0.088745,0.942749,549
17617072,9976,-0.254761,-0.081543,0.942505,563
17627094,10022,-0.257568,-0.060425,0.941772,566
17637084,9990,-0.262573,-0.044678,0.944702,566
17647076,9992,-0.264038,-0.046509,0.949341,570
17657096,10020,-0.262451,-0.056274,0.953369,563
17667098,10002,-0.260620,-0.073608,0.958862,567
17677074,9976,-0.257202,-0.073608,0.956421,560
17687085,10011,-0.256836,-0.071289,0.954834,556
17697088,10003,-0.255859,-0.071899,0.956665,548
17707079,9991,-0.253540,-0.072144,0.956665,531
17717087,10008,-0.254150,-0.072266,0.957764,532
17727099,10012,-0.249756,-0.072510,0.957764,518
17737084,9985,-0.248413,-0.067383,0.957153,515
17747083,9999,-0.249023,-0.058472,0.956055,519
17757099,10016,-0.250244,-0.054077,0.956543,516
17767090,9991,-0.248413,-0.055420,0.957642,513
17777074,9984,-0.249878,-0.055298,0.954468,512
17787088,10014,-0.249146,-0.054321,0.957642,510
17797084,9996,-0.249146,-0.053345,0.956787,507
17807098,10014,-0.250854,-0.051392,0.956299,508
17817083,9985,-0.253174,-0.051514,0.954346,508
17827082,9999,-0.255371,-0.056885,0.955444,501
17837122,10040,-0.254761,-0.056274,0.954956,501
17847094,9972,-0.256592,-0.055786,0.956421,506
17857092,9998,-0.254639,-0.053833,0.959351,510
17867088,9996,-0.254639,-0.052979,0.958862,505
17877092,10004,-0.254150,-0.052124,0.958252,505
17887072,9980,-0.252075,-0.056763,0.955811,507
17897074,10002,-0.251221,-0.058350,0.953979,510
17907096,10022,-0.251831,-0.057007,0.953003,511
17917083,9987,-0.250732,-0.058472,0.950928,511
17927086,10003,-0.249756,-0.060547,0.950317,510
17937084,9998,-0.244141,-0.057129,0.950928,512
17947089,10005,-0.240845,-0.057983,0.955811,508
17957099,10010,-0.238525,-0.059082,0.962280,509
17967075,9976,-0.233276,-0.056030,0.968140,507
17977089,10014,-0.232666,-0.056396,0.976196,508
17987072,9983,-0.223389,-0.054687,0.984863,507
17997098,10026,-0.223755,-0.071411,0.987549,503
18007100,10002,-0.215820,-0.079102,0.989014,502
18017104,10004,-0.213623,-0.073242,0.989746,496
18027091,9987,-0.211182,-0.064819,0.988037,497
18037077,9986,-0.207031,-0.053101,0.987671,494
18047090,10013,-0.198975,-0.046753,0.987183,493
18057086,9996,-0.193481,-0.051147,0.988281,492
18067090,10004,-0.195435,-0.054199,0.982788,489
18077078,9988,-0.195435,-0.055298,0.978760,487
18087080,10002,-0.195312,-0.055176,0.973877,483
18097096,10016,-0.197632,-0.052490,0.965942,489
18107090,9994,-0.199097,-0.049805,0.965454,479
18117081,9991,-0.200195,-0.043823,0.965332,479
18127098,10017,-0.200317,-0.039795,0.966064,484
18137075,9977,-0.199951,-0.043213,0.963501,487
18147077,10002,-0.198486,-0.045532,0.964233,484
18157098,10021,-0.199341,-0.049561,0.959595,481
18167071,9973,-0.199585,-0.049194,0.959595,490
18177076,10005,-0.200684,-0.045532,0.960327,494
18187093,10017,-0.199829,-0.042236,0.962769,496
18197091,9998,-0.201172,-0.041016,0.962280,498
18207080,9989,-0.202759,-0.036011,0.963989,499
18217084,10004,-0.203857,-0.032715,0.961670,495
18227073,9989,-0.203125,-0.030273,0.961304,505
18237074,10001,-0.202148,-0.026245,0.959351,508
18247095,10021,-0.203369,-0.023193,0.960693,508
18257099,10004,-0.200195,-0.020996,0.970459,510
18267075,9976,-0.200562,-0.021973,0.973633,501
18277087,10012,-0.198730,-0.025879,0.974609,501
18287075,9988,-0.197021,-0.029541,0.977539,506
18297088,10013,-0.193848,-0.031250,0.979126,504
18307077,9989,-0.192383,-0.031372,0.980469,504
18317115,10038,-0.190063,-0.031616,0.981567,503
18327081,9966,-0.187378,-0.033569,0.979370,506
18337098,10017,-0.186890,-0.033569,0.973267,505
18347091,9993,-0.187256,-0.033936,0.969238,504
18357093,10002,-0.185791,-0.033325,0.965820,507
18367084,9991,-0.187866,-0.029907,0.952148,507
18377084,10000,-0.188232,-0.030029,0.946045,508
18387081,9997,-0.188354,-0.030518,0.941772,510
18397089,10008,-0.189453,-0.033569,0.937134,509
18407076,9987,-0.190796,-0.034912,0.938721,513
18417096,10020,-0.189575,-0.032959,0.945557,507
18427074,9978,-0.191650,-0.042969,0.948486,514
18437096,10022,-0.190918,-0.046021,0.950317,514
18447102,10006,-0.189941,-0.049194,0.953857,521
18457076,9974,-0.187256,-0.049316,0.957642,515
18467080,10004,-0.187500,-0.047607,0.961060,521
18477090,10010,-0.185913,-0.038452,0.958374,523
18487096,10006,-0.184937,-0.032227,0.959839,526
18497071,9975,-0.183960,-0.028931,0.960571,526
18507095,10024,-0.186401,-0.028931,0.961548,526
18517073,9978,-0.186890,-0.029297,0.965942,528
18527078,10005,-0.189087,-0.021851,0.965454,520
18537071,9993,-0.193848,-0.020752,0.964355,526
18547096,10025,-0.195801,-0.023071,0.964722,527
18557096,10000,-0.198120,-0.021606,0.965454,523
18567076,9980,-0.200195,-0.017578,0.968750,526
18577098,10022,-0.200562,-0.014038,0.971558,523
18587099,10001,-0.201538,-0.009399,0.975830,525
18597089,9990,-0.202759,-0.012329,0.974976,515
18607089,10000,-0.205322,-0.018066,0.974243,520
18617073,9984,-0.205322,-0.021362,0.979004,517
18627090,10017,-0.202026,-0.023682,0.980469,518
18637072,9982,-0.200439,-0.027588,0.978882,514
18647091,10019,-0.197998,-0.028931,0.979126,509
18657084,9993,-0.197632,-0.032104,0.977173,508
18667092,10008,-0.197876,-0.034912,0.976685,504
18677072,9980,-0.196777,-0.034668,0.974487,498
18687079,10007,-0.197388,-0.033203,0.938965,502
18697077,9998,-0.197021,-0.029175,0.961182,497
18707073,9996,-0.195801,-0.027100,0.957642,496
18717078,10005,-0.194824,-0.025757,0.954590,492
18727093,10015,-0.191040,-0.022949,0.952148,497
18737089,9996,-0.192017,-0.023437,0.947388,496
18747096,10007,-0.191284,-0.026489,0.948364,490
18757077,9981,-0.191284,-0.028687,0.948486,497
18767116,10039,-0.190918,-0.028564,0.948608,495
18777078,9962,-0.190430,-0.031494,0.950928,489
18787095,10017,-0.191040,-0.033203,0.953247,498
18797103,10008,-0.189575,-0.033936,0.959595,493
18807084,9981,-0.193848,-0.036011,0.964355,497
18817088,10004,-0.194580,-0.038208,0.967041,497
18827087,9999,-0.193848,-0.040039,0.969727,497
18837093,10006,-0.195923,-0.041626,0.972778,503
18847097,10004,-0.195435,-0.039795,0.975098,504
18857085,9988,-0.196533,-0.031738,0.974365,498
18867095,10010,-0.195923,-0.027344,0.971313,503
18877098,10003,-0.197632,-0.025024,0.971436,502
18887087,9989,-0.198120,-0.023804,0.971802,506
18897078,9991,-0.199341,-0.023926,0.972412,504
18907099,10021,-0.202271,-0.023804,0.972290,508
18917089,9990,-0.202759,-0.025024,0.971191,507
18927091,10002,-0.203125,-0.026001,0.969604,512
18937074,9983,-0.201660,-0.025269,0.968506,512
18947106,10032,-0.202026,-0.027466,0.968262,514
18957094,9988,-0.199951,-0.028931,0.970215,512
18967072,9978,-0.198486,-0.030518,0.970703,509
18977075,10003,-0.199341,-0.033203,0.967163,512
18987080,10005,-0.198975,-0.034912,0.966675,507
18997096,10016,-0.197144,-0.039795,0.968872,510
19007096,10000,-0.198364,-0.040039,0.968994,506
19017085,9989,-0.199341,-0.035156,0.970093,503
19027071,9986,-0.199219,-0.035400,0.972290,507
19037076,10005,-0.200195,-0.032104,0.970337,504
19047082,10006,-0.202515,-0.033325,0.968994,505
19057087,10005,-0.202393,-0.043091,0.964478,511
19067094,10007,-0.202393,-0.045166,0.965576,511
19077086,9992,-0.202271,-0.042236,0.967163,512
19087096,10010,-0.202148,-0.039307,0.968872,509
19097082,9986,-0.203491,-0.035522,0.966919,510
19107092,10010,-0.203003,-0.035522,0.967285,510
19117093,10001,-0.201782,-0.038330,0.965820,508
19127073,9980,-0.199951,-0.039673,0.966553,508
19137096,10023,-0.198364,-0.037109,0.969727,505
19147081,9985,-0.197632,-0.033203,0.970825,503
19157090,10009,-0.197632,-0.031494,0.971802,502
19167099,10009,-0.196533,-0.033081,0.972656,500
19177098,9999,-0.195190,-0.029419,0.972656,497
19187075,9977,-0.196777,-0.024658,0.973999,495
19197089,10014,-0.195923,-0.022095,0.973267,500
19207075,9986,-0.196045,-0.021606,0.973389,489
19217072,9997,-0.196777,-0.022217,0.973633,503
19227085,10013,-0.195435,-0.021484,0.969849,501
19237110,10025,-0.197266,-0.022339,0.969849,507
19247083,9973,-0.196655,-0.024292,0.968628,502
19257079,9996,-0.196045,-0.028687,0.968506,511
19267086,10007,-0.196777,-0.030029,0.966675,512
19277074,9988,-0.197144,-0.032471,0.966553,510
19287100,10026,-0.196167,-0.036865,0.966431,518
19297077,9977,-0.197021,-0.037354,0.965820,518
19307085,10008,-0.195679,-0.038330,0.964722,523
19317074,9989,-0.195435,-0.038818,0.961426,518
19327086,10012,-0.194092,-0.038696,0.960571,524
19337072,9986,-0.196167,-0.036743,0.958252,527
19347071,9999,-0.196655,-0.038696,0.958008,527
19357085,10014,-0.196167,-0.037109,0.958252,526
19367086,10001,-0.197144,-0.033936,0.956543,525
19377111,10025,-0.199219,-0.031372,0.956421,522
19387074,9963,-0.200439,-0.031250,0.956665,520
19397092,10018,-0.201416,-0.032837,0.961670,518
19407078,9986,-0.202271,-0.034546,0.962036,507
19417100,10022,-0.202637,-0.036499,0.961670,511
19427089,9989,-0.203369,-0.037476,0.964111,510
19437086,9997,-0.202271,-0.037109,0.967529,509
19447076,9990,-0.199219,-0.037476,0.972168,508
19457087,10011,-0.199341,-0.038696,0.972656,507
19467094,10007,-0.198486,-0.040771,0.973267,497
19477085,9991,-0.199097,-0.043579,0.972412,501
19487077,9992,-0.197754,-0.043579,0.974121,501
19497078,10001,-0.195312,-0.038696,0.973877,501
19507098,10020,-0.195435,-0.036987,0.971436,500
19517082,9984,-0.194092,-0.034302,0.969482,494
19527116,10034,-0.193359,-0.034058,0.968018,499
19537100,9984,-0.193726,-0.032349,0.966797,497
19547074,9974,-0.193481,-0.029419,0.966064,491
19557099,10025,-0.193726,-0.023193,0.963867,498
19567081,9982,-0.192871,-0.022461,0.963013,499
19577083,10002,-0.192261,-0.023560,0.962524,502
19587094,10011,-0.192017,-0.024902,0.961792,501
19597074,9980,-0.194092,-0.026001,0.961914,501
19607075,10001,-0.195801,-0.030762,0.961670,498
19617076,10001,-0.196777,-0.034790,0.961914,505
19627079,10003,-0.197754,-0.037354,0.962646,508
19637079,10000,-0.199097,-0.037109,0.963745,508
19647099,10020,-0.199463,-0.038330,0.964844,504
19657108,10009,-0.201172,-0.038086,0.965820,503
19667085,9977,-0.202515,-0.043457,0.964966,504
19677075,9990,-0.202148,-0.045410,0.966064,498
19687087,10012,-0.202393,-0.046509,0.966309,503
19697100,10013,-0.200562,-0.045288,0.966797,494
19707071,9971,-0.201538,-0.043335,0.965210,504
19717083,10012,-0.200562,-0.042725,0.965088,505
19727075,9992,-0.199341,-0.043213,0.966309,498
19737094,10019,-0.200562,-0.043213,0.965576,499
19747074,9980,-0.201050,-0.043091,0.966553,500
19757073,9999,-0.200562,-0.044678,0.969360,500
19767092,10019,-0.201172,-0.042114,0.963379,498
19777076,9984,-0.202637,-0.045654,0.962524,498
19787073,9997,-0.200195,-0.051270,0.963013,497
19797098,10025,-0.198975,-0.047852,0.964600,499
19807095,9997,-0.197754,-0.040405,0.967041,498
19817077,9982,-0.198486,-0.036621,0.969116,499
19827075,9998,-0.199463,-0.033936,0.968506,498
19837077,10002,-0.200317,-0.029419,0.969971,499
19847074,9997,-0.199585,-0.024902,0.973145,498
19857093,10019,-0.201538,-0.020508,0.974487,495
19867098,10005,-0.203979,-0.023560,0.973267,499
19877080,9982,-0.202026,-0.017090,0.972412,503
19887091,10011,-0.203003,-0.021240,0.977051,500
19897087,9996,-0.201904,-0.023926,0.978394,502
19907076,9989,-0.202881,-0.024658,0.976562,497
19918873,11797,-0.201538,-0.032959,0.972290,502
19927086,8213,0.000000,0.000000,0.000000,497
19937082,9996,-0.204102,-0.041260,0.969971,501
19947096,10014,-0.205444,-0.043335,0.970215,502
19957080,9984,-0.205688,-0.048340,0.969238,503
19967088,10008,-0.209106,-0.052368,0.965942,504
19977098,10010,-0.207886,-0.053955,0.963745,500
19987090,9992,-0.209229,-0.056641,0.961060,507
19997072,9982,-0.209229,-0.057983,0.958740,512
20007079,10007,-0.210937,-0.061035,0.957764,512
20017092,10013,-0.209106,-0.062012,0.958984,512
20027096,10004,-0.209106,-0.057495,0.961792,519
20037078,9982,-0.208496,-0.051147,0.960937,521
20047089,10011,-0.212524,-0.047729,0.960937,524
20057100,10011,-0.213501,-0.047119,0.960205,526
20067072,9972,-0.215454,-0.049683,0.961304,525
20077091,10019,-0.215088,-0.048218,0.961914,529
20087086,9995,-0.216919,-0.044189,0.962402,525
20097085,9999,-0.215454,-0.041748,0.960937,524
20107106,10021,-0.214844,-0.040649,0.959473,520
20117097,9991,-0.212891,-0.042480,0.960571,521
20127081,9984,-0.213257,-0.044678,0.960571,517
20137101,10020,-0.213135,-0.046387,0.962158,522
20147082,9981,-0.215332,-0.045532,0.965332,509
20157082,10000,-0.214600,-0.043945,0.964355,507
20167080,9998,-0.214844,-0.039551,0.963257,504
20177079,9999,-0.213867,-0.035645,0.964844,508
20187094,10015,-0.210937,-0.032959,0.964966,504
20197094,10000,-0.211670,-0.032227,0.967407,501
20207080,9986,-0.210083,-0.038330,0.968750,508
20217076,9996,-0.208374,-0.037842,0.969360,508
20227079,10003,-0.208496,-0.039551,0.968628,508
20237087,10008,-0.210327,-0.039673,0.967896,506
20247075,9988,-0.210937,-0.039917,0.969360,503
20257090,10015,-0.211426,-0.043823,0.968140,503
20267096,10006,-0.212402,-0.046021,0.966919,507
20277093,9997,-0.211914,-0.045044,0.966431,505
20287089,9996,-0.212280,-0.042725,0.966675,510
20297090,10001,-0.209595,-0.035156,0.965576,504
20307080,9990,-0.211426,-0.055664,0.958740,508
20317100,10020,-0.211548,-0.053223,0.959106,506
20327086,9986,-0.210815,-0.048462,0.960083,502
20337098,10012,-0.211426,-0.048340,0.961426,499
20347077,9979,-0.212402,-0.045654,0.961182,503
20357092,10015,-0.212891,-0.046997,0.961182,505
20367074,9982,-0.211670,-0.057251,0.958008,504
20377089,10015,-0.211670,-0.056396,0.958252,496
20387077,9988,-0.210693,-0.052979,0.959961,498
20397085,10008,-0.209229,-0.048584,0.958130,497
20407106,10021,-0.212402,-0.047119,0.962891,505
20417090,9984,-0.209717,-0.045654,0.961426,507
20427096,10006,-0.210083,-0.044800,0.960693,506
20437073,9977,-0.210815,-0.047241,0.960693,506
20447094,10021,-0.211060,-0.050293,0.962524,507
20457083,9989,-0.209106,-0.049805,0.966187,501
20467098,10015,-0.209839,-0.047974,0.974854,503
20477092,9994,-0.208496,-0.044067,0.975098,501
20487096,10004,-0.210571,-0.043335,0.973389,496
20497085,9989,-0.210449,-0.042603,0.968872,504
20507074,9989,-0.207275,-0.035889,0.967407,495
20517090,10016,-0.207520,-0.040161,0.965942,499
20527099,10009,-0.204224,-0.059692,0.961670,497
20537099,10000,-0.202393,-0.061523,0.962524,493
20547077,9978,-0.203857,-0.058960,0.962036,503
20557100,10023,-0.206421,-0.054443,0.962769,504
20567075,9975,-0.208374,-0.048096,0.964722,503
20577086,10011,-0.210815,-0.048584,0.965698,504
20587073,9987,-0.211304,-0.052612,0.963379,506
20597096,10023,-0.213135,-0.054687,0.964600,504
20607097,10001,-0.212280,-0.052368,0.964355,505
20617071,9974,-0.211304,-0.050415,0.967407,505
20629258,12187,-0.208374,-0.053467,0.972168,503
20637093,7835,-0.207886,-0.056274,0.969360,504
20647088,9995,-0.207153,-0.057495,0.969238,505
20657083,9995,-0.207520,-0.058594,0.966919,501
20667071,9988,-0.205322,-0.055664,0.963257,503
20677071,10000,-0.207275,-0.051880,0.959717,500
20687091,10020,-0.203979,-0.049927,0.960449,501
20697114,10023,-0.203125,-0.051880,0.959351,500
20707073,9959,-0.204712,-0.053955,0.960083,506
20717081,10008,-0.204224,-0.055420,0.958130,505
20727101,10020,-0.205078,-0.057129,0.957764,505
20737094,9993,-0.204102,-0.056030,0.963745,507
20747097,10003,-0.206665,-0.055298,0.962280,512
20757100,10003,-0.207275,-0.056274,0.960083,512
20767099,9999,-0.208984,-0.057617,0.957397,511
20777074,9975,-0.210205,-0.061523,0.953979,519
20787072,9998,-0.210571,-0.063477,0.958130,521
20797088,10016,-0.210449,-0.056519,0.962402,525
20807077,9989,-0.209106,-0.055420,0.963135,522
20818500,11423,-0.208008,-0.053589,0.960327,525
20827080,8580,-0.209839,-0.051514,0.958130,525
20837078,9998,-0.209473,-0.052856,0.961304,523
20847113,10035,-0.208496,-0.050537,0.965332,525
20857081,9968,-0.208984,-0.048218,0.966187,524
20867098,10017,-0.209961,-0.048096,0.966431,523
20877088,9990,-0.210083,-0.048950,0.967773,526
20887090,10002,-0.208374,-0.050781,0.969116,520
20897081,9991,-0.208740,-0.052124,0.969360,515
20907071,9990,-0.205566,-0.049683,0.969116,520
20917097,10026,-0.203247,-0.044678,0.965942,521
20927092,9995,-0.203613,-0.042847,0.963135,518
20937094,10002,-0.202026,-0.041260,0.961304,516
20947094,10000,-0.202026,-0.038208,0.959229,516
20957087,9993,-0.202759,-0.034424,0.958862,516
20967093,10006,-0.203857,-0.035400,0.959961,514
20977099,10006,-0.204468,-0.036133,0.961426,514
20987121,10022,-0.205688,-0.036499,0.966187,505
20997091,9970,-0.205078,-0.040649,0.967896,511
21007078,9987,-0.207642,-0.052246,0.969604,510
21017088,10010,-0.209229,-0.053467,0.971069,511
21027094,10006,-0.210937,-0.052734,0.972290,509
21037092,9998,-0.213379,-0.051514,0.969116,511
21047072,9980,-0.215088,-0.049561,0.966431,508
21057076,10004,-0.217529,-0.049561,0.964722,512
21067094,10018,-0.217651,-0.054932,0.967896,509
21077086,9992,-0.217285,-0.055664,0.967407,512
21087093,10007,-0.218262,-0.057495,0.966797,507
21097079,9986,-0.219360,-0.058472,0.965454,515
21107097,10018,-0.220459,-0.056763,0.961792,507
21117089,9992,-0.219360,-0.054687,0.960693,512
21127127,10038,-0.218628,-0.052979,0.959351,516
21137096,9969,-0.218384,-0.052368,0.957031,508
21147077,9981,-0.218506,-0.054321,0.953979,514
21157104,10027,-0.217041,-0.056152,0.953125,515
21167095,9991,-0.219604,-0.057617,0.953857,514
21177086,9991,-0.217041,-0.055298,0.958130,506
21187072,9986,-0.215210,-0.054932,0.960937,512
21197093,10021,-0.216064,-0.054443,0.962769,514
21207071,9978,-0.214355,-0.055786,0.966187,514
21217094,10023,-0.212036,-0.056396,0.965942,515
21227088,9994,-0.211182,-0.061401,0.969116,507
21237082,9994,-0.210205,-0.060913,0.968140,508
21247089,10007,-0.210449,-0.058960,0.968872,515
21257077,9988,-0.209595,-0.056519,0.968872,515
21267085,10008,-0.208618,-0.053833,0.968750,512
21277093,10008,-0.209229,-0.051147,0.973145,517
21287093,10000,-0.210083,-0.050171,0.971436,511
21297074,9981,-0.211548,-0.047485,0.972290,511
21307097,10023,-0.212646,-0.047974,0.974976,515
21317094,9997,-0.213379,-0.051270,0.973755,510
21327085,9991,-0.214844,-0.054321,0.974976,513
21337091,10006,-0.213013,-0.065674,0.975952,511
21347085,9994,-0.213745,-0.069458,0.976807,512
21357087,10002,-0.212280,-0.069580,0.976562,510
21367097,10010,-0.212036,-0.068237,0.973389,502
21377100,10003,-0.211792,-0.064453,0.971069,508
21387083,9983,-0.211426,-0.053101,0.960571,506
21397072,9989,-0.213257,-0.046021,0.954712,501
21407100,10028,-0.214111,-0.041870,0.949829,504
21417079,9979,-0.215454,-0.040161,0.950317,504
21427085,10006,-0.218018,-0.040649,0.951660,502
21437072,9987,-0.219116,-0.042358,0.951050,497
21447083,10011,-0.221924,-0.053589,0.954346,502
21457107,10024,-0.219482,-0.055420,0.958252,503
21467080,9973,-0.217407,-0.055908,0.962036,505
21477097,10017,-0.217163,-0.056396,0.965088,500
21487085,9988,-0.217529,-0.058838,0.965210,506
21497081,9996,-0.218506,-0.060669,0.966797,511
21507073,9992,-0.218506,-0.059692,0.966675,508
21517091,10018,-0.218750,-0.057251,0.968140,519
21527096,10005,-0.219360,-0.057129,0.968994,523
21537080,9984,-0.219971,-0.057007,0.966797,521
21547078,9998,-0.222534,-0.056641,0.962769,527
21557072,9994,-0.221436,-0.055664,0.963135,528
21567091,10019,-0.219482,-0.052490,0.964844,532
21577096,10005,-0.220337,-0.055298,0.962646,525
21587072,9976,-0.221313,-0.058228,0.961060,525
21597082,10010,-0.220459,-0.061890,0.961182,528
21607111,10029,-0.218506,-0.065308,0.961548,524
21617084,9973,-0.218506,-0.063232,0.960449,525
21627083,9999,-0.218262,-0.062744,0.958740,524
21637076,9993,-0.218994,-0.063843,0.959473,524
21647081,10005,-0.219238,-0.064575,0.956055,515
21657093,10012,-0.215576,-0.055542,0.953125,520
21667077,9984,-0.214478,-0.050903,0.953491,517
21677096,10019,-0.212280,-0.049316,0.954224,517
21687073,9977,-0.212646,-0.049438,0.955933,518
21697086,10013,-0.210449,-0.049194,0.959839,517
21707085,9999,-0.210205,-0.057495,0.962158,514
21717098,10013,-0.209717,-0.064087,0.964111,512
21727085,9987,-0.210205,-0.064941,0.967407,519
21737098,10013,-0.210327,-0.062500,0.968262,517
21747093,9995,-0.211792,-0.058838,0.966553,521
21757093,10000,-0.211548,-0.054565,0.965820,524
21767098,10005,-0.209717,-0.045776,0.971436,526
21777071,9973,-0.211426,-0.043945,0.971802,525
21787100,10029,-0.212402,-0.046021,0.971436,521
21797087,9987,-0.213013,-0.048096,0.969849,520
21807074,9987,-0.212524,-0.050537,0.969482,525
21817085,10011,-0.212646,-0.055542,0.969971,525
21827095,10010,-0.210937,-0.056519,0.970825,523
21837075,9980,-0.210693,-0.055908,0.968140,522
21847080,10005,-0.210815,-0.058472,0.967285,518
21857086,10006,-0.211182,-0.059570,0.966919,512
21867092,10006,-0.211060,-0.060303,0.963989,515
21877128,10036,-0.213379,-0.060791,0.964233,514
21887082,9954,-0.213623,-0.063599,0.965210,510
21897097,10015,-0.213623,-0.066040,0.963989,511
21907086,9989,-0.213501,-0.066650,0.964600,511
21917083,9997,-0.213501,-0.069580,0.963501,513
21927072,9989,-0.211792,-0.068359,0.962036,512
21937071,9999,-0.212036,-0.066772,0.960205,506
21947082,10011,-0.210693,-0.064331,0.962646,512
21957071,9989,-0.210571,-0.062256,0.963379,514
21967090,10019,-0.209717,-0.059570,0.962280,510
21977093,10003,-0.210083,-0.055786,0.959961,512
21987086,9993,-0.211304,-0.055298,0.961670,511
21997075,9989,-0.211182,-0.055786,0.963745,508
22007084,10009,-0.211914,-0.056274,0.964233,508
22017095,10011,-0.213013,-0.057129,0.964355,509
22027074,9979,-0.214355,-0.057617,0.964844,506
22038742,11668,-0.214722,-0.063477,0.966797,502
22047087,8345,-0.215088,-0.063110,0.967163,508
22057088,10001,-0.214722,-0.061646,0.970825,509
22067072,9984,-0.212158,-0.060791,0.972534,510
22077087,10015,-0.212036,-0.059692,0.971069,508
22087098,10011,-0.210815,-0.056885,0.966675,508
22097076,9978,-0.210327,-0.056641,0.966309,503
22107084,10008,-0.208862,-0.057007,0.965820,503
22117099,10015,-0.208862,-0.057495,0.963989,504
22127101,10002,-0.207764,-0.056641,0.960815,501
22137074,9973,-0.208374,-0.055298,0.961182,508
22147090,10016,-0.208008,-0.055054,0.958984,507
22157089,9999,-0.209229,-0.054565,0.957520,508
22167089,10000,-0.210815,-0.054077,0.956299,509
22177094,10005,-0.210815,-0.055542,0.957153,502
22187073,9979,-0.211304,-0.056030,0.956665,510
22197094,10021,-0.211182,-0.054810,0.958130,511
22207076,9982,-0.210571,-0.052856,0.959473,506
22217093,10017,-0.211060,-0.054077,0.960205,511
22227103,10010,-0.212524,-0.054687,0.961548,515
22237074,9971,-0.212769,-0.055054,0.964722,511
22247085,10011,-0.212891,-0.054932,0.967285,518
22257087,10002,-0.214722,-0.054810,0.966431,530
22267072,9985,-0.213623,-0.056274,0.966309,520
22277095,10023,-0.214722,-0.057495,0.962036,519
22287089,9994,-0.215210,-0.057129,0.961792,529
22297078,9989,-0.213135,-0.057861,0.963013,531
22307096,10018,-0.214233,-0.058716,0.963745,526
22317073,9977,-0.214355,-0.057983,0.963013,532
22327097,10024,-0.214600,-0.057007,0.963135,529
22337096,9999,-0.215210,-0.057129,0.960571,525
22347076,9980,-0.216187,-0.057373,0.959961,528
22357073,9997,-0.216064,-0.056274,0.958618,533
22367099,10026,-0.215942,-0.054687,0.958008,531
22377092,9993,-0.215332,-0.055420,0.958008,523
22387088,9996,-0.216553,-0.056030,0.959351,527
22397089,10001,-0.216064,-0.057617,0.961304,518
22407083,9994,-0.216431,-0.058105,0.962646,518
22417081,9998,-0.217285,-0.057983,0.961670,524
22427094,10013,-0.216553,-0.058716,0.961304,520
22437087,9993,-0.217163,-0.060059,0.963135,520
22447082,9995,-0.217651,-0.058716,0.961670,516
22457092,10010,-0.218628,-0.058228,0.960693,519
22467073,9981,-0.219604,-0.055542,0.958984,514
22477098,10025,-0.220093,-0.055542,0.959351,520
22487077,9979,-0.222656,-0.054565,0.956177,519
22497072,9995,-0.223999,-0.052979,0.955444,518
22507114,10042,-0.223511,-0.054443,0.958740,513
22517097,9983,-0.223022,-0.061157,0.959839,519
22527077,9980,-0.223633,-0.062622,0.957886,515
22537089,10012,-0.222168,-0.064819,0.958740,524
22547087,9998,-0.221436,-0.063843,0.960815,524
22557097,10010,-0.220581,-0.058594,0.961914,522
22567082,9985,-0.220825,-0.057007,0.961914,525
22577073,9991,-0.218262,-0.054565,0.964111,530
22587086,10013,-0.218018,-0.051270,0.963013,525
22597079,9993,-0.218994,-0.048950,0.964844,532
22607078,9999,-0.218628,-0.048096,0.965576,529
22617091,10013,-0.218994,-0.047729,0.966919,525
22627100,10009,-0.216431,-0.047241,0.966919,520
22637098,9998,-0.217773,-0.049194,0.966309,519
22647073,9975,-0.216431,-0.050415,0.965942,517
22657099,10026,-0.217773,-0.049683,0.966675,514
22667095,9996,-0.217773,-0.049438,0.967529,510
22677072,9977,-0.217041,-0.051392,0.969360,504
22687087,10015,-0.218750,-0.050781,0.968628,503
22697096,10009,-0.219360,-0.052124,0.969482,499
22707077,9981,-0.220459,-0.051758,0.970703,503
22717096,10019,-0.221313,-0.050049,0.969116,493
22727080,9984,-0.222290,-0.051025,0.964600,501
22737083,10003,-0.225098,-0.048218,0.961914,499
22747087,10004,-0.222168,-0.049072,0.962036,500
22757098,10011,-0.220703,-0.046021,0.961182,500
22767092,9994,-0.219727,-0.045776,0.959106,497
22777097,10005,-0.219849,-0.046631,0.957764,499
22787087,9990,-0.221191,-0.045898,0.958618,504
22797078,9991,-0.217896,-0.042114,0.958130,504
22807077,9999,-0.216797,-0.040771,0.953369,510
22817098,10021,-0.218140,-0.043457,0.958374,508
22827093,9995,-0.212769,-0.049927,0.961060,511
22837103,10010,-0.211670,-0.049438,0.958862,514
22847082,9979,-0.210449,-0.052490,0.958130,507
22857084,10002,-0.207764,-0.058105,0.959961,509
22867072,9988,-0.209229,-0.061035,0.961548,513
22877071,9999,-0.208740,-0.063965,0.964966,507
22887093,10022,-0.209961,-0.060181,0.965698,510
22897097,10004,-0.213745,-0.055542,0.963013,511
22907093,9996,-0.214233,-0.056396,0.961792,512
22917083,9990,-0.213989,-0.058350,0.958252,511
22927083,10000,-0.214478,-0.061035,0.957886,507
22937083,10000,-0.215942,-0.061157,0.955322,512
22947077,9994,-0.215942,-0.061035,0.954224,512
22957073,9996,-0.215820,-0.065552,0.951294,513
22967076,10003,-0.217529,-0.069580,0.950684,511
22977081,10005,-0.217163,-0.070557,0.952637,513
22987072,9991,-0.218872,-0.067871,0.956055,522
22997072,10000,-0.217651,-0.064819,0.956177,526
23007083,10011,-0.218384,-0.060547,0.958618,531
23017098,10015,-0.217407,-0.057617,0.960327,536
23027092,9994,-0.218262,-0.054321,0.962524,537
23037089,9997,-0.216187,-0.051758,0.963623,531
23047075,9986,-0.216675,-0.049194,0.962769,539
23057089,10014,-0.214111,-0.045532,0.967651,535
23067083,9994,-0.214966,-0.043579,0.970581,540
23077072,9989,-0.214355,-0.044556,0.974121,539
23087088,10016,-0.214355,-0.045288,0.973511,534
23097085,9997,-0.216064,-0.047974,0.975098,533
23107076,9991,-0.217407,-0.050415,0.976685,528
23117094,10018,-0.216187,-0.054321,0.979004,529
23127081,9987,-0.215454,-0.053345,0.977173,525
23137099,10018,-0.215820,-0.051270,0.974121,519
23147083,9984,-0.214722,-0.051270,0.977051,517
23157096,10013,-0.214355,-0.052612,0.976807,521
23167095,9999,-0.214844,-0.052856,0.970093,521
23177077,9982,-0.214722,-0.055298,0.969238,519
23187085,10008,-0.215576,-0.057373,0.968872,516
23197096,10011,-0.214966,-0.054443,0.968872,517
23207092,9996,-0.213257,-0.055176,0.967407,515
23217099,10007,-0.212524,-0.055176,0.964233,514
23227084,9985,-0.211914,-0.053955,0.962036,511
23237073,9989,-0.211914,-0.054687,0.961304,516
23247085,10012,-0.212158,-0.056396,0.960449,515
23257072,9987,-0.211060,-0.054932,0.962891,512
23267077,10005,-0.211182,-0.053955,0.962158,508
23277086,10009,-0.211670,-0.057739,0.962158,507
23287088,10002,-0.211914,-0.061523,0.962280,513
23297118,10030,-0.211182,-0.062500,0.962524,515
23307073,9955,-0.212646,-0.063110,0.964355,514
23317089,10016,-0.211426,-0.063110,0.966675,514
23327074,9985,-0.211426,-0.061890,0.966675,516
23337082,10008,-0.212524,-0.059326,0.967163,515
23347098,10016,-0.213501,-0.060425,0.965698,514
23357088,9990,-0.213745,-0.060303,0.965210,508
23367076,9988,-0.213989,-0.060425,0.965332,514
23377083,10007,-0.214111,-0.060425,0.963867,514
23387071,9988,-0.214966,-0.063110,0.961426,512
23397076,10005,-0.215088,-0.064819,0.960937,510
23407091,10015,-0.214844,-0.065430,0.958496,513
23417071,9980,-0.215820,-0.065674,0.959229,504
23427075,10004,-0.218384,-0.064331,0.955200,512
23437077,10002,-0.218262,-0.061279,0.956909,511
23447095,10018,-0.218140,-0.061646,0.958008,510
23457076,9981,-0.216919,-0.062378,0.960205,512
23467116,10040,-0.216309,-0.061523,0.963135,511
23477096,9980,-0.215942,-0.058716,0.963013,513
23487094,9998,-0.216797,-0.057373,0.963135,513
23497091,9997,-0.216431,-0.054565,0.961670,512
23507085,9994,-0.215454,-0.054077,0.963501,509
23517089,10004,-0.214966,-0.054199,0.966187,514
23527081,9992,-0.215088,-0.054687,0.966187,505
23537095,10014,-0.214355,-0.054565,0.965210,515
23547081,9986,-0.215210,-0.055786,0.964722,512
23557078,9997,-0.213867,-0.055420,0.965210,510
23567090,10012,-0.214111,-0.057373,0.964600,505
23577085,9995,-0.215210,-0.057983,0.963745,509
23587076,9991,-0.214966,-0.057861,0.960693,507
23597089,10013,-0.214478,-0.059937,0.958984,507
23607084,9995,-0.214844,-0.057495,0.958252,508
23617073,9989,-0.214600,-0.054687,0.957886,505
23627098,10025,-0.215088,-0.056152,0.957520,508
23637094,9996,-0.214966,-0.058228,0.958374,513
23647086,9992,-0.213989,-0.061646,0.958740,518
23657089,10003,-0.214844,-0.068848,0.962891,517
23667098,10009,-0.216431,-0.068604,0.963501,524
23677075,9977,-0.216309,-0.068237,0.962036,525
23687076,10001,-0.217407,-0.068359,0.960937,528
23697093,10017,-0.216309,-0.067017,0.961182,533
23707095,10002,-0.218018,-0.063599,0.955933,532
23717084,9989,-0.218750,-0.062256,0.958862,539
23727087,10003,-0.216797,-0.062866,0.959106,539
23737084,9997,-0.219116,-0.062378,0.957397,533
23747081,9997,-0.217285,-0.060425,0.956909,540
23757080,9999,-0.217896,-0.057373,0.958740,538
23767087,10007,-0.218384,-0.059937,0.963013,537
23777118,10031,-0.218628,-0.059326,0.962646,536
23787094,9976,-0.219238,-0.059082,0.963013,531
23797085,9991,-0.218872,-0.059814,0.964600,526
23807078,9993,-0.219849,-0.059814,0.965698,528
23817098,10020,-0.222168,-0.061523,0.965942,528
23827088,9990,-0.221191,-0.061401,0.965698,526
23837077,9989,-0.221924,-0.062012,0.965942,524
23847094,10017,-0.220947,-0.062012,0.967163,524
23857092,9998,-0.222778,-0.060059,0.964478,520
23867085,9993,-0.222900,-0.059692,0.963501,512
23877073,9988,-0.223999,-0.058838,0.962524,518
23887089,10016,-0.224365,-0.058350,0.963745,511
23897099,10010,-0.224609,-0.056396,0.963257,517
23907079,9980,-0.224609,-0.056885,0.962891,514
23917091,10012,-0.225586,-0.057861,0.963623,514
23927073,9982,-0.235962,-0.063110,0.965332,515
23937094,10021,-0.239746,-0.063232,0.967651,513
23947077,9983,-0.243164,-0.062378,0.970459,517
23957074,9997,-0.244995,-0.062500,0.971802,516
23967086,10012,-0.243164,-0.067017,0.971313,519
23977075,9989,-0.240723,-0.065674,0.973633,519
23987079,10004,-0.235474,-0.066895,0.973999,517
23997089,10010,-0.232422,-0.066528,0.974609,519
24007085,9996,-0.228638,-0.064331,0.974365,516
24017087,10002,-0.225708,-0.062866,0.970825,514
24027099,10012,-0.223511,-0.060913,0.968262,513
24037071,9972,-0.218872,-0.051270,0.962646,511
24047077,10006,-0.218628,-0.047241,0.959961,514
24057075,9998,-0.216431,-0.048340,0.957886,514
24067086,10011,-0.215210,-0.050659,0.953979,513
24077100,10014,-0.213379,-0.051025,0.951782,512
24087101,10001,-0.213379,-0.052612,0.950195,510
24097104,10003,-0.212036,-0.053711,0.950073,509
24107100,9996,-0.211304,-0.055786,0.951294,508
24117078,9978,-0.210815,-0.057983,0.950684,509
24127096,10018,-0.211426,-0.057861,0.951660,508
24137074,9978,-0.211304,-0.059082,0.954590,503
24147088,10014,-0.211548,-0.059937,0.957031,508
24157099,10011,-0.210815,-0.062378,0.957397,508
24167088,9989,-0.210205,-0.063110,0.958130,505
24177091,10003,-0.211548,-0.063599,0.960327,507
24187081,9990,-0.213379,-0.063354,0.961182,508
24197081,10000,-0.216187,-0.062622,0.963745,504
24207099,10018,-0.218018,-0.060913,0.961670,511
24217072,9973,-0.218384,-0.059082,0.960571,506
24227080,10008,-0.218750,-0.056885,0.960205,509
24237078,9998,-0.219604,-0.055054,0.960449,507
24247081,10003,-0.219604,-0.053955,0.961304,510
24257093,10012,-0.222290,-0.053833,0.961914,509
24267079,9986,-0.223389,-0.055176,0.962524,507
24277098,10019,-0.223511,-0.055542,0.961548,513
24287090,9992,-0.223877,-0.057251,0.962280,511
24297077,9987,-0.223145,-0.059448,0.965820,519
24307086,10009,-0.222900,-0.062256,0.967285,511
24317075,9989,-0.224121,-0.062134,0.967773,514
24327072,9997,-0.223755,-0.063843,0.967773,524
24337072,10000,-0.222534,-0.065796,0.969360,526
24347078,10006,-0.222290,-0.064697,0.968018,530
24357077,9999,-0.222412,-0.064087,0.965332,533
24367075,9998,-0.221558,-0.063599,0.964722,528
24377080,10005,-0.220825,-0.062500,0.961426,537
24387074,9994,-0.223267,-0.061035,0.959351,539
24397095,10021,-0.222534,-0.060913,0.958130,540
24407079,9984,-0.221069,-0.059570,0.960571,534
24417083,10004,-0.222412,-0.059082,0.961792,536
24427087,10004,-0.222046,-0.058350,0.961304,534
24437091,10004,-0.220215,-0.058838,0.960815,538
24447086,9995,-0.218750,-0.058960,0.962036,532
24457087,10001,-0.216064,-0.059937,0.962769,529
24467085,9998,-0.217163,-0.057129,0.964966,528
24477079,9994,-0.215942,-0.056885,0.964966,525
24487095,10016,-0.215332,-0.056396,0.961670,530
24497088,9993,-0.215088,-0.056885,0.962158,525
24507083,9995,-0.213501,-0.057495,0.961548,524
24517078,9995,-0.214966,-0.057495,0.962402,522
24527098,10020,-0.215210,-0.057983,0.962646,523
24537076,9978,-0.215332,-0.060059,0.961426,521
24547079,10003,-0.216797,-0.059937,0.960205,521
24557071,9992,-0.216431,-0.060059,0.960449,514
24567095,10024,-0.216309,-0.058594,0.961060,516
24577096,10001,-0.217163,-0.058716,0.960327,513
24587071,9975,-0.216187,-0.059570,0.960937,511
24597101,10030,-0.215698,-0.060303,0.964478,514
24607077,9976,-0.215088,-0.060547,0.962036,515
24617076,9999,-0.216797,-0.059448,0.959106,515
24627096,10020,-0.216797,-0.062378,0.962891,516
24637085,9989,-0.217407,-0.063477,0.963379,510
24647099,10014,-0.217651,-0.062256,0.964233,509
24657093,9994,-0.218872,-0.063232,0.964600,513
24667093,10000,-0.219482,-0.064575,0.964966,515
24677095,10002,-0.218384,-0.065796,0.964722,511
24687073,9978,-0.218750,-0.063477,0.965576,515
24697100,10027,-0.218140,-0.062012,0.965576,517
24707093,9993,-0.217773,-0.062012,0.964844,508
24717073,9980,-0.217407,-0.060547,0.964111,501
24727073,10000,-0.217896,-0.058838,0.963013,513
24737124,10051,-0.215698,-0.059814,0.962158,507
24747082,9958,-0.217529,-0.060181,0.962036,514
24757085,10003,-0.216309,-0.061279,0.962646,512
24767091,10006,-0.216797,-0.063843,0.965576,512
24777073,9982,-0.216187,-0.066650,0.970825,506
24787101,10028,-0.214600,-0.066772,0.966675,510
24797071,9970,-0.218140,-0.065552,0.965698,510
24807082,10011,-0.218994,-0.078003,0.962402,508
24817073,9991,-0.217163,-0.080688,0.964355,506
24827092,10019,-0.216675,-0.072876,0.966797,504
24837078,9986,-0.215210,-0.066650,0.969727,503
24847077,9999,-0.218750,-0.064453,0.962891,508
24857072,9995,-0.218872,-0.065918,0.961426,501
24867086,10014,-0.218994,-0.068359,0.957642,510
24877082,9996,-0.219971,-0.065430,0.957886,502
24887078,9996,-0.221436,-0.060425,0.957886,504
24897085,10007,-0.220093,-0.050659,0.957275,507
24907122,10037,-0.222290,-0.052979,0.957397,507
24917089,9967,-0.221680,-0.054199,0.956543,511
24927087,9998,-0.219727,-0.053345,0.958008,504
24937077,9990,-0.218750,-0.052979,0.958130,508
24947111,10034,-0.218628,-0.051636,0.957642,508
24957076,9965,-0.215454,-0.052734,0.961304,507
24967071,9995,-0.212891,-0.055542,0.961670,509
24977072,10001,-0.212891,-0.057739,0.961182,510
24987082,10010,-0.212891,-0.058228,0.961670,510
24997078,9996,-0.211304,-0.059814,0.962402,504
25007080,10002,-0.210693,-0.065063,0.962402,508
25017076,9996,-0.211426,-0.067871,0.959839,507
25027081,10005,-0.212280,-0.068970,0.959595,502
25037089,10008,-0.210693,-0.067383,0.959106,504
25047097,10008,-0.213013,-0.066650,0.959106,501
25057090,9993,-0.213379,-0.065186,0.958374,505
25067123,10033,-0.215210,-0.067993,0.955688,514
25077101,9978,-0.215820,-0.067993,0.950073,514
25087086,9985,-0.217896,-0.067383,0.948242,519
25097073,9987,-0.218140,-0.066162,0.949097,515
25107079,10006,-0.218750,-0.062988,0.948120,514
25117099,10020,-0.215454,-0.061279,0.954956,522
25127077,9978,-0.214722,-0.064819,0.956055,525
25137079,10002,-0.216553,-0.065430,0.954590,526
25147086,10007,-0.218262,-0.067871,0.956787,525
25157082,9996,-0.217529,-0.068481,0.960571,522
25167087,10005,-0.218994,-0.069092,0.967163,524
25177100,10013,-0.219360,-0.066406,0.968994,522
25187084,9984,-0.220093,-0.066895,0.972046,519
25197079,9995,-0.220459,-0.070435,0.974731,514
25207077,9998,-0.220581,-0.072510,0.974365,517
25217073,9996,-0.222412,-0.073364,0.975830,516
25227091,10018,-0.222534,-0.072998,0.976807,515
25237096,10005,-0.222290,-0.071533,0.973877,515
25247085,9989,-0.221313,-0.070312,0.973877,508
25257084,9999,-0.219238,-0.069092,0.973022,511
25267093,10009,-0.218506,-0.067871,0.969849,507
25277108,10015,-0.217407,-0.062134,0.961792,509
25287075,9967,-0.217896,-0.062988,0.961548,495
25297079,10004,-0.214844,-0.064575,0.961304,508
25307087,10008,-0.212769,-0.062134,0.961060,509
25317089,10002,-0.213013,-0.063354,0.960815,509
25327074,9985,-0.211426,-0.064087,0.960571,508
25337075,10001,-0.212280,-0.066040,0.958496,504
25347096,10021,-0.210571,-0.065918,0.959351,506
25357098,10002,-0.210815,-0.066040,0.961426,503
25367089,9991,-0.209473,-0.066284,0.962646,509
25377083,9994,-0.208740,-0.067139,0.962402,512
25387085,10002,-0.209717,-0.069580,0.963989,512
25397075,9990,-0.209839,-0.070801,0.963135,515
25407073,9998,-0.210815,-0.069580,0.962646,512
25417099,10026,-0.210205,-0.067871,0.962524,507
25427075,9976,-0.210937,-0.065063,0.962402,506
25437091,10016,-0.210449,-0.065918,0.964600,514
25447078,9987,-0.211182,-0.067993,0.963989,513
25457097,10019,-0.211304,-0.071533,0.964233,514
25467097,10000,-0.211792,-0.071411,0.962158,514
25477094,9997,-0.212646,-0.071777,0.961060,507
25487076,9982,-0.213135,-0.073364,0.961304,506
25497080,10004,-0.213501,-0.071899,0.961548,504
25507077,9997,-0.214111,-0.071411,0.960205,510
25517090,10013,-0.215698,-0.070801,0.958130,513
25527082,9992,-0.216309,-0.069458,0.955811,506
25537093,10011,-0.216919,-0.072021,0.955200,500
25547099,10006,-0.217529,-0.073120,0.953613,507
25557072,9973,-0.218628,-0.072998,0.951416,505
25567094,10022,-0.219727,-0.073486,0.949463,503
25577117,10023,-0.219116,-0.074951,0.950806,497
25587075,9958,-0.218506,-0.072266,0.949707,505
25597098,10023,-0.220093,-0.070312,0.948975,506
25607083,9985,-0.219116,-0.066406,0.951660,506
25617079,9996,-0.219482,-0.066040,0.953491,506
25627077,9998,-0.221680,-0.067383,0.955811,505
25637090,10013,-0.220581,-0.068970,0.959961,499
25647087,9997,-0.220947,-0.073853,0.963501,506
25657092,10005,-0.223145,-0.075439,0.964844,503
25667078,9986,-0.222168,-0.075684,0.966553,502
25677079,10001,-0.221802,-0.075562,0.970703,506
25687100,10021,-0.220947,-0.075317,0.975464,507
25697088,9988,-0.219727,-0.076538,0.976074,500
25707084,9996,-0.221924,-0.075562,0.975220,507
25717094,10010,-0.221436,-0.072144,0.974976,501
25727073,9979,-0.219727,-0.072510,0.976929,506
25737099,10026,-0.218262,-0.071411,0.977051,501
25747102,10003,-0.219360,-0.071045,0.974731,501
25757073,9971,-0.216064,-0.071289,0.973633,498
25767088,10015,-0.214600,-0.072144,0.971680,503
25777079,9991,-0.213989,-0.070557,0.969971,502
25787111,10032,-0.214600,-0.068115,0.969116,502
25797072,9961,-0.213379,-0.068359,0.968262,504
25807083,10011,-0.213867,-0.070557,0.965454,499
25817086,10003,-0.214111,-0.073730,0.964355,504
25827100,10014,-0.216309,-0.075195,0.961914,503
25837079,9979,-0.217529,-0.077515,0.962036,502
25847096,10017,-0.218018,-0.079224,0.959961,510
25857075,9979,-0.218262,-0.078369,0.962158,514
25867097,10022,-0.215698,-0.078003,0.962769,511
25877084,9987,-0.217896,-0.077393,0.963989,518
25887077,9993,-0.219238,-0.077637,0.963013,525
25897082,10005,-0.217773,-0.077881,0.961792,518
25907111,10029,-0.218018,-0.077393,0.961304,534
25917097,9986,-0.218140,-0.078735,0.960449,530
25927082,9985,-0.217285,-0.078735,0.961060,531
25937096,10014,-0.216675,-0.076660,0.960327,538
25947099,10003,-0.217896,-0.076904,0.958618,540
25957095,9996,-0.218018,-0.076660,0.958252,532
25967098,10003,-0.217773,-0.078247,0.958008,535
25977074,9976,-0.217041,-0.080688,0.959717,532
25987080,10006,-0.218872,-0.081299,0.959473,528
25997097,10017,-0.216919,-0.081177,0.959351,522
26007079,9982,-0.217651,-0.080811,0.962036,526
26017075,9996,-0.218506,-0.079468,0.962524,521
26027094,10019,-0.219116,-0.077637,0.963501,521
26037073,9979,-0.216797,-0.073608,0.963623,523
26047072,9999,-0.217041,-0.073486,0.962280,521
26057090,10018,-0.218018,-0.074097,0.961792,513
26067077,9987,-0.216675,-0.073730,0.963135,515
26077092,10015,-0.215942,-0.075073,0.963379,513
26087096,10004,-0.216675,-0.074097,0.960693,511
26097095,9999,-0.219727,-0.073853,0.960693,515
26107083,9988,-0.219116,-0.070923,0.961060,513
26117089,10006,-0.219971,-0.069092,0.960693,512
26127099,10010,-0.220093,-0.067749,0.960205,515
26137093,9994,-0.220093,-0.068970,0.961670,511
26147092,9999,-0.220947,-0.071411,0.961060,512
26157095,10003,-0.222168,-0.072510,0.962646,511
26167084,9989,-0.221191,-0.076294,0.965820,507
26177075,9991,-0.221680,-0.078247,0.967407,506
26187086,10011,-0.220825,-0.079346,0.969482,508
26197100,10014,-0.221802,-0.079224,0.968628,507
26207093,9993,-0.221802,-0.079712,0.967651,513
26217098,10005,-0.223022,-0.079712,0.967163,511
26227078,9980,-0.222656,-0.077637,0.966309,514
26237098,10020,-0.222046,-0.076660,0.965942,515
26247092,9994,-0.221069,-0.074463,0.964111,515
26257111,10019,-0.220215,-0.074219,0.959473,512
26267084,9973,-0.220947,-0.074829,0.958618,507
26277087,10003,-0.218750,-0.074341,0.958618,512
26287092,10005,-0.219849,-0.073975,0.958252,509
26297112,10020,-0.218872,-0.074951,0.957031,511
26307100,9988,-0.217529,-0.076416,0.956665,501
26317071,9971,-0.216675,-0.076294,0.956177,502
26327090,10019,-0.217407,-0.075684,0.955322,507
26337088,9998,-0.217529,-0.077271,0.954956,506
26347081,9993,-0.218384,-0.078613,0.955200,504
26357092,10011,-0.217529,-0.078613,0.955933,505
26367099,10007,-0.218262,-0.075806,0.953979,503
26377071,9972,-0.218872,-0.074951,0.956299,497
26387091,10020,-0.218750,-0.072632,0.957520,505
26397079,9988,-0.220093,-0.071533,0.957520,495
26407076,9997,-0.219849,-0.070923,0.958618,505
26417081,10005,-0.221558,-0.069336,0.963379,497
26427122,10041,-0.222046,-0.070312,0.963257,504
26437096,9974,-0.224609,-0.070435,0.962891,504
26447096,10000,-0.224243,-0.070557,0.963379,505
26457074,9978,-0.226440,-0.069336,0.965576,506
26467083,10009,-0.226685,-0.069946,0.966797,501
26477074,9991,-0.224854,-0.069336,0.967163,500
26487094,10020,-0.225586,-0.069824,0.964600,506
26497087,9993,-0.224487,-0.071655,0.965088,507
26507089,10002,-0.225342,-0.071777,0.963379,507
26517100,10011,-0.225342,-0.073730,0.965820,507
26527088,9988,-0.225586,-0.074585,0.962402,500
26537088,10000,-0.227173,-0.075562,0.961548,502
26547083,9995,-0.225952,-0.074707,0.960449,507
26557096,10013,-0.227661,-0.074951,0.959229,505
26567094,9998,-0.225952,-0.073730,0.959473,506
26577073,9979,-0.224365,-0.075073,0.958862,505
26587093,10020,-0.222290,-0.075073,0.957886,503
26597124,10031,-0.222534,-0.075562,0.958496,501
26607101,9977,-0.222534,-0.073608,0.959595,500
26617075,9974,-0.220459,-0.073730,0.958496,503
26627095,10020,-0.220703,-0.074219,0.958862,499
26637084,9989,-0.221802,-0.074219,0.962158,504
26647111,10027,-0.221680,-0.073975,0.962891,497
26657081,9970,-0.222290,-0.072754,0.963501,504
26667092,10011,-0.221802,-0.073364,0.964600,507
26677081,9989,-0.222778,-0.072998,0.965942,505
26687082,10001,-0.222534,-0.073608,0.964844,517
26697100,10018,-0.222900,-0.074341,0.962524,516
26707092,9992,-0.221924,-0.075806,0.962646,515
26717081,9989,-0.222168,-0.077026,0.962158,524
26727073,9992,-0.222534,-0.077515,0.963379,527
26737096,10023,-0.222778,-0.078003,0.961670,532
26747098,10002,-0.222656,-0.077515,0.959595,532
26757071,9973,-0.223389,-0.076294,0.958862,536
26767071,10000,-0.222656,-0.073364,0.960815,536
26777093,10022,-0.223022,-0.070679,0.962402,533
26787089,9996,-0.223145,-0.069214,0.962280,534
26797073,9984,-0.224609,-0.069580,0.961060,528
26807074,10001,-0.225708,-0.070312,0.962646,531
26817107,10033,-0.225342,-0.069702,0.963989,527
26827097,9990,-0.224609,-0.068848,0.965210,529
26837072,9975,-0.224731,-0.067993,0.963013,522
26847098,10026,-0.223877,-0.069946,0.962524,516
26857072,9974,-0.226929,-0.072144,0.961182,522
26867074,10002,-0.225098,-0.072632,0.961426,516
26877071,9997,-0.224731,-0.072876,0.960693,520
26887085,10014,-0.224609,-0.076050,0.961182,518
26897098,10013,-0.225586,-0.076782,0.959839,522
26907074,9976,-0.227051,-0.078125,0.958374,519
26917076,10002,-0.229370,-0.078247,0.957153,521
26927075,9999,-0.228760,-0.077515,0.958496,522
26937105,10030,-0.228027,-0.077515,0.958740,522
26947086,9981,-0.229370,-0.076294,0.958862,522
26957081,9995,-0.227417,-0.075317,0.957520,521
26967096,10015,-0.228638,-0.072144,0.957397,518
26977095,9999,-0.226196,-0.070435,0.958618,518
26987074,9979,-0.228027,-0.069214,0.958618,519
26997075,10001,-0.228516,-0.068481,0.958862,519
27007091,10016,-0.228516,-0.067993,0.960815,511
27017082,9991,-0.228027,-0.067871,0.960937,514
27027074,9992,-0.226318,-0.067749,0.961426,518
27037074,10000,-0.226685,-0.067017,0.961060,516
27047084,10010,-0.226562,-0.069214,0.958740,512
27057082,9998,-0.227417,-0.070557,0.958130,518
27067084,10002,-0.228271,-0.072510,0.958740,517
27077091,10007,-0.229004,-0.071533,0.957520,519
27087071,9980,-0.230225,-0.069336,0.957275,510
27097076,10005,-0.229980,-0.069336,0.955078,517
27107091,10015,-0.230713,-0.067261,0.956299,517
27117087,9996,-0.232056,-0.033203,0.957153,517
27127073,9986,-0.234863,-0.060669,0.959229,517
27137071,9998,-0.232788,-0.059814,0.961670,518
27147085,10014,-0.230957,-0.062256,0.962524,519
27157096,10011,-0.232056,-0.065063,0.963257,520
27167095,9999,-0.232910,-0.067993,0.964233,517
27177071,9976,-0.230713,-0.070312,0.966675,524
27187082,10011,-0.229004,-0.071655,0.968018,520
27197093,10011,-0.227661,-0.073486,0.967529,512
27207093,10000,-0.226562,-0.075439,0.968384,519
27217094,10001,-0.225464,-0.074707,0.965942,519
27227089,9995,-0.224365,-0.071655,0.961304,521
27237089,10000,-0.223877,-0.069580,0.960693,516
27247081,9992,-0.221802,-0.067505,0.959717,519
27257090,10009,-0.222168,-0.067871,0.958252,519
27267077,9987,-0.222290,-0.070068,0.957275,517
27277085,10008,-0.223022,-0.070923,0.955811,519
27287072,9987,-0.223633,-0.071655,0.955566,517
27297090,10018,-0.223267,-0.070801,0.957275,517
27307072,9982,-0.222656,-0.071167,0.955811,518
27317077,10005,-0.222168,-0.070312,0.957397,516
27332970,15893,-0.222534,-0.071167,0.959106,515
27340106,7136,-0.222534,-0.072144,0.957031,511
27347098,6992,-0.223022,-0.071899,0.956909,515
27357085,9987,-0.222290,-0.071899,0.959595,514
27367097,10012,-0.221680,-0.072998,0.961548,513
27377073,9976,-0.222412,-0.072754,0.961060,509
27387087,10014,-0.223389,-0.071411,0.959229,511
27397093,10006,-0.223022,-0.065430,0.958008,510
27407083,9990,-0.224609,-0.066650,0.957642,507
27417084,10001,-0.224731,-0.066040,0.958862,508
27427088,10004,-0.226074,-0.064453,0.958374,504
27441193,14105,-0.228149,-0.062012,0.958374,500
27447088,5895,0.000000,0.000000,0.000000,506
27457072,9984,-0.228638,-0.062622,0.959717,502
27467101,10029,-0.227539,-0.064087,0.960937,506
27477092,9991,-0.227173,-0.062500,0.960327,498
27487091,9999,-0.227417,-0.063721,0.959595,499
27497077,9986,-0.227661,-0.062378,0.959473,504
27507084,10007,-0.227173,-0.062988,0.961182,502
27517079,9995,-0.226562,-0.063354,0.961548,504
27527091,10012,-0.227783,-0.064575,0.961670,502
27537076,9985,-0.230103,-0.064575,0.962158,496
27547098,10022,-0.230957,-0.064209,0.961060,505
27557078,9980,-0.232544,-0.066895,0.962646,502
27567092,10014,-0.232544,-0.068604,0.964966,508
27577126,10034,-0.232300,-0.068970,0.965332,511
27587073,9947,-0.233032,-0.069336,0.964844,513
27597093,10020,-0.232422,-0.069458,0.965088,515
27607097,10004,-0.230347,-0.068115,0.965088,520
27617091,9994,-0.228149,-0.068359,0.963867,522
27627081,9990,-0.229492,-0.066650,0.960815,527
27638860,11779,-0.229126,-0.064941,0.959961,528
27649167,10307,-0.227783,-0.064941,0.961426,528
27658103,8936,-0.227173,-0.066895,0.960693,532
27667087,8984,-0.227539,-0.065552,0.960327,530
27677090,10003,-0.226074,-0.067383,0.960083,532
27687094,10004,-0.226685,-0.069214,0.958374,524
27697074,9980,-0.227783,-0.070190,0.958984,529
27707100,10026,-0.226440,-0.071045,0.962036,527
27717072,9972,-0.228149,-0.069824,0.960937,522
27727090,10018,-0.229736,-0.069458,0.959106,524
27737077,9987,-0.229614,-0.070190,0.960449,524
27747110,10033,-0.228271,-0.068359,0.961304,519
27757092,9982,-0.230713,-0.067139,0.961792,516
27767101,10009,-0.227905,-0.065552,0.961914,518
27777076,9975,-0.227661,-0.065552,0.962036,517
27787091,10015,-0.226440,-0.067993,0.962036,517
27797094,10003,-0.226318,-0.068848,0.963501,515
27807078,9984,-0.226807,-0.065308,0.963135,515
27817087,10009,-0.225464,-0.063232,0.964111,515
27827072,9985,-0.224609,-0.063477,0.965210,515
27837091,10019,-0.224976,-0.064697,0.966064,514
27847087,9996,-0.223999,-0.064331,0.966675,516
27857072,9985,-0.223022,-0.062866,0.965088,510
27867082,10010,-0.223633,-0.062744,0.963379,516
27877086,10004,-0.222656,-0.061646,0.961792,514
27887092,10006,-0.221069,-0.061646,0.962524,515
27897115,10023,-0.221680,-0.062256,0.962646,516
27907092,9977,-0.222046,-0.064575,0.963745,516
27917080,9988,-0.222412,-0.065552,0.964233,515
27927081,10001,-0.222656,-0.066040,0.960693,516
27937099,10018,-0.224121,-0.065674,0.959595,512
27947076,9977,-0.223755,-0.067139,0.960083,516
27957083,10007,-0.225708,-0.069214,0.960693,517
27967096,10013,-0.223633,-0.070190,0.960327,511
27977077,9981,-0.224365,-0.070068,0.960083,511
27987099,10022,-0.223022,-0.066162,0.959961,510
27997091,9992,-0.223633,-0.065308,0.959473,501
28007096,10005,-0.223755,-0.066528,0.960937,508
28017083,9987,-0.224121,-0.068970,0.960327,501
28027076,9993,-0.223633,-0.067627,0.959106,505
28037101,10025,-0.223633,-0.065918,0.958374,503
28047087,9986,-0.223999,-0.065308,0.957153,500
28057084,9997,-0.225098,-0.064819,0.957520,499
28067075,9991,-0.225708,-0.065308,0.957031,500
28077074,9999,-0.225220,-0.067017,0.956299,502
28087095,10021,-0.225586,-0.068726,0.956055,504
28097090,9995,-0.225098,-0.067627,0.958496,497
28107097,10007,-0.225464,-0.068481,0.959351,501
28117080,9983,-0.225586,-0.069214,0.959351,498
28127092,10012,-0.224487,-0.070557,0.959229,498
28137083,9991,-0.225220,-0.069214,0.961060,499
28147076,9993,-0.223755,-0.066528,0.960571,505
28157074,9998,-0.223267,-0.063477,0.960571,498
28167084,10010,-0.223877,-0.062134,0.961304,505
28177078,9994,-0.223145,-0.060791,0.961182,505
28187077,9999,-0.223755,-0.059326,0.962280,505
28197093,10016,-0.223877,-0.057861,0.964233,507
28207094,10001,-0.224731,-0.055298,0.965210,500
28217097,10003,-0.223999,-0.056519,0.966187,508
28227075,9978,-0.225952,-0.055298,0.965820,504
28237085,10010,-0.226318,-0.057617,0.967407,501
28247081,9996,-0.225708,-0.058960,0.969727,505
28257093,10012,-0.226807,-0.061768,0.966797,508
28267095,10002,-0.226196,-0.061523,0.965576,507
28277073,9978,-0.225464,-0.060425,0.964233,500
28287088,10015,-0.224854,-0.060913,0.962891,496
28297082,9994,-0.225464,-0.062134,0.961426,506
28307083,10001,-0.225586,-0.064453,0.958374,505
28317071,9988,-0.224976,-0.066650,0.957397,501
28327094,10023,-0.225342,-0.068237,0.955688,502
28337091,9997,-0.224487,-0.069092,0.956299,500
28347074,9983,-0.223145,-0.071411,0.955444,504
28357076,10002,-0.223755,-0.071777,0.955811,499
28367123,10047,-0.222412,-0.073364,0.955200,504
28377098,9975,-0.222290,-0.070557,0.956299,500
28387089,9991,-0.222656,-0.068115,0.955444,505
28397077,9988,-0.222412,-0.068970,0.956299,504
28407081,10004,-0.223511,-0.068115,0.957642,505
28417071,9990,-0.222168,-0.065430,0.959717,502
28427091,10020,-0.221802,-0.063110,0.959595,503
28437081,9990,-0.222412,-0.061157,0.961548,506
28447092,10011,-0.220703,-0.060059,0.964600,500
28457093,10001,-0.220581,-0.059814,0.965088,503
28467100,10007,-0.219727,-0.059692,0.967407,507
28477082,9982,-0.221558,-0.060669,0.967407,514
28487084,10002,-0.220581,-0.061768,0.967896,518
28497098,10014,-0.221558,-0.062622,0.968628,514
28507097,9999,-0.222656,-0.063599,0.966431,518
28517082,9985,-0.221802,-0.064453,0.965088,522
28527089,10007,-0.222534,-0.063599,0.964233,530
28537086,9997,-0.222656,-0.064331,0.962769,531
28547088,10002,-0.222290,-0.064575,0.962646,528
28557098,10010,-0.223022,-0.061401,0.961304,537
28567074,9976,-0.222046,-0.061279,0.959473,530
28577092,10018,-0.222290,-0.061157,0.958740,532
28587086,9994,-0.221191,-0.062500,0.958862,534
28597102,10016,-0.220825,-0.063110,0.959473,536
28607076,9974,-0.221802,-0.062866,0.960571,537
28617101,10025,-0.222412,-0.062866,0.961182,527
28627078,9977,-0.223511,-0.062866,0.962280,520
28637098,10020,-0.222290,-0.060791,0.959351,528
28647073,9975,-0.223022,-0.063843,0.958984,522
28657078,10005,-0.223267,-0.064331,0.958130,522
28667076,9998,-0.222778,-0.063477,0.958496,520
28677079,10003,-0.223755,-0.065308,0.959106,519
28687099,10020,-0.224243,-0.066284,0.961182,512
28697074,9975,-0.225220,-0.064209,0.960815,511
28707096,10022,-0.226196,-0.062866,0.959961,508
28717098,10002,-0.226196,-0.062622,0.959229,508
28727085,9987,-0.226318,-0.063354,0.959473,517
28737097,10012,-0.227417,-0.063354,0.959717,510
28747091,9994,-0.226929,-0.065552,0.960449,510
28757073,9982,-0.226929,-0.065186,0.960327,507
28767073,10000,-0.226685,-0.064331,0.959229,513
28777093,10020,-0.226685,-0.063354,0.958618,512
28787077,9984,-0.226074,-0.062256,0.959229,514
28797074,9997,-0.225220,-0.060181,0.959839,507
28807079,10005,-0.224854,-0.059204,0.962280,514
28817077,9998,-0.224121,-0.058350,0.962769,509
28827095,10018,-0.225830,-0.056763,0.962158,514
28837078,9983,-0.225586,-0.057861,0.962158,510
28847087,10009,-0.223389,-0.058960,0.963257,512
28857089,10002,-0.224121,-0.059937,0.964355,514
28867071,9982,-0.224365,-0.059326,0.963135,506
28877101,10030,-0.223755,-0.057861,0.962524,507
28887089,9988,-0.222534,-0.059570,0.961548,506
28897077,9988,-0.222656,-0.060669,0.961792,505
28907080,10003,-0.223145,-0.064697,0.960205,507
28917078,9998,-0.224121,-0.065674,0.959961,511
28927082,10004,-0.224121,-0.065186,0.958984,503
28937074,9992,-0.223755,-0.065186,0.959961,515
28947095,10021,-0.223633,-0.063232,0.958130,511
28957101,10006,-0.223633,-0.063232,0.958984,508
28967086,9985,-0.223633,-0.063110,0.958374,508
28977084,9998,-0.224121,-0.064453,0.958618,509
28987100,10016,-0.224487,-0.063599,0.960083,507
28997073,9973,-0.224609,-0.064209,0.959473,506
29007090,10017,-0.224731,-0.063110,0.960693,508
29017084,9994,-0.224609,-0.061646,0.961426,510
29027087,10003,-0.224365,-0.062744,0.961426,507
29037098,10011,-0.223999,-0.062988,0.961426,502
29047094,9996,-0.225342,-0.062012,0.960571,506
29057091,9997,-0.223999,-0.059814,0.960571,507
29067094,10003,-0.222900,-0.062378,0.961792,509
29077085,9991,-0.222900,-0.062744,0.959595,506
29087089,10004,-0.223877,-0.062378,0.958618,506
29097082,9993,-0.224487,-0.062744,0.960693,508
29107086,10004,-0.222534,-0.064331,0.959961,510
29117077,9991,-0.223145,-0.065308,0.960083,509
29127097,10020,-0.221924,-0.065552,0.959106,507
29137079,9982,-0.221680,-0.065063,0.959473,507
29147096,10017,-0.222534,-0.066528,0.959106,504
29157080,9984,-0.223267,-0.063843,0.958984,508
29167087,10007,-0.223267,-0.063232,0.960449,502
29177085,9998,-0.223267,-0.066650,0.960937,499
29187095,10010,-0.222046,-0.063354,0.961914,500
29197084,9989,-0.221191,-0.060669,0.961548,507
29207084,10000,-0.222900,-0.059326,0.962158,507
29217099,10015,-0.224243,-0.060181,0.961060,511
29227100,10001,-0.223755,-0.060547,0.963989,511
29237096,9996,-0.224243,-0.063477,0.965576,512
29247072,9976,-0.226074,-0.064941,0.966187,515
29257072,10000,-0.225464,-0.066040,0.965576,513
29267085,10013,-0.224243,-0.066895,0.965454,516
29277085,10000,-0.224609,-0.068604,0.963989,526
29287073,9988,-0.225098,-0.069580,0.962524,528
29297085,10012,-0.224854,-0.069458,0.962280,533
29307086,10001,-0.224243,-0.068726,0.961670,533
29317074,9988,-0.224854,-0.067993,0.961060,532
29327071,9997,-0.223389,-0.067139,0.961548,532
29337097,10026,-0.223145,-0.064819,0.960449,537
29347090,9993,-0.222290,-0.064087,0.959717,531
29357100,10010,-0.222534,-0.061279,0.960815,533
29367120,10020,-0.221313,-0.062134,0.961426,535
29377079,9959,-0.221436,-0.062622,0.959839,530
29387088,10009,-0.222534,-0.063599,0.962891,527
29397077,9989,-0.222900,-0.064941,0.965942,519
29407086,10009,-0.223145,-0.064453,0.966553,526
29417106,10020,-0.222656,-0.066040,0.964355,524
29427075,9969,-0.223145,-0.067505,0.963257,512
29437074,9999,-0.222290,-0.067261,0.961548,513
29447094,10020,-0.222900,-0.064209,0.960205,510
29457076,9982,-0.222900,-0.062500,0.960937,516
29467099,10023,-0.223145,-0.062012,0.960937,509
29477091,9992,-0.224487,-0.062134,0.960815,512
29487093,10002,-0.224976,-0.065552,0.960083,515
29497077,9984,-0.226318,-0.067993,0.960327,509
29507073,9996,-0.226807,-0.068359,0.959595,511
29517096,10023,-0.226685,-0.068237,0.960205,512
29527115,10019,-0.225342,-0.069092,0.962524,511
29537088,9973,-0.225830,-0.069336,0.964966,509
29547094,10006,-0.225708,-0.068848,0.963013,508
29557081,9987,-0.226562,-0.068237,0.962158,510
29567097,10016,-0.226807,-0.066895,0.960937,509
29577100,10003,-0.226440,-0.066040,0.961304,514
29587080,9980,-0.226318,-0.063965,0.962158,506
29597084,10004,-0.226318,-0.063110,0.961060,515
29607078,9994,-0.227295,-0.061890,0.959595,507
29617088,10010,-0.227051,-0.063110,0.960327,514
29627100,10012,-0.226196,-0.064575,0.959961,514
29637077,9977,-0.226807,-0.066528,0.960083,514
29647087,10010,-0.226196,-0.067505,0.959839,512
29657098,10011,-0.226562,-0.068115,0.959106,510
29667094,9996,-0.226196,-0.070068,0.958984,510
29677092,9998,-0.227173,-0.070312,0.958618,512
29687088,9996,-0.226929,-0.071777,0.958618,507
29697114,10026,-0.226318,-0.071655,0.958496,504
29707075,9961,-0.225952,-0.072876,0.959106,504
29717075,10000,-0.225464,-0.074341,0.959106,507
29727093,10018,-0.226074,-0.073486,0.959106,500
29737079,9986,-0.225708,-0.072144,0.959229,503
29747081,10002,-0.226318,-0.070190,0.959473,505
29757099,10018,-0.225830,-0.068726,0.960083,500
29767084,9985,-0.225586,-0.066528,0.959229,503
29777096,10012,-0.224731,-0.064697,0.958862,504
29787088,9992,-0.225830,-0.065186,0.959595,503
29797072,9984,-0.225708,-0.064453,0.959839,505
29807071,9999,-0.225342,-0.062866,0.960327,501
29817075,10004,-0.225464,-0.062988,0.961182,500
29827078,10003,-0.224365,-0.066895,0.963135,505
29837091,10013,-0.224487,-0.068970,0.963745,496
29847091,10000,-0.224487,-0.068848,0.963989,496
29857071,9980,-0.223755,-0.070068,0.964966,503
29867088,10017,-0.223389,-0.071777,0.964722,504
29877085,9997,-0.223267,-0.070435,0.962524,505
29887164,10079,-0.224121,-0.071411,0.960327,504
29897074,9910,-0.224854,-0.071167,0.959106,506
29907087,10013,-0.224121,-0.071289,0.959106,505
29917085,9998,-0.224609,-0.068970,0.958374,505
29927080,9995,-0.223511,-0.067749,0.957275,503
29937081,10001,-0.224365,-0.068481,0.957275,505
29947097,10016,-0.223755,-0.068726,0.958130,497
29957084,9987,-0.224121,-0.069336,0.959595,504
29967099,10015,-0.224365,-0.070435,0.962036,502
29977091,9992,-0.222900,-0.073486,0.967896,505
29987078,9987,-0.225708,-0.073853,0.965576,502
29997096,10018,-0.224609,-0.075195,0.965820,503
30007086,9990,-0.227295,-0.075928,0.962158,499
30017090,10004,-0.230347,-0.074219,0.963135,502
30027084,9994,-0.230347,-0.071899,0.964233,510
30037081,9997,-0.230713,-0.069092,0.966187,513
30047096,10015,-0.231812,-0.067139,0.962036,516
30057077,9981,-0.231445,-0.067749,0.958374,525
30067080,10003,-0.230957,-0.068848,0.957397,528
30077071,9991,-0.230469,-0.069946,0.956787,530
30087084,10013,-0.229492,-0.070068,0.958130,536
30097091,10007,-0.227417,-0.068604,0.957764,532
30107074,9983,-0.227417,-0.068848,0.956055,540
30117075,10001,-0.227417,-0.071167,0.954834,539
30127079,10004,-0.226318,-0.073853,0.954102,535
30137083,10004,-0.226807,-0.074707,0.954224,541
30147084,10001,-0.225586,-0.073853,0.951416,539
30157081,9997,-0.225952,-0.073486,0.952515,536
30167094,10013,-0.224243,-0.073364,0.954834,531
30177088,9994,-0.223877,-0.075684,0.955322,535
30187089,10001,-0.225220,-0.077881,0.955078,524
30197106,10017,-0.226562,-0.078979,0.958008,527
30207091,9985,-0.227539,-0.078613,0.965454,521
30217093,10002,-0.228027,-0.075317,0.966064,519
30227094,10001,-0.229614,-0.071777,0.965210,518
30237098,10004,-0.229126,-0.072021,0.964966,519
30247107,10009,-0.230591,-0.071533,0.965210,514
30257084,9977,-0.230347,-0.070068,0.966431,518
30267072,9988,-0.231323,-0.069336,0.967529,519
30277077,10005,-0.230835,-0.068115,0.965820,505
30287092,10015,-0.231689,-0.069214,0.965210,512
30297088,9996,-0.231323,-0.070801,0.965576,510
30307073,9985,-0.231567,-0.073853,0.965820,512
30317087,10014,-0.231323,-0.078125,0.964722,503
30327099,10012,-0.230469,-0.078491,0.962891,509
30337085,9986,-0.228882,-0.077026,0.962280,508
30347085,10000,-0.227905,-0.077393,0.961060,510
30357086,10001,-0.228149,-0.076050,0.960571,507
30367081,9995,-0.227661,-0.075806,0.960327,511
30377095,10014,-0.227783,-0.076294,0.960083,504
30387096,10001,-0.226074,-0.075928,0.960449,505
30397100,10004,-0.225830,-0.076050,0.958496,504
30407095,9995,-0.225830,-0.077515,0.958618,510
30417086,9991,-0.224487,-0.076538,0.958130,509
30427085,9999,-0.223511,-0.073608,0.958618,505
30437094,10009,-0.224121,-0.074463,0.958984,506
30447075,9981,-0.224731,-0.073975,0.960327,511
30457080,10005,-0.224609,-0.073608,0.959961,508
30467071,9991,-0.223999,-0.073853,0.959229,510
30477091,10020,-0.222900,-0.075562,0.960327,510
30487097,10006,-0.222656,-0.073853,0.959229,509
30497081,9984,-0.222656,-0.074951,0.958862,509
30507095,10014,-0.222046,-0.075928,0.958252,502
30517077,9982,-0.222534,-0.076172,0.956665,509
30527088,10011,-0.222900,-0.073120,0.957520,504
30537090,10002,-0.223022,-0.071777,0.955444,506
30547073,9983,-0.223877,-0.072021,0.955078,506
30557098,10025,-0.223755,-0.072388,0.956787,506
30567088,9990,-0.224609,-0.072754,0.958130,505
30577072,9984,-0.225464,-0.072510,0.958252,506
30587117,10045,-0.229004,-0.074219,0.960083,501
30597072,9955,-0.229736,-0.073608,0.962646,504
30607084,10012,-0.230591,-0.072388,0.963623,505
30617091,10007,-0.232666,-0.071655,0.963135,504
30627094,10003,-0.232178,-0.071777,0.964722,505
30637083,9989,-0.234131,-0.076050,0.964844,505
30647083,10000,-0.234375,-0.076904,0.963989,506
30657078,9995,-0.233398,-0.077026,0.962646,506
30667090,10012,-0.232788,-0.077271,0.962524,499
30677083,9993,-0.234009,-0.078491,0.961792,506
30687097,10014,-0.234375,-0.076904,0.961304,502
30697097,10000,-0.232422,-0.078735,0.959106,498
30707084,9987,-0.232178,-0.078735,0.959229,503
30717119,10035,-0.229736,-0.079224,0.959106,501
30727087,9968,-0.228271,-0.078857,0.958130,495
30737077,9990,-0.229126,-0.076782,0.955688,500
30747081,10004,-0.226685,-0.076538,0.955322,504
30757086,10005,-0.226440,-0.076416,0.955322,504
30767086,10000,-0.226196,-0.075806,0.955933,504
30777084,9998,-0.226318,-0.074341,0.956909,497
30787076,9992,-0.225342,-0.071899,0.957764,503
30797084,10008,-0.226929,-0.069946,0.957153,502
30807097,10013,-0.224121,-0.071899,0.960693,512
30817083,9986,-0.223389,-0.072754,0.961548,506
30827082,9999,-0.223511,-0.073242,0.962036,518
30837074,9992,-0.225098,-0.074829,0.962280,515
30847088,10014,-0.224487,-0.072510,0.963867,526
30857081,9993,-0.226318,-0.074707,0.962524,527
30867077,9996,-0.227295,-0.076538,0.961304,533
30877071,9994,-0.226562,-0.075684,0.962158,537
30887078,10007,-0.226929,-0.077026,0.962280,539
30897116,10038,-0.226685,-0.076904,0.963623,537
30907073,9957,-0.227295,-0.075928,0.962646,538
30917084,10011,-0.226685,-0.077393,0.960449,542
30927079,9995,-0.227661,-0.077881,0.959961,542
30937071,9992,-0.227539,-0.076294,0.958740,538
30947099,10028,-0.228882,-0.074097,0.958862,540
30957073,9974,-0.226074,-0.074219,0.958496,532
30967078,10005,-0.227905,-0.073120,0.958252,536
30977086,10008,-0.229126,-0.073486,0.957764,531
30987086,10000,-0.228394,-0.076294,0.957886,527
30997095,10009,-0.228149,-0.076904,0.955933,522
31007071,9976,-0.229492,-0.075684,0.958008,524
31018350,11279,-0.227417,-0.079834,0.958618,525
31027076,8726,-0.229492,-0.078857,0.958618,521
31037076,10000,-0.228027,-0.077148,0.958984,513
31047085,10009,-0.229614,-0.075562,0.960083,518
31057090,10005,-0.230835,-0.075928,0.959961,518
31067086,9996,-0.229126,-0.075928,0.961304,517
31077102,10016,-0.228394,-0.072388,0.966431,512
31087079,9977,-0.228027,-0.072021,0.966309,508
31097078,9999,-0.229370,-0.071655,0.965576,515
31110097,13019,-0.227905,-0.072632,0.967896,510
31117084,6987,0.000000,0.000000,0.000000,514
31127115,10031,-0.226685,-0.072998,0.964722,517
31137080,9965,-0.226318,-0.072510,0.963745,515
31147079,9999,-0.224609,-0.070801,0.965332,518
31157094,10015,-0.224609,-0.072144,0.966187,518
31167097,10003,-0.223145,-0.073486,0.963989,514
31177095,9998,-0.224243,-0.072632,0.961548,512
31187094,9999,-0.224243,-0.071655,0.957153,518
31197089,9995,-0.224731,-0.073364,0.956421,514
31207086,9997,-0.225830,-0.073608,0.955200,512
31217078,9992,-0.225342,-0.074341,0.955688,520
31227092,10014,-0.224976,-0.074829,0.954224,517
31237075,9983,-0.227295,-0.078491,0.954590,516
31247120,10045,-0.227905,-0.078369,0.954834,510
31257084,9964,-0.227661,-0.078125,0.957520,510
31267083,9999,-0.228760,-0.078857,0.956909,512
31277076,9993,-0.229858,-0.079468,0.958252,513
31287078,10002,-0.229492,-0.076904,0.958252,513
31297074,9996,-0.230225,-0.078491,0.958984,513
31307095,10021,-0.230713,-0.079224,0.959717,508
31317081,9986,-0.230835,-0.078613,0.961182,513
31327091,10010,-0.230835,-0.077637,0.961914,513
31337095,10004,-0.231567,-0.076294,0.961670,512
31347094,9999,-0.230957,-0.075073,0.959961,511
31357089,9995,-0.230469,-0.074463,0.960693,510
31367100,10011,-0.230469,-0.072998,0.962158,510
31377095,9995,-0.230469,-0.072510,0.961426,510
31387093,9998,-0.230225,-0.070923,0.961182,503
31397100,10007,-0.229980,-0.071167,0.961304,500
31407079,9979,-0.228149,-0.070435,0.961792,508
31417107,10028,-0.228027,-0.068115,0.960571,506
31427076,9969,-0.229736,-0.069214,0.961060,504
31437089,10013,-0.229858,-0.071777,0.962891,504
31447093,10004,-0.228027,-0.073242,0.962891,504
31457078,9985,-0.228516,-0.072998,0.962769,495
31467075,9997,-0.228271,-0.071289,0.964111,496
31477080,10005,-0.228027,-0.070557,0.964966,503
31487079,9999,-0.228516,-0.069946,0.962280,504
31497097,10018,-0.228638,-0.070312,0.962402,501
31507088,9991,-0.226440,-0.069580,0.960449,504
31517088,10000,-0.227539,-0.069702,0.958252,497
31527096,10008,-0.226929,-0.069214,0.958130,503
31537084,9988,-0.227417,-0.069580,0.958862,504
31547081,9997,-0.228027,-0.072144,0.958740,499
31557085,10004,-0.229248,-0.073853,0.959229,504
31567072,9987,-0.229736,-0.076050,0.958618,505
31577091,10019,-0.230347,-0.076294,0.959595,507
31587094,10003,-0.228271,-0.074463,0.959961,508
31597072,9978,-0.227783,-0.072998,0.960937,505
31607071,9999,-0.228882,-0.072632,0.960693,509
31617100,10029,-0.226685,-0.074341,0.963013,518
31627074,9974,-0.227417,-0.073120,0.962769,522
31637098,10024,-0.227173,-0.073120,0.962524,523
31647077,9979,-0.227783,-0.073364,0.961548,528
31657083,10006,-0.227417,-0.073730,0.960083,537
31667080,9997,-0.228149,-0.070923,0.958374,533
31677094,10014,-0.228394,-0.071411,0.961670,544
31687090,9996,-0.229370,-0.069336,0.961670,547
31697096,10006,-0.229980,-0.067627,0.963379,540
31707087,9991,-0.230713,-0.068481,0.962524,542
31718132,11045,-0.230347,-0.072510,0.959351,538
31727100,8968,-0.230225,-0.073486,0.961548,546
31737086,9986,-0.229980,-0.073364,0.961304,544
31747125,10039,-0.229248,-0.072876,0.960083,535
31757092,9967,-0.229858,-0.074097,0.960693,541
31767084,9992,-0.230225,-0.076050,0.960815,538
31777092,10008,-0.229736,-0.072510,0.958252,533
31787071,9979,-0.229736,-0.070557,0.957520,533
31797098,10027,-0.227905,-0.069214,0.954712,531
31807113,10015,-0.228149,-0.070435,0.955444,528
31817077,9964,-0.226929,-0.071289,0.954590,527
31827091,10014,-0.229858,-0.069824,0.954224,524
31837099,10008,-0.226074,-0.070190,0.955444,518
31847080,9981,-0.225830,-0.072510,0.956055,524
31857090,10010,-0.224609,-0.070190,0.956665,523
31867085,9995,-0.225952,-0.068726,0.957031,518
31877100,10015,-0.225464,-0.067993,0.957642,516
31887078,9978,-0.225220,-0.069336,0.959595,523
31897086,10008,-0.225464,-0.071533,0.959595,520
31907094,10008,-0.226685,-0.071533,0.961914,518
31917124,10030,-0.224976,-0.071533,0.960937,520
31927097,9973,-0.226318,-0.070801,0.961182,520
31937090,9993,-0.227295,-0.067139,0.960449,520
31947091,10001,-0.227661,-0.067383,0.959595,519
31957083,9992,-0.229370,-0.067627,0.960205,516
31967076,9993,-0.229004,-0.067505,0.960327,520
31977096,10020,-0.229126,-0.068726,0.960815,520
31987077,9981,-0.229004,-0.069092,0.960937,522
31997098,10021,-0.227661,-0.070557,0.962769,520
32007085,9987,-0.227905,-0.069702,0.964355,520
32017089,10004,-0.228149,-0.068726,0.961304,516
32027072,9983,-0.228271,-0.069214,0.961670,517
32037075,10003,-0.228760,-0.068359,0.961304,512
32047095,10020,-0.227783,-0.069580,0.960571,517
32057092,9997,-0.226440,-0.070435,0.961548,515
32067093,10001,-0.227905,-0.072266,0.962158,514
32077126,10033,-0.227905,-0.072754,0.961792,513
32087085,9959,-0.226929,-0.072021,0.960571,510
32097091,10006,-0.225586,-0.069458,0.961304,509
32107089,9998,-0.224609,-0.068970,0.959839,516
32117082,9993,-0.225952,-0.069214,0.960205,511
32127084,10002,-0.224731,-0.070435,0.960693,515
32137104,10020,-0.224365,-0.069702,0.961670,511
32147097,9993,-0.223022,-0.069824,0.959717,516
32157098,10001,-0.222290,-0.071655,0.960205,518
32167072,9974,-0.221436,-0.071655,0.961182,515
32177086,10014,-0.220825,-0.072021,0.958984,517
32187099,10013,-0.222046,-0.071045,0.957642,509
32197076,9977,-0.221924,-0.067261,0.956787,508
32207082,10006,-0.221436,-0.064087,0.958740,516
32217083,10001,-0.220337,-0.063721,0.957764,514
32227087,10004,-0.222412,-0.065430,0.955811,508
32237088,10001,-0.222290,-0.066650,0.957153,517
32247116,10028,-0.220093,-0.068359,0.960205,518
32257099,9983,-0.221680,-0.069092,0.960815,513
32267087,9988,-0.221924,-0.071167,0.960449,511
32277076,9989,-0.222046,-0.072021,0.960571,516
32287099,10023,-0.221802,-0.073608,0.961182,512
32297091,9992,-0.223022,-0.070679,0.960693,517
32307096,10005,-0.223022,-0.069946,0.960571,517
32317078,9982,-0.224731,-0.067261,0.962036,515
32327086,10008,-0.226196,-0.066650,0.963989,519
32337076,9990,-0.227295,-0.065430,0.964233,513
32347073,9997,-0.227173,-0.063965,0.962646,528
32357075,10002,-0.227417,-0.064819,0.964844,524
32367092,10017,-0.227417,-0.066406,0.966309,524
32377083,9991,-0.229492,-0.067627,0.967041,535
32387073,9990,-0.229004,-0.067993,0.967896,537
32397075,10002,-0.228882,-0.067505,0.969116,539
32407093,10018,-0.228760,-0.067505,0.966675,544
32417121,10028,-0.228271,-0.066284,0.966797,547
32427085,9964,-0.229126,-0.065918,0.963257,547
32437091,10006,-0.227173,-0.067871,0.961670,547
32447073,9982,-0.227295,-0.069336,0.959106,548
32457091,10018,-0.225708,-0.068604,0.960693,548
32467090,9999,-0.223755,-0.068115,0.960693,544
32477094,10004,-0.222900,-0.067871,0.957764,542
32487093,9999,-0.222290,-0.069214,0.954346,542
32497094,10001,-0.222900,-0.069580,0.953369,538
32507100,10006,-0.222168,-0.069458,0.953613,533
32517072,9972,-0.222290,-0.068726,0.953491,531
32527078,10006,-0.223022,-0.067505,0.952148,528
32537098,10020,-0.222534,-0.071411,0.952637,521
32547087,9989,-0.224609,-0.071289,0.953491,524
32557099,10012,-0.224243,-0.072144,0.955933,526
32567092,9993,-0.224365,-0.071289,0.958008,524
32577097,10005,-0.225464,-0.070557,0.958862,520
32587081,9984,-0.225586,-0.070557,0.958374,514
32597107,10026,-0.225586,-0.069092,0.960815,517
32607095,9988,-0.225708,-0.067383,0.961426,519
32617090,9995,-0.225342,-0.067505,0.963135,517
32627099,10009,-0.226318,-0.068237,0.964600,520
32637096,9997,-0.225708,-0.067505,0.962769,523
32647097,10001,-0.224976,-0.064575,0.962891,520
32657108,10011,-0.225952,-0.064697,0.962891,520
32667091,9983,-0.224854,-0.063354,0.963867,520
32677073,9982,-0.225952,-0.061768,0.962036,526
32687090,10017,-0.224854,-0.061768,0.961426,518
32697092,10002,-0.224731,-0.064209,0.964111,512
32707094,10002,-0.225708,-0.066162,0.964600,520
32717083,9989,-0.225220,-0.065796,0.963501,521
32727073,9990,-0.226562,-0.065674,0.963379,513
32737097,10024,-0.225220,-0.065796,0.961670,519
32747089,9992,-0.226562,-0.066284,0.960693,519
32757078,9989,-0.227051,-0.067505,0.959473,518
32767081,10003,-0.225952,-0.068970,0.957275,516
32777086,10005,-0.226562,-0.070679,0.954346,516
32787081,9995,-0.226562,-0.072266,0.953003,517
32797097,10016,-0.227661,-0.072754,0.952393,511
32807099,10002,-0.228516,-0.071655,0.952515,516
32817099,10000,-0.228882,-0.070923,0.954834,516
32827074,9975,-0.229004,-0.070557,0.955933,514
32837446,10372,-0.230103,-0.068848,0.957886,513
32847086,9640,-0.230835,-0.067261,0.957764,515
32857090,10004,-0.231201,-0.066650,0.958740,512
32867073,9983,-0.229980,-0.065918,0.962769,513
32877073,10000,-0.231079,-0.065918,0.963867,513
32887088,10015,-0.230347,-0.065430,0.964478,514
32897089,10001,-0.231079,-0.066040,0.965820,507
32907099,10010,-0.229614,-0.065674,0.966553,512
32917075,9976,-0.230713,-0.067505,0.967773,510
32927098,10023,-0.229248,-0.067749,0.968262,511
32937111,10013,-0.228394,-0.067383,0.967285,512
32947082,9971,-0.227905,-0.067017,0.965332,510
32957091,10009,-0.227539,-0.069092,0.963135,510
32967099,10008,-0.225464,-0.068359,0.961304,510
32977096,9997,-0.224243,-0.068726,0.958740,510
32987071,9975,-0.223999,-0.070801,0.958740,509
32997093,10022,-0.222656,-0.072510,0.959473,510
33007094,10001,-0.222534,-0.073242,0.958130,511
33017085,9991,-0.221802,-0.072510,0.958252,512
33027098,10013,-0.221313,-0.071899,0.958008,510
33037087,9989,-0.220093,-0.071655,0.960083,514
33047073,9986,-0.219604,-0.071167,0.959229,517
33057086,10013,-0.221680,-0.071167,0.960571,514
33067077,9991,-0.219971,-0.070679,0.960205,524
33077080,10003,-0.219604,-0.065796,0.960937,521
33087091,10011,-0.219849,-0.066528,0.960083,525
33097078,9987,-0.220703,-0.068970,0.959839,540
33107076,9998,-0.219971,-0.069580,0.960815,544
33117077,10001,-0.220947,-0.068604,0.961670,546
33127092,10015,-0.221802,-0.066772,0.961792,550
33137086,9994,-0.225708,-0.068359,0.963257,552
33147087,10001,-0.224731,-0.069214,0.963867,545
33157074,9987,-0.225830,-0.071045,0.962646,551
33167100,10026,-0.226074,-0.072266,0.963501,553
33177088,9988,-0.225464,-0.072021,0.965942,550
33187084,9996,-0.225464,-0.072144,0.964355,548
33197091,10007,-0.223633,-0.072510,0.963013,549
33207097,10006,-0.225952,-0.072998,0.961304,545
33217074,9977,-0.227783,-0.071533,0.960937,539
33227086,10012,-0.227051,-0.070312,0.960693,537
33237080,9994,-0.226074,-0.069580,0.957886,535
33247071,9991,-0.222534,-0.068848,0.959595,532
33257093,10022,-0.223145,-0.068848,0.959839,531
33267080,9987,-0.220947,-0.069336,0.960083,528
33277104,10024,-0.223267,-0.070557,0.958252,519
33287074,9970,-0.223389,-0.071045,0.959106,526
33297089,10015,-0.223633,-0.072021,0.961670,525
33307099,10010,-0.224121,-0.070923,0.962891,520
33317076,9977,-0.225586,-0.070679,0.962402,520
33327081,10005,-0.225708,-0.070312,0.962402,511
33337072,9991,-0.226440,-0.070801,0.962646,516
33347077,10005,-0.225098,-0.073242,0.963013,512
33357096,10019,-0.225830,-0.073120,0.963013,515
33367072,9976,-0.226074,-0.073242,0.961914,516
33377076,10004,-0.226562,-0.072388,0.961792,510
33387087,10011,-0.225708,-0.072510,0.960693,516
33397098,10011,-0.225830,-0.071655,0.959229,518
33407078,9980,-0.226440,-0.072021,0.957886,512
33417097,10019,-0.227539,-0.070801,0.958862,518
33427086,9989,-0.227051,-0.070068,0.958740,520
33437099,10013,-0.227783,-0.069702,0.960205,520
33447094,9995,-0.226929,-0.070801,0.961914,512
33457080,9986,-0.227661,-0.070190,0.960937,521
33467099,10019,-0.228271,-0.072021,0.961304,518
33477088,9989,-0.229248,-0.071167,0.960815,519
33487073,9985,-0.229736,-0.072388,0.960571,516
33497083,10010,-0.228149,-0.072266,0.960693,516
33507087,10004,-0.227539,-0.073853,0.962158,516
33517078,9991,-0.226929,-0.073853,0.963745,510
33527098,10020,-0.226196,-0.074707,0.963867,513
33537083,9985,-0.226318,-0.074341,0.963989,516
33547079,9996,-0.223999,-0.074463,0.963013,510
33557083,10004,-0.224365,-0.074707,0.961792,504
33567075,9992,-0.223145,-0.073975,0.959961,511
33577085,10010,-0.223511,-0.073120,0.961426,510
33587096,10011,-0.222046,-0.071533,0.962402,503
33597098,10002,-0.221802,-0.070801,0.961548,510
33607085,9987,-0.222290,-0.071777,0.959229,504
33617099,10014,-0.222412,-0.072021,0.959595,511
33627092,9993,-0.222168,-0.072876,0.958862,508
33637094,10002,-0.221924,-0.071167,0.960205,506
33647081,9987,-0.222412,-0.072144,0.960449,503
33657072,9991,-0.223022,-0.074707,0.958130,511
33667074,10002,-0.221924,-0.075439,0.958252,511
33677080,10006,-0.221313,-0.074219,0.960937,511
33687107,10027,-0.222656,-0.073242,0.962280,510
33697100,9993,-0.222290,-0.072998,0.961060,507
33707077,9977,-0.221924,-0.072510,0.960571,506
33717096,10019,-0.222412,-0.067993,0.959229,512
33727072,9976,-0.220581,-0.071411,0.958862,512
33737099,10027,-0.221924,-0.085449,0.958008,513
33747094,9995,-0.220459,-0.078979,0.958496,509
33757097,10003,-0.223511,-0.069580,0.960205,511
33767097,10000,-0.223267,-0.065430,0.962036,512
33777078,9981,-0.224854,-0.063110,0.962280,512
33787095,10017,-0.225830,-0.074341,0.963745,515
33797112,10017,-0.227417,-0.077026,0.963867,516
33807089,9977,-0.229004,-0.074341,0.963135,520
33817088,9999,-0.229004,-0.072510,0.964844,524
33827091,10003,-0.228149,-0.073730,0.965332,530
33837095,10004,-0.229614,-0.080078,0.963501,528
33847086,9991,-0.229370,-0.079956,0.963257,539
33857073,9987,-0.229126,-0.078735,0.964600,547
33867084,10011,-0.229492,-0.076782,0.960327,546
33877071,9987,-0.230347,-0.075928,0.958862,548
33887078,10007,-0.230469,-0.075439,0.956909,560
33897097,10019,-0.229370,-0.074463,0.956787,552
33907074,9977,-0.230225,-0.073853,0.956543,556
33917074,10000,-0.231323,-0.073730,0.955444,559
33927077,10003,-0.229858,-0.074463,0.956421,554
33937707,10630,-0.230469,-0.075195,0.956421,555
33948797,11090,-0.229980,-0.075684,0.958130,552
33957117,8320,-0.229126,-0.073486,0.960571,551
33967086,9969,-0.229126,-0.070923,0.960327,540
33977097,10011,-0.230103,-0.070679,0.962280,543
33987092,9995,-0.230225,-0.070679,0.961792,543
33997078,9986,-0.230469,-0.073853,0.962036,539
34007078,10000,-0.227173,-0.073120,0.962158,532
34017093,10015,-0.228149,-0.072510,0.962402,530
34027084,9991,-0.227539,-0.073364,0.963623,527
34037096,10012,-0.227417,-0.072876,0.963013,531
34047099,10003,-0.226562,-0.073242,0.962402,527
34057085,9986,-0.226685,-0.073608,0.960449,528
34067082,9997,-0.226318,-0.072021,0.961182,529
34077096,10014,-0.226807,-0.072510,0.960327,522
34087093,9997,-0.227783,-0.073975,0.959106,526
34097079,9986,-0.226562,-0.073730,0.958618,525
34107091,10012,-0.226318,-0.075073,0.958618,519
34117084,9993,-0.225342,-0.076294,0.958740,519
34127081,9997,-0.225464,-0.076538,0.959839,514
34137074,9993,-0.224854,-0.074829,0.961548,521
34147090,10016,-0.225342,-0.073853,0.962524,518
34157097,10007,-0.226440,-0.074219,0.962402,518
34167076,9979,-0.226074,-0.072998,0.961670,518
34177118,10042,-0.226440,-0.071411,0.960449,517
34187084,9966,-0.226929,-0.072144,0.959473,520
34197094,10010,-0.226807,-0.071167,0.958496,517
34207078,9984,-0.226929,-0.072021,0.958130,517
34217093,10015,-0.227417,-0.073242,0.958984,519
34227074,9981,-0.226929,-0.073364,0.959717,511
34237091,10017,-0.229858,-0.072998,0.960205,519
34247071,9980,-0.229736,-0.073730,0.959717,515
34257072,10001,-0.229980,-0.073608,0.959351,536
34267077,10005,-0.230835,-0.073120,0.961304,516
34277093,10016,-0.229126,-0.075317,0.961548,515
34287099,10006,-0.229004,-0.075562,0.961548,516
34297090,9991,-0.229614,-0.076172,0.961914,512
34307075,9985,-0.229736,-0.076538,0.961914,509
34317078,10003,-0.228516,-0.076172,0.961182,511
34327085,10007,-0.228149,-0.074951,0.960815,511
34337082,9997,-0.226562,-0.073853,0.961182,508
34347074,9992,-0.227051,-0.072998,0.963257,511
34357072,9998,-0.225586,-0.073608,0.960937,508
34367084,10012,-0.225952,-0.072876,0.961914,508
34377078,9994,-0.225708,-0.075073,0.962524,508
34387072,9994,-0.226318,-0.074585,0.961670,511
34397098,10026,-0.227295,-0.074463,0.961060,504
34407100,10002,-0.226440,-0.073853,0.960815,506
34417094,9994,-0.227661,-0.074097,0.959595,503
34427075,9981,-0.228516,-0.074097,0.959106,510
34437097,10022,-0.228760,-0.074341,0.959351,505
34447109,10012,-0.230103,-0.075928,0.959106,505
34457085,9976,-0.229126,-0.076050,0.960815,506
34467080,9995,-0.228271,-0.075928,0.961792,506
34477092,10012,-0.227661,-0.075439,0.961060,505
34487078,9986,-0.227905,-0.076172,0.960815,509
34497086,10008,-0.228149,-0.074829,0.960327,509
34507100,10014,-0.229370,-0.073486,0.958374,507
34517076,9976,-0.228027,-0.073364,0.958374,503
34527095,10019,-0.230591,-0.072144,0.958984,510
34537098,10003,-0.230713,-0.072266,0.958740,508
34547099,10001,-0.229614,-0.073364,0.957886,507
34557076,9977,-0.228149,-0.073364,0.956909,505
34567073,9997,-0.227783,-0.072144,0.956909,506
34577078,10005,-0.227417,-0.073120,0.957886,505
34587092,10014,-0.227051,-0.075317,0.958008,500
34597098,10006,-0.226562,-0.078369,0.959473,505
34607123,10025,-0.227661,-0.079590,0.960327,507
34617090,9967,-0.227173,-0.077515,0.961792,506
34627079,9989,-0.226685,-0.077026,0.961792,512
34637088,10009,-0.226685,-0.076660,0.961304,512
34647093,10005,-0.226929,-0.076538,0.963135,522
34657076,9983,-0.226929,-0.074829,0.962402,527
34667072,9996,-0.226685,-0.075073,0.961914,538
34677076,10004,-0.226929,-0.077637,0.963501,546
34687088,10012,-0.225952,-0.076782,0.964478,553
34697081,9993,-0.225342,-0.073853,0.964722,555
34707090,10009,-0.225952,-0.073120,0.961426,561
34717092,10002,-0.227173,-0.073608,0.961792,564
34727081,9989,-0.226562,-0.073730,0.962402,567
34737090,10009,-0.226807,-0.074585,0.962524,568
34747071,9981,-0.227051,-0.075195,0.963135,567
34757086,10015,-0.225952,-0.075073,0.961426,566
34767124,10038,-0.226929,-0.074463,0.958862,560
34777093,9969,-0.226562,-0.074463,0.957642,559
34787076,9983,-0.226318,-0.074341,0.957520,551
34797090,10014,-0.225830,-0.073364,0.957520,546
34807071,9981,-0.226196,-0.073242,0.957275,549
34817077,10006,-0.227051,-0.075562,0.958008,545
34827111,10034,-0.226929,-0.078979,0.958374,545
34837081,9970,-0.226807,-0.078003,0.959229,538
34847088,10007,-0.228149,-0.077515,0.958862,540
34857095,10007,-0.228516,-0.077881,0.958740,539
34867071,9976,-0.229126,-0.079956,0.958862,530
34877095,10024,-0.228271,-0.079590,0.959229,536
34887082,9987,-0.229126,-0.077637,0.958984,536
34897094,10012,-0.229004,-0.076416,0.959229,532
34907098,10004,-0.229248,-0.074829,0.960449,527
34917071,9973,-0.230713,-0.076416,0.961304,527
34927085,10014,-0.230225,-0.077271,0.960693,521
34937084,9999,-0.230225,-0.077271,0.960937,524
34947077,9993,-0.230347,-0.078125,0.961426,524
34957080,10003,-0.230591,-0.077759,0.963257,519
34967088,10008,-0.229126,-0.077148,0.964478,523
34977098,10010,-0.227173,-0.074707,0.962524,518
34987071,9973,-0.227173,-0.075073,0.964478,525
34997102,10031,-0.226929,-0.076416,0.963745,526
35007083,9981,-0.227051,-0.074707,0.961548,519
35017078,9995,-0.227295,-0.073975,0.962646,520
35027096,10018,-0.226196,-0.073975,0.962036,522
35037075,9979,-0.227051,-0.074341,0.959473,525
35047071,9996,-0.227783,-0.073242,0.959106,525
35057080,10009,-0.227051,-0.073120,0.957642,524
35067095,10015,-0.228027,-0.072510,0.957275,520
35077095,10000,-0.227173,-0.074585,0.957397,515
35087081,9986,-0.228027,-0.078003,0.957153,517
35097076,9995,-0.228638,-0.079956,0.957642,524
35107080,10004,-0.228271,-0.081177,0.958374,520
35117090,10010,-0.227905,-0.081299,0.957397,519
35127086,9996,-0.226196,-0.082031,0.958008,511
35137097,10011,-0.229492,-0.079712,0.956909,516
35147076,9979,-0.229248,-0.078979,0.956543,515
35157098,10022,-0.229492,-0.079346,0.957520,514
35167080,9982,-0.230225,-0.079346,0.958130,512
35177077,9997,-0.231079,-0.079346,0.958984,507
35187094,10017,-0.231445,-0.079102,0.961060,511
35197081,9987,-0.229370,-0.078003,0.960327,512
35207087,10006,-0.230591,-0.076782,0.960083,511
35217097,10010,-0.229614,-0.076782,0.959961,507
35227099,10002,-0.228394,-0.076904,0.961792,507
35237076,9977,-0.227173,-0.076294,0.962402,510
35247092,10016,-0.226929,-0.075684,0.961060,508
35257079,9987,-0.225952,-0.074585,0.962036,502
35267074,9995,-0.226196,-0.076416,0.963501,510
35277099,10025,-0.226807,-0.074707,0.963379,508
35287086,9987,-0.227173,-0.072998,0.961792,503
35297085,9999,-0.229370,-0.071777,0.960815,503
35307079,9994,-0.230225,-0.071411,0.961670,502
35317078,9999,-0.229370,-0.072021,0.961426,501
35327096,10018,-0.229614,-0.073120,0.961792,509
35337088,9992,-0.229858,-0.075928,0.961182,509
35347099,10011,-0.230469,-0.076660,0.960937,510
35357091,9992,-0.230469,-0.079468,0.961304,512
35367097,10006,-0.230591,-0.080688,0.960083,509
35377097,10000,-0.231079,-0.078735,0.960815,509
35387083,9986,-0.231323,-0.076294,0.959473,507
35397078,9995,-0.231567,-0.075928,0.957397,508
35407105,10027,-0.230591,-0.078857,0.957275,506
35417099,9994,-0.230713,-0.078857,0.954834,502
35427074,9975,-0.231445,-0.078369,0.956421,506
35437085,10011,-0.233398,-0.078613,0.956787,502
35447098,10013,-0.233276,-0.079956,0.956787,500
35457090,9992,-0.234863,-0.078491,0.956299,498
35467078,9988,-0.233398,-0.078491,0.957642,502
35477094,10016,-0.233276,-0.077881,0.957031,501
35487075,9981,-0.234619,-0.078369,0.957886,502
35497075,10000,-0.233765,-0.077881,0.959595,495
35507087,10012,-0.233765,-0.077881,0.959839,501
35517082,9995,-0.233276,-0.078491,0.962036,500
35527087,10005,-0.233643,-0.078979,0.964355,495
35537081,9994,-0.231567,-0.079468,0.965454,503
35547082,10001,-0.231323,-0.080444,0.965698,508
35557089,10007,-0.228882,-0.078979,0.966919,513
35567110,10021,-0.227051,-0.075928,0.968506,521
35577098,9988,-0.226562,-0.076660,0.966797,526
35587071,9973,-0.226074,-0.076416,0.966187,525
35597080,10009,-0.225342,-0.077881,0.965454,536
35607099,10019,-0.225708,-0.078735,0.964966,542
35617079,9980,-0.224731,-0.077759,0.962769,552
35627100,10021,-0.226807,-0.074707,0.961060,555
35637098,9998,-0.225220,-0.072754,0.960205,556
35647088,9990,-0.227051,-0.072021,0.962402,555
35657076,9988,-0.226318,-0.073242,0.961548,551
35667083,10007,-0.226318,-0.074829,0.960449,554
35677076,9993,-0.226074,-0.074829,0.959351,553
35687081,10005,-0.226196,-0.075562,0.960937,544
35697089,10008,-0.226685,-0.076294,0.960571,547
35707090,10001,-0.227905,-0.075684,0.960937,547
35717071,9981,-0.228271,-0.076050,0.959595,536
35727074,10003,-0.227417,-0.075073,0.959595,539
35737078,10004,-0.230225,-0.077026,0.959351,540
35747091,10013,-0.229248,-0.078369,0.959106,536
35757096,10005,-0.228271,-0.078125,0.960693,533
35767082,9986,-0.227783,-0.079468,0.960937,531
35777092,10010,-0.227539,-0.079834,0.959106,529
35787087,9995,-0.226196,-0.079590,0.957886,527
35801040,13953,-0.226685,-0.079590,0.958984,519
35807096,6056,-0.227295,-0.078491,0.959351,517
35817081,9985,-0.226807,-0.077393,0.958008,524
35827082,10001,-0.228638,-0.074219,0.958862,516
35837076,9994,-0.229126,-0.073486,0.957520,516
35847080,10004,-0.227417,-0.071045,0.956909,516
35857089,10009,-0.228149,-0.068970,0.958008,518
35867086,9997,-0.228271,-0.070435,0.957764,516
35877098,10012,-0.227783,-0.071777,0.958008,512
35887084,9986,-0.226929,-0.072266,0.957520,517
35897073,9989,-0.227905,-0.073120,0.958862,516
35907073,10000,-0.228394,-0.072754,0.958008,514
35917075,10002,-0.227539,-0.073486,0.959595,516
35927080,10005,-0.228027,-0.074341,0.960815,515
35937094,10014,-0.228882,-0.077759,0.960327,510
35947100,10006,-0.229614,-0.076294,0.960327,510
35957076,9976,-0.229248,-0.074707,0.960449,514
35967097,10021,-0.229736,-0.074585,0.961548,512
35977073,9976,-0.228149,-0.074219,0.960083,512
35987096,10023,-0.228760,-0.071533,0.959351,512
35997088,9992,-0.229126,-0.071655,0.958374,510
36007098,10010,-0.230713,-0.070435,0.957886,509
36017092,9994,-0.230591,-0.070190,0.958862,509
36027094,10002,-0.228638,-0.070190,0.960815,501
36037072,9978,-0.228882,-0.071533,0.958252,505
36047097,10025,-0.229858,-0.073242,0.958984,506
36057101,10004,-0.228149,-0.076782,0.960571,500
36067092,9991,-0.228027,-0.076416,0.962036,506
36077075,9983,-0.228027,-0.076538,0.960449,500
36087085,10010,-0.228394,-0.075439,0.959595,503
36097091,10006,-0.226807,-0.075928,0.960327,503
36107096,10005,-0.226685,-0.078735,0.958252,503
36117076,9980,-0.225830,-0.077881,0.957764,496
36127099,10023,-0.225342,-0.077393,0.959839,500
36137072,9973,-0.223755,-0.078857,0.960083,498
36147080,10008,-0.221802,-0.077759,0.959595,494
36157094,10014,-0.221191,-0.077271,0.960937,496
36167084,9990,-0.219482,-0.073364,0.958618,498
36177084,10000,-0.219360,-0.072266,0.959351,500
36187088,10004,-0.219116,-0.070679,0.959839,501
36197078,9990,-0.218872,-0.069214,0.960815,502
36207079,10001,-0.218994,-0.069702,0.961426,499
36217095,10016,-0.219971,-0.071289,0.960937,500
36227082,9987,-0.220093,-0.069458,0.963623,502
36237097,10015,-0.219360,-0.068848,0.964722,505
36247097,10000,-0.220093,-0.070068,0.964844,504
36257099,10002,-0.221436,-0.071777,0.963623,504
36267078,9979,-0.223755,-0.074707,0.962646,504
36277078,10000,-0.223145,-0.075684,0.960693,502
36287078,10000,-0.224487,-0.074707,0.960571,502
36297078,10000,-0.225220,-0.074463,0.960571,501
36307088,10010,-0.226562,-0.073242,0.958618,500
36317071,9983,-0.227173,-0.072021,0.958130,498
36327092,10021,-0.230103,-0.072144,0.957764,500
36337099,10007,-0.230713,-0.073608,0.955566,490
36347078,9979,-0.231567,-0.072998,0.956299,497
36357073,9995,-0.231567,-0.073608,0.959595,496
36367079,10006,-0.231323,-0.072632,0.959717,488
36377081,10002,-0.231323,-0.073242,0.961426,496
36387077,9996,-0.233032,-0.076904,0.960205,489
36397084,10007,-0.232422,-0.078369,0.960693,492
36407088,10004,-0.232056,-0.078735,0.962646,496
36417087,9999,-0.232544,-0.077148,0.962280,494
36427092,10005,-0.232666,-0.076416,0.960693,494
36437079,9987,-0.231323,-0.074585,0.962158,496
36447103,10024,-0.232788,-0.072998,0.961304,503
36457079,9976,-0.231934,-0.072266,0.961548,509
36467087,10008,-0.231201,-0.072998,0.961182,511
36477091,10004,-0.230957,-0.073975,0.961304,522
36487085,9994,-0.229004,-0.074341,0.959351,524
36497094,10009,-0.229492,-0.074829,0.957764,532
36507100,10006,-0.228394,-0.076904,0.959106,536
36517081,9981,-0.226440,-0.078369,0.958496,548
36527072,9991,-0.225952,-0.078369,0.957397,551
36537087,10015,-0.225098,-0.077515,0.956177,553
36547114,10027,-0.225830,-0.075317,0.956909,556
36557098,9984,-0.224854,-0.075195,0.958496,555
36567084,9986,-0.224976,-0.074707,0.958252,545
36577100,10016,-0.227295,-0.075684,0.957886,551
36587077,9977,-0.226562,-0.075928,0.960693,547
36597089,10012,-0.224731,-0.078735,0.960693,546
36607081,9992,-0.224121,-0.077271,0.961670,544
36617094,10013,-0.224121,-0.076416,0.963379,535
36627093,9999,-0.224243,-0.076172,0.963257,529
36637092,9999,-0.222168,-0.076904,0.964111,532
36647090,9998,-0.221680,-0.076904,0.961060,529
36657072,9982,-0.222046,-0.073853,0.962036,525
36667072,10000,-0.222046,-0.073242,0.961670,522
36677078,10006,-0.223999,-0.074463,0.960205,519
36687084,10006,-0.223511,-0.075195,0.961060,517
36697092,10008,-0.223755,-0.075195,0.961792,513
36707118,10026,-0.224609,-0.076172,0.961792,513
36717085,9967,-0.223999,-0.075073,0.962158,514
36727076,9991,-0.223755,-0.073853,0.961792,511
36737077,10001,-0.225708,-0.074097,0.963379,503
36747074,9997,-0.225220,-0.075806,0.962891,507
36757079,10005,-0.225830,-0.076904,0.960693,505
36767104,10025,-0.226685,-0.075317,0.957764,509
36777096,9992,-0.227173,-0.074219,0.957764,509
36787076,9980,-0.228149,-0.073242,0.956543,512
36797079,10003,-0.229980,-0.071777,0.956909,511
36807076,9997,-0.230347,-0.072510,0.955933,511
36817089,10013,-0.230591,-0.073486,0.959839,504
36827072,9983,-0.230591,-0.072632,0.960937,509
36837094,10022,-0.231567,-0.073242,0.961182,509
36847098,10004,-0.232544,-0.075195,0.963745,503
36857104,10006,-0.231812,-0.076538,0.962769,501
36867100,9996,-0.233398,-0.078491,0.961426,504
36877076,9976,-0.232544,-0.078735,0.962891,507
36887071,9995,-0.231812,-0.078857,0.964722,508
36897082,10011,-0.231079,-0.078857,0.965454,503
36907074,9992,-0.230835,-0.079956,0.965088,504
36917071,9997,-0.231812,-0.080322,0.963135,499
36927096,10025,-0.229614,-0.079712,0.962646,493
36937089,9993,-0.228516,-0.077026,0.961304,496
36947079,9990,-0.227173,-0.075928,0.960693,494
36957082,10003,-0.225708,-0.073853,0.959961,490
36967093,10011,-0.226318,-0.073730,0.960083,493
36977090,9997,-0.224854,-0.075806,0.955811,493
36987080,9990,-0.225098,-0.075439,0.956665,493
36997096,10016,-0.223511,-0.076172,0.956177,489
37007091,9995,-0.223633,-0.075439,0.956177,497
37017076,9985,-0.224243,-0.073853,0.956909,497
37027090,10014,-0.224609,-0.076416,0.958374,498
37037072,9982,-0.223755,-0.080078,0.957886,500
37047098,10026,-0.223633,-0.080811,0.958496,501
37057082,9984,-0.224487,-0.081665,0.956665,500
37067099,10017,-0.224487,-0.082031,0.954712,493
37077092,9993,-0.224243,-0.081421,0.955444,492
37087090,9998,-0.221924,-0.075439,0.956177,492
37097085,9995,-0.222534,-0.074707,0.958008,500
37107071,9986,-0.222534,-0.074219,0.961304,498
37117085,10014,-0.223145,-0.073975,0.962769,498
37127092,10007,-0.225708,-0.075195,0.963501,496
37137075,9983,-0.225586,-0.074951,0.966553,495
37147074,9999,-0.225586,-0.076660,0.968140,494
37157089,10015,-0.226562,-0.077515,0.968262,497
37167104,10015,-0.226318,-0.076782,0.967041,497
37177082,9978,-0.224243,-0.076294,0.968018,492
37187079,9997,-0.224243,-0.075806,0.964233,487
37197088,10009,-0.221436,-0.075195,0.962646,493
37207073,9985,-0.221191,-0.076050,0.961060,493
37217084,10011,-0.223633,-0.077881,0.959717,489
