t_us,dt_us,ax,ay,az,ppg
11640890,10021,0.366821,-0.535522,0.757446,512
11650894,10004,0.366821,-0.536011,0.757812,514
11660897,10003,0.366821,-0.536621,0.756104,508
11670891,9994,0.366089,-0.539429,0.750732,511
11680869,9978,0.367676,-0.542480,0.749512,511
11690894,10025,0.367188,-0.545166,0.751099,510
11700885,9991,0.369019,-0.548584,0.751709,510
11710880,9995,0.369751,-0.551147,0.751831,510
11720886,10006,0.367798,-0.551514,0.748901,503
11730897,10011,0.366211,-0.550049,0.746948,506
11740872,9975,0.363770,-0.550903,0.749634,506
11750895,10023,0.362671,-0.552246,0.748657,498
11760889,9994,0.359619,-0.553101,0.750977,507
11770871,9982,0.357422,-0.553223,0.751587,506
11780898,10027,0.352783,-0.551392,0.748413,505
11790887,9989,0.351929,-0.550171,0.747681,502
11800879,9992,0.352783,-0.549316,0.748047,494
11810897,10018,0.354736,-0.548828,0.748047,495
11820880,9983,0.353516,-0.550537,0.748169,498
11830887,10007,0.354004,-0.548462,0.751587,496
11840869,9982,0.354980,-0.540894,0.751587,507
11850872,10003,0.355957,-0.538696,0.750977,508
11860876,10004,0.356445,-0.538940,0.750122,507
11870898,10022,0.355469,-0.537109,0.750366,513
11880871,9973,0.354248,-0.536865,0.750854,519
11890881,10010,0.356445,-0.538208,0.747192,521
11900906,10025,0.357666,-0.539795,0.742554,530
11910896,9990,0.358643,-0.541382,0.738037,535
11920884,9988,0.360962,-0.544312,0.738159,536
11930879,9995,0.362427,-0.545898,0.736816,531
11940881,10002,0.364624,-0.544434,0.741089,530
11950882,10001,0.366699,-0.541992,0.739380,534
11960881,9999,0.368774,-0.541016,0.737915,532
11970890,10009,0.367676,-0.539795,0.736328,532
11980892,10002,0.366699,-0.537476,0.736084,527
11990887,9995,0.363525,-0.535645,0.735107,518
12000871,9984,0.358154,-0.530640,0.724854,522
12010894,10023,0.355591,-0.531250,0.721191,518
12020880,9986,0.355469,-0.529785,0.714966,516
12030885,10005,0.354492,-0.526489,0.708984,513
12040878,9993,0.355225,-0.521851,0.702026,509
12050876,9998,0.353516,-0.502563,0.684326,506
12060869,9993,0.351929,-0.484131,0.686890,501
12070891,10022,0.362427,-0.492310,0.687256,503
12080911,10020,0.376709,-0.541016,0.700928,498
12090881,9970,0.395874,-0.564941,0.712769,496
12100891,10010,0.411011,-0.562988,0.714600,487
12110898,10007,0.426025,-0.522095,0.702515,496
12120894,9996,0.427979,-0.515137,0.694214,492
12130895,10001,0.429687,-0.517212,0.691528,496
12140875,9980,0.433960,-0.530029,0.691772,499
12150892,10017,0.436157,-0.548584,0.691895,500
12160898,10006,0.436646,-0.571411,0.711914,501
12170885,9987,0.445312,-0.567627,0.716553,502
12180891,10006,0.446655,-0.554932,0.714844,502
12190872,9981,0.442627,-0.541016,0.708008,495
12200876,10004,0.441284,-0.530518,0.702515,499
12210896,10020,0.438477,-0.523560,0.693237,507
12220894,9998,0.433594,-0.514526,0.689941,509
12230884,9990,0.432129,-0.513428,0.691406,503
12240892,10008,0.435669,-0.512451,0.693604,510
12250880,9988,0.441772,-0.512451,0.695923,503
12260877,9997,0.448242,-0.514282,0.696533,498
12270882,10005,0.461548,-0.513184,0.691772,506
12280895,10013,0.467773,-0.507080,0.684814,502
12290871,9976,0.470825,-0.501587,0.686890,495
12300890,10019,0.479370,-0.500488,0.696167,495
12310895,10005,0.493408,-0.498779,0.702637,498
12320894,9999,0.503418,-0.499023,0.703613,496
12330898,10004,0.523071,-0.497314,0.699951,496
12340869,9971,0.529419,-0.491089,0.693604,493
12350879,10010,0.532593,-0.486450,0.696167,489
12360877,9998,0.540405,-0.484497,0.697144,499
12370891,10014,0.549805,-0.485596,0.698242,499
12380869,9978,0.554077,-0.483154,0.688232,501
12390898,10029,0.554932,-0.480835,0.681885,505
12400881,9983,0.555054,-0.477051,0.680420,508
12410881,10000,0.556152,-0.472046,0.677612,511
12420898,10017,0.558228,-0.473267,0.677856,513
12430891,9993,0.561768,-0.476318,0.679077,516
12440874,9983,0.569946,-0.478271,0.692139,518
12450897,10023,0.588745,-0.477173,0.695801,528
12460884,9987,0.603882,-0.465454,0.682007,531
12470876,9992,0.596313,-0.454468,0.666382,537
12482560,11684,0.602051,-0.452271,0.657104,542
12490894,8334,0.601807,-0.454712,0.661011,538
12500890,9996,0.606812,-0.456421,0.663452,538
12510875,9985,0.610840,-0.456543,0.662964,544
12520875,10000,0.611450,-0.452637,0.658691,539
12530893,10018,0.614258,-0.447144,0.649658,534
12540881,9988,0.622803,-0.427612,0.636475,535
12550881,10000,0.634521,-0.424438,0.643066,534
12560880,9999,0.657837,-0.421143,0.638306,528
12570885,10005,0.668213,-0.416138,0.629639,522
12580893,10008,0.672363,-0.419922,0.623779,524
12590892,9999,0.680054,-0.437012,0.630249,524
12600898,10006,0.685669,-0.461548,0.655029,522
12610896,9998,0.688477,-0.470459,0.661865,520
12620869,9973,0.683105,-0.475342,0.665527,520
12630883,10014,0.682617,-0.478516,0.657104,511
12640888,10005,0.677490,-0.476807,0.647583,512
12662467,21579,0.666992,-0.446655,0.559448,507
12667673,5206,0.000000,0.000000,0.000000,506
12671671,3998,0.654419,-0.421021,0.549072,504
12680886,9215,0.646240,-0.392944,0.562866,499
12690920,10034,0.644165,-0.380127,0.590210,499
12700881,9961,0.649170,-0.421875,0.668579,509
12710886,10005,0.679443,-0.449341,0.688354,509
12720889,10003,0.701172,-0.466309,0.677246,507
12730873,9984,0.707153,-0.466064,0.654297,502
12740883,10010,0.703003,-0.463501,0.638062,499
12750887,10004,0.702148,-0.455566,0.627686,489
12760879,9992,0.708740,-0.417847,0.603149,484
12770891,10012,0.707031,-0.401367,0.602905,482
12780871,9980,0.712646,-0.395142,0.596313,482
12790880,10009,0.713745,-0.398560,0.591553,473
12800890,10010,0.711182,-0.403687,0.597778,473
12810869,9979,0.744263,-0.394653,0.606812,471
12820875,10006,0.717041,-0.385376,0.601074,459
12830914,10039,0.713257,-0.378540,0.590942,462
12840898,9984,0.711670,-0.373657,0.571045,459
12850870,9972,0.713135,-0.370972,0.557739,454
12860895,10025,0.710937,-0.371338,0.554565,454
12870881,9986,0.730957,-0.385254,0.570557,448
12880882,10001,0.743652,-0.391357,0.585205,444
12890896,10014,0.760254,-0.395874,0.593384,446
12900887,9991,0.767944,-0.397949,0.592041,452
12910886,9999,0.769409,-0.398193,0.583252,453
12920873,9987,0.767090,-0.391602,0.563110,455
12930881,10008,0.765625,-0.381714,0.552368,458
12940897,10016,0.761597,-0.368896,0.541260,459
12950883,9986,0.756348,-0.360962,0.537964,460
12960874,9991,0.757812,-0.353394,0.532104,460
12970876,10002,0.759033,-0.345825,0.518921,469
12980873,9997,0.751343,-0.324097,0.496948,474
12990883,10010,0.748901,-0.310791,0.484253,479
13000881,9998,0.747070,-0.303589,0.481934,480
13010889,10008,0.744873,-0.309326,0.486816,491
13020883,9994,0.745483,-0.321411,0.497192,499
13030907,10024,0.749268,-0.353149,0.512085,502
13040880,9973,0.752686,-0.365479,0.514404,507
13050889,10009,0.757935,-0.369141,0.509399,512
13060877,9988,0.760986,-0.365356,0.499146,528
13070886,10009,0.764648,-0.357178,0.482056,531
13080886,10000,0.766235,-0.342529,0.469482,539
13090911,10025,0.779297,-0.290527,0.439087,544
13100885,9974,0.778320,-0.266479,0.434570,547
13110877,9992,0.777710,-0.254395,0.444580,543
13120883,10006,0.783081,-0.254272,0.464111,550
13130887,10004,0.795654,-0.263428,0.479004,549
13140869,9982,0.811401,-0.271118,0.493652,550
13150893,10024,0.817749,-0.266968,0.487793,544
13160877,9984,0.822144,-0.257202,0.477905,539
13170878,10001,0.826538,-0.244873,0.468384,534
13180880,10002,0.834839,-0.232910,0.457153,525
13190880,10000,0.842896,-0.224731,0.444702,520
13200870,9990,0.842407,-0.225952,0.439575,513
13210882,10012,0.850342,-0.226807,0.451538,507
13220870,9988,0.865112,-0.227173,0.460693,503
13230889,10019,0.863647,-0.229126,0.469360,499
13240905,10016,0.862549,-0.228516,0.473511,495
13250869,9964,0.867065,-0.220581,0.460449,493
13260876,10007,0.871216,-0.215332,0.446533,487
13270873,9997,0.873169,-0.209473,0.429565,487
13280878,10005,0.873047,-0.204712,0.418335,491
13290891,10013,0.870728,-0.204956,0.419067,492
13302667,11776,0.878540,-0.215210,0.444336,495
13310888,8221,0.877075,-0.219604,0.452148,498
13320885,9997,0.877686,-0.224976,0.460571,504
13330890,10005,0.881470,-0.230713,0.467651,507
13340869,9979,0.883545,-0.234253,0.472412,507
13350891,10022,0.888428,-0.233643,0.472046,509
13360874,9983,0.889648,-0.227295,0.457153,511
13370882,10008,0.887085,-0.220825,0.449219,514
13380893,10011,0.883911,-0.214111,0.445679,514
13390887,9994,0.881470,-0.208252,0.446899,520
13400869,9982,0.883423,-0.204102,0.454224,514
13410894,10025,0.881714,-0.207642,0.461060,523
13420896,10002,0.883057,-0.215942,0.461548,526
13430879,9983,0.882080,-0.219482,0.460205,525
13440884,10005,0.882812,-0.221680,0.456665,530
13450871,9987,0.882080,-0.223145,0.450195,522
13460881,10010,0.882324,-0.225342,0.447388,523
13476323,15442,0.881226,-0.226440,0.438599,524
13481535,5212,0.879517,-0.225220,0.433960,520
13490869,9334,0.876221,-0.224121,0.434937,518
13500878,10009,0.871338,-0.225708,0.438477,523
13510907,10029,0.872192,-0.230591,0.442383,525
13520874,9967,0.903320,-0.241333,0.440186,524
13530897,10023,0.877808,-0.244263,0.436035,518
13540895,9998,0.878662,-0.241943,0.429687,522
13550881,9986,0.880493,-0.235229,0.424805,523
13560888,10007,0.878784,-0.225830,0.422485,513
13570893,10005,0.881592,-0.217773,0.419922,523
13580875,9982,0.886108,-0.211426,0.418457,524
13590872,9997,0.888916,-0.210449,0.418457,523
13600869,9997,0.894653,-0.208740,0.416260,523
13610871,10002,0.896484,-0.208252,0.412720,526
13620875,10004,0.899902,-0.207886,0.408936,527
13630897,10022,0.906372,-0.205566,0.406982,521
13640893,9996,0.906372,-0.203613,0.406006,533
13650887,9994,0.904541,-0.198364,0.410156,538
13660899,10012,0.905273,-0.186890,0.415771,534
13670890,9991,0.905640,-0.178955,0.416138,543
13680894,10004,0.906738,-0.180176,0.412598,544
13690893,9999,0.907959,-0.193115,0.409302,545
13700871,9978,0.904297,-0.194824,0.414551,539
13710894,10023,0.901611,-0.196167,0.420166,544
13720882,9988,0.901978,-0.192017,0.424194,544
13730869,9987,0.903320,-0.187012,0.427979,540
13740885,10016,0.901611,-0.177734,0.422852,539
13750874,9989,0.900024,-0.171265,0.417114,528
13760887,10013,0.899658,-0.164917,0.409668,525
13770880,9993,0.897949,-0.157837,0.402710,526
13780886,10006,0.896484,-0.155273,0.399536,517
13790871,9985,0.895874,-0.158203,0.401245,524
13800875,10004,0.896973,-0.172119,0.406250,520
13810869,9994,0.892212,-0.177124,0.411011,518
13820887,10018,0.889893,-0.184814,0.415649,516
13830879,9992,0.886841,-0.195557,0.415283,515
13840885,10006,0.885376,-0.204956,0.409424,511
13850879,9994,0.885498,-0.206909,0.386841,506
13860878,9999,0.887085,-0.196533,0.376465,505
13870877,9999,0.885864,-0.187622,0.372803,510
13880895,10018,0.882446,-0.178223,0.377563,512
13890885,9990,0.876587,-0.172607,0.381714,515
13900874,9989,0.870605,-0.175415,0.388672,514
13910889,10015,0.864502,-0.191650,0.392822,512
13920877,9988,0.865601,-0.200195,0.394165,514
13930887,10010,0.866821,-0.207153,0.393555,516
13940894,10007,0.871704,-0.209961,0.392090,515
13950892,9998,0.873901,-0.209351,0.389160,516
13960884,9992,0.876587,-0.196045,0.376343,510
13970881,9997,0.875488,-0.187744,0.372314,514
13980880,9999,0.873291,-0.181763,0.371948,507
13990887,10007,0.870728,-0.180786,0.375366,512
14000897,10010,0.867798,-0.184326,0.379395,510
14015356,14459,0.871826,-0.204102,0.382813,502
14021005,5649,0.875366,-0.210205,0.382202,509
14030887,9882,0.879028,-0.212402,0.381470,507
14040880,9993,0.880859,-0.212646,0.382446,503
14050894,10014,0.887085,-0.212036,0.388184,501
14060874,9980,0.890625,-0.220337,0.402466,502
14070879,10005,0.896484,-0.258179,0.432373,499
14080870,9991,0.895142,-0.276245,0.433472,498
14090890,10020,0.892334,-0.284302,0.425537,495
14100889,9999,0.887451,-0.282715,0.412354,492
14110877,9988,0.886230,-0.274780,0.400635,485
14120910,10033,0.887939,-0.238770,0.384277,479
14130887,9977,0.887451,-0.210327,0.391602,485
14140886,9999,0.887573,-0.182251,0.407104,483
14150889,10003,0.885498,-0.168091,0.421753,487
14160869,9980,0.884521,-0.170410,0.430054,490
14170889,10020,0.883667,-0.181274,0.428589,488
14180884,9995,0.888062,-0.218384,0.412842,495
14190873,9989,0.888916,-0.238770,0.403198,495
14200881,10008,0.888306,-0.252319,0.395508,496
14210893,10012,0.886108,-0.260376,0.390503,495
14220881,9988,0.883179,-0.263428,0.386963,505
14230892,10011,0.880981,-0.258545,0.382324,510
14240885,9993,0.884766,-0.253174,0.380127,509
14250894,10009,0.887939,-0.246826,0.375000,520
14260879,9985,0.893066,-0.241211,0.372437,525
14270910,10031,0.901123,-0.237793,0.368896,532
14280878,9968,0.907715,-0.235840,0.369141,533
14290877,9999,0.915039,-0.231934,0.370117,520
14300886,10009,0.915649,-0.228882,0.372070,536
14310893,10007,0.913940,-0.223999,0.374268,531
14324962,14069,0.901733,-0.212891,0.365601,530
14330893,5931,0.000000,0.000000,0.000000,532
14340889,9996,0.906494,-0.193604,0.378052,519
14350898,10009,0.901855,-0.185791,0.382813,515
14360895,9997,0.901123,-0.179810,0.383911,514
14370889,9994,0.893188,-0.177856,0.393555,517
14380871,9982,0.887085,-0.184448,0.412842,515
14390876,10005,0.886108,-0.215454,0.446533,513
14400872,9996,0.892456,-0.381592,0.556274,509
14410874,10002,0.902466,-0.468018,0.591919,498
14422872,11998,0.900269,-0.465088,0.577148,499
14430887,8015,0.902832,-0.359619,0.537476,491
14440884,9997,0.892822,-0.238281,0.498413,502
14450896,10012,0.878906,-0.091064,0.538086,519
14460892,9996,0.871582,-0.171021,0.617554,539
14470882,9990,0.880249,-0.338501,0.718994,553
14480889,10007,0.871582,-0.531372,0.794678,563
14490877,9988,0.843140,-0.694702,0.832153,563
14500888,10011,0.817261,-0.791626,0.803223,563
14510897,10009,0.859863,-0.711060,0.772827,558
14520880,9983,0.895386,-0.594116,0.768188,557
14530901,10021,0.893555,-0.566040,0.791138,562
14540873,9972,0.870972,-0.628052,0.835937,570
14550887,10014,0.851196,-0.736084,0.872681,572
14560880,9993,0.826538,-0.895142,0.897461,574
14570898,10018,0.819580,-0.920410,0.886841,584
14582880,11982,0.814819,-0.925415,0.874146,579
14590885,8005,0.811279,-0.924316,0.861084,573
14600887,10002,0.811646,-0.910889,0.845459,565
14610892,10005,0.821411,-0.752441,0.830078,553
14620877,9985,0.806152,-0.740479,0.818481,553
14630877,10000,0.780273,-0.725464,0.799927,545
14640883,10006,0.759399,-0.683960,0.775757,551
14650869,9986,0.741211,-0.632812,0.745728,556
14660887,10018,0.710693,-0.628174,0.727783,553
14670910,10023,0.684326,-0.716797,0.745972,557
14680887,9977,0.716309,-0.755737,0.722046,556
14690883,9996,0.729980,-0.726685,0.694214,554
14700885,10002,0.726074,-0.646484,0.675903,546
14710894,10009,0.719482,-0.509766,0.646118,545
14720922,10028,0.622437,-0.345703,0.637573,548
14730891,9969,0.573730,-0.342285,0.665649,552
14740889,9998,0.538086,-0.389526,0.692993,571
14750877,9988,0.510742,-0.454834,0.725342,596
14760893,10016,0.500732,-0.502563,0.759399,577
14770872,9979,0.506226,-0.510010,0.777832,581
14780879,10007,0.479004,-0.411011,0.767334,575
14790871,9992,0.433838,-0.317139,0.761108,562
14800885,10014,0.384644,-0.211060,0.783203,550
14810871,9986,0.355835,-0.114014,0.786865,544
14820880,10009,0.311890,-0.058105,0.771484,550
14834194,13314,0.213501,-0.135132,0.757812,558
14840890,6696,0.199951,-0.213379,0.768921,555
14850890,10000,0.206543,-0.278198,0.780884,558
14860872,9982,0.217041,-0.313721,0.786621,552
14870877,10005,0.223999,-0.318481,0.779907,546
14880873,9996,0.220825,-0.289429,0.771606,527
14890870,9997,0.198242,-0.187866,0.780151,516
14900880,10010,0.179077,-0.157349,0.795166,511
14910886,10006,0.160278,-0.119873,0.805664,490
14920891,10005,0.134277,-0.062500,0.814575,477
14930879,9988,0.106079,0.033081,0.821045,470
14940897,10018,0.052612,0.147339,0.796387,459
14950898,10001,0.025391,0.124146,0.790161,457
14960890,9992,0.001709,0.055542,0.799194,452
14970886,9996,-0.007202,-0.032349,0.816406,449
14980878,9992,-0.008911,-0.084473,0.828735,438
14990890,10012,-0.026733,-0.096924,0.868042,425
15000889,9999,-0.044189,-0.022095,0.843018,412
15010874,9985,-0.060913,0.040283,0.838257,397
15020897,10023,-0.070435,0.087402,0.833374,393
15030896,9999,-0.073975,0.104004,0.820312,392
15040895,9999,-0.071289,0.101807,0.799072,389
15050875,9980,-0.108032,0.010376,0.827393,389
15060906,10031,-0.107910,-0.004517,0.848999,377
15070887,9981,-0.127319,-0.026855,0.904053,376
15080894,10007,-0.115601,-0.016357,0.918457,380
15090881,9987,-0.133667,0.016602,0.942505,377
15100890,10009,-0.141235,0.095825,0.970337,378
15110877,9987,-0.171753,0.173096,0.971069,381
15126381,15504,-0.193359,0.236084,0.973633,393
15131782,5401,0.000000,0.000000,0.000000,387
15140890,9108,-0.211304,0.229858,0.974243,393
15150890,10000,-0.216309,0.214478,0.965454,403
15160898,10008,-0.209717,0.159058,0.950317,406
15170896,9998,-0.197021,0.139038,0.949219,399
15180883,9987,-0.196899,0.134766,0.949097,398
15198973,18090,-0.200195,0.111206,0.995483,390
15204234,5261,-0.198608,0.097290,1.000610,380
15210880,6646,0.000000,0.000000,0.000000,386
15220884,10004,-0.204834,0.099487,0.989014,373
15230896,10012,-0.198975,0.122192,0.969727,380
15240873,9977,-0.195557,0.129639,0.962158,376
15250892,10019,-0.184082,0.104492,0.974854,385
15260877,9985,-0.176880,0.081909,0.987915,383
15270896,10019,-0.209961,0.066040,0.980225,393
15280870,9974,-0.236816,0.066772,0.966064,404
15290877,10007,-0.252808,0.087402,0.947510,414
15300883,10006,-0.272583,0.116699,0.930664,425
15310876,9993,-0.284668,0.144165,0.911743,435
15320897,10021,-0.298950,0.142334,0.899902,445
15330899,10002,-0.289185,0.130249,0.895508,454
15340873,9974,-0.283203,0.121582,0.880981,457
15350891,10018,-0.288696,0.119751,0.863892,460
15360887,9996,-0.299316,0.120361,0.844238,459
15370891,10004,-0.304321,0.124390,0.820190,462
15380887,9996,-0.308594,0.133423,0.794678,461
15390892,10005,-0.306274,0.140625,0.788818,456
15400887,9995,-0.303589,0.154175,0.787720,452
15418054,17167,-0.299316,0.147583,0.822388,436
15423644,5590,-0.288696,0.139282,0.840942,442
15430875,7231,0.000000,0.000000,0.000000,430
15440882,10007,-0.284912,0.118286,0.860962,432
15450886,10004,-0.286743,0.115479,0.862671,427
15460884,9998,-0.288940,0.120117,0.856689,433
15470895,10011,-0.285767,0.130981,0.844360,431
15480898,10003,-0.282593,0.147217,0.837402,433
15490887,9989,-0.283325,0.162842,0.845703,431
15500873,9986,-0.280273,0.157593,0.858032,431
15515282,14409,-0.285522,0.137695,0.873047,431
15520883,5601,0.000000,0.000000,0.000000,421
15530881,9998,-0.301147,0.127441,0.874268,429
15541250,10369,-0.317871,0.118408,0.872070,422
15550872,9622,-0.316650,0.118286,0.866211,432
15560890,10018,-0.312500,0.127563,0.867065,423
15570894,10004,-0.301025,0.141724,0.879639,426
15580891,9997,-0.285278,0.152588,0.890625,433
15590893,10002,-0.271851,0.159424,0.897461,428
15600892,9999,-0.239502,0.162598,0.909058,434
15610883,9991,-0.231079,0.171753,0.915161,437
15620887,10004,-0.229736,0.180298,0.921265,435
15630875,9988,-0.230225,0.189331,0.930298,430
15640890,10015,-0.234009,0.202148,0.937378,429
15650882,9992,-0.230835,0.221191,0.948242,434
15660896,10014,-0.223145,0.216187,0.966919,440
15670877,9981,-0.211060,0.210083,0.974121,438
15680880,10003,-0.210083,0.206909,0.969971,437
15690897,10017,-0.218018,0.213135,0.963867,440
15700874,9977,-0.231201,0.217651,0.962402,434
15710888,10014,-0.231201,0.220581,0.936768,445
15720875,9987,-0.227539,0.218628,0.926636,441
15730875,10000,-0.226196,0.213867,0.922729,450
15740871,9996,-0.229858,0.208740,0.926270,454
15750871,10000,-0.230713,0.205566,0.936279,458
15760885,10014,-0.219360,0.207275,0.950195,457
15770910,10025,-0.215088,0.208374,0.959595,456
15780888,9978,-0.205444,0.208984,0.965576,455
15790876,9988,-0.200928,0.211426,0.965332,450
15800877,10001,-0.197266,0.217041,0.966431,458
15810889,10012,-0.190063,0.219360,0.964844,461
15820873,9984,-0.186646,0.232300,0.958008,458
15830898,10025,-0.190063,0.238525,0.953735,457
15840880,9982,-0.190796,0.248413,0.956055,456
15850876,9996,-0.188232,0.247192,0.961914,458
15860896,10020,-0.187134,0.237061,0.968140,454
15870870,9974,-0.191162,0.215576,0.984375,459
15880886,10016,-0.190674,0.212158,0.989746,457
15890888,10002,-0.194336,0.216919,0.989380,458
15900884,9996,-0.199463,0.226929,0.984131,460
15910875,9991,-0.207153,0.236938,0.974487,456
15920882,10007,-0.206543,0.244629,0.952148,466
15930885,10003,-0.193481,0.255493,0.937866,467
15940896,10011,-0.187866,0.264771,0.928833,469
15950870,9974,-0.179321,0.271606,0.931885,465
15960897,10027,-0.165527,0.276367,0.943604,471
15970898,10001,-0.158936,0.278076,0.957764,471
15980897,9999,-0.153564,0.266602,0.974976,476
15990869,9972,-0.152222,0.258057,0.978027,475
16000874,10005,-0.150757,0.250854,0.980957,467
16010870,9996,-0.153931,0.248169,0.991455,467
16020894,10024,-0.154663,0.248413,1.004395,474
16030885,9991,-0.185791,0.280640,1.000977,463
16040890,10005,-0.174316,0.288574,0.983643,464
16050883,9993,-0.185059,0.283447,0.955322,473
16060876,9993,-0.196899,0.271484,0.932739,475
16070893,10017,-0.202881,0.257324,0.918091,482
16080883,9990,-0.202026,0.241089,0.913208,485
16090889,10006,-0.213989,0.223267,0.920776,488
16100884,9995,-0.218628,0.221191,0.931885,489
16110897,10013,-0.223267,0.221802,0.934692,492
16120877,9980,-0.232544,0.224731,0.929565,489
16130881,10004,-0.241577,0.219360,0.915283,492
16140886,10005,-0.247437,0.232056,0.874390,492
16150922,10036,-0.249512,0.249268,0.862061,493
16160892,9970,-0.249390,0.253418,0.860962,496
16170875,9983,-0.246338,0.239502,0.863403,487
16180869,9994,-0.241577,0.223755,0.865601,494
16190891,10022,-0.242920,0.209961,0.868774,488
16200895,10004,-0.244019,0.203125,0.860840,491
16210893,9998,-0.243774,0.213501,0.854492,490
16220895,10002,-0.244507,0.233521,0.849609,482
16230874,9979,-0.241577,0.249878,0.853394,485
16240887,10013,-0.234497,0.259033,0.865112,484
16250874,9987,-0.223022,0.247803,0.885986,484
16260897,10023,-0.222046,0.237183,0.885010,480
16270885,9988,-0.224365,0.230591,0.879761,477
16280886,10001,-0.227539,0.228760,0.877686,480
16290872,9986,-0.232910,0.237427,0.883301,480
16300889,10017,-0.235596,0.250732,0.890381,474
16310888,9999,-0.239380,0.268311,0.899170,476
16320895,10007,-0.239624,0.281860,0.901733,479
16330872,9977,-0.237671,0.299072,0.907959,480
16340891,10019,-0.231812,0.303101,0.912476,471
16350886,9995,-0.228882,0.294067,0.917480,481
16360898,10012,-0.223999,0.258667,0.927002,480
16370881,9983,-0.216675,0.241821,0.924805,482
16380892,10011,-0.211426,0.226562,0.919922,473
16390871,9979,-0.206665,0.218506,0.915649,483
16400893,10022,-0.203125,0.219727,0.913696,482
16410881,9988,-0.201904,0.228760,0.916382,483
16420870,9989,-0.203125,0.244873,0.920166,483
16430879,10009,-0.203247,0.252197,0.926880,503
16440875,9996,-0.203491,0.251465,0.927734,487
16450894,10019,-0.203003,0.248779,0.923096,491
16460880,9986,-0.203491,0.243286,0.914062,487
16470873,9993,-0.203491,0.245728,0.899414,485
16480872,9999,-0.203979,0.248901,0.899902,494
16490873,10001,-0.208496,0.250610,0.903564,494
16500876,10003,-0.209595,0.252686,0.905151,495
16510888,10012,-0.213745,0.253784,0.905151,497
16520890,10002,-0.215820,0.262329,0.911011,491
16530869,9979,-0.223877,0.269531,0.915894,497
16540887,10018,-0.228149,0.275024,0.918091,496
16550920,10033,-0.232056,0.273682,0.925415,498
16560883,9963,-0.231934,0.266357,0.931396,491
16570881,9998,-0.230713,0.258423,0.933716,498
16580883,10002,-0.229736,0.240845,0.936279,495
16590877,9994,-0.226562,0.243652,0.938232,492
16600890,10013,-0.223145,0.248535,0.942383,485
16610877,9987,-0.219116,0.247559,0.945923,492
16620881,10004,-0.214722,0.244629,0.945435,493
16630888,10007,-0.213135,0.244751,0.937988,493
16640878,9990,-0.214600,0.243286,0.931519,497
16650890,10012,-0.215576,0.239136,0.926025,500
16660871,9981,-0.216919,0.239014,0.922974,504
16670880,10009,-0.219971,0.242187,0.922974,501
16680897,10017,-0.223389,0.246460,0.924805,508
16690888,9991,-0.234009,0.248657,0.930664,510
16700890,10002,-0.235352,0.239624,0.929443,514
16710898,10008,-0.236938,0.231323,0.925537,514
16720890,9992,-0.239014,0.227173,0.919800,514
16730877,9987,-0.238403,0.224243,0.915039,516
16740893,10016,-0.233398,0.221069,0.913574,510
16750915,10022,-0.231323,0.217407,0.918945,517
16760879,9964,-0.223267,0.211914,0.928101,515
16770884,10005,-0.215332,0.207886,0.936279,513
16780894,10010,-0.212891,0.207886,0.940308,505
16790889,9995,-0.206543,0.205444,0.947021,508
16800888,9999,-0.195435,0.196899,0.950562,502
16810880,9992,-0.193970,0.198975,0.955200,503
16820877,9997,-0.190918,0.202026,0.956543,502
16830872,9995,-0.190918,0.207275,0.953857,500
16840898,10026,-0.189941,0.212280,0.951416,502
16850872,9974,-0.187256,0.223145,0.947021,500
16860888,10016,-0.187622,0.230957,0.949951,502
16870875,9987,-0.191406,0.240356,0.949219,504
16880897,10022,-0.195190,0.248657,0.948730,502
16890870,9973,-0.197388,0.253540,0.949097,500
16900893,10023,-0.199829,0.253906,0.950439,511
16910887,9994,-0.200928,0.253906,0.953857,509
16920870,9983,-0.201416,0.251099,0.958252,508
16930885,10015,-0.202515,0.248657,0.966797,515
16940900,10015,-0.200439,0.247681,0.976074,513
16950878,9978,-0.195190,0.246826,0.978760,513
16960871,9993,-0.185547,0.235840,0.982910,506
16970870,9999,-0.177368,0.227051,0.978638,508
16980897,10027,-0.172974,0.220703,0.969727,506
16990885,9988,-0.171387,0.212646,0.958374,506
17000898,10013,-0.171509,0.208374,0.948120,501
17010877,9979,-0.173218,0.198486,0.933960,501
17020888,10011,-0.179565,0.198120,0.932251,500
17030880,9992,-0.183594,0.199829,0.934448,501
17040897,10017,-0.185547,0.201294,0.934448,499
17050873,9976,-0.187744,0.198364,0.934937,502
17060881,10008,-0.188599,0.196533,0.936768,495
17070893,10012,-0.190063,0.204712,0.929199,500
17080885,9992,-0.191284,0.208252,0.921875,500
17090888,10003,-0.191284,0.209473,0.915039,503
17100884,9996,-0.194458,0.207520,0.912720,502
17110879,9995,-0.196411,0.206909,0.913330,506
17120870,9991,-0.199951,0.208496,0.919800,501
17130924,10054,-0.198242,0.211792,0.924072,503
17140892,9968,-0.196411,0.215088,0.932251,508
17150874,9982,-0.195923,0.218018,0.935791,500
17160885,10011,-0.198853,0.219604,0.936523,508
17170894,10009,-0.202881,0.222778,0.939453,505
17180888,9994,-0.203247,0.222168,0.948486,503
17190881,9993,-0.198853,0.216064,0.954224,503
17200874,9993,-0.196655,0.209595,0.954712,499
17210889,10015,-0.197510,0.208252,0.955688,509
17220874,9985,-0.197021,0.208862,0.953369,510
17230870,9996,-0.197266,0.213745,0.951904,512
17240869,9999,-0.198364,0.215576,0.949829,513
17250884,10015,-0.199829,0.217773,0.953247,518
17260877,9993,-0.198853,0.217529,0.956055,520
17270887,10010,-0.200562,0.216431,0.954346,522
17280878,9991,-0.203613,0.211304,0.951172,524
17290891,10013,-0.206421,0.201782,0.938110,523
17300878,9987,-0.206177,0.197876,0.932495,527
17310881,10003,-0.206787,0.196045,0.926514,520
17320916,10035,-0.208984,0.198730,0.922119,524
17330878,9962,-0.208862,0.200195,0.924072,518
17340887,10009,-0.200684,0.200562,0.932373,518
17350894,10007,-0.196289,0.197510,0.936157,518
17360899,10005,-0.190186,0.194702,0.939087,519
17370890,9991,-0.182739,0.191895,0.941528,511
17380899,10009,-0.176636,0.191162,0.940918,513
17390891,9992,-0.171509,0.193237,0.939819,514
17400897,10006,-0.161377,0.193848,0.934570,512
17410897,10000,-0.160034,0.194580,0.931885,512
17420879,9982,-0.163818,0.198364,0.931885,511
17430898,10019,-0.165283,0.207153,0.934937,509
17440884,9986,-0.169434,0.216797,0.939941,509
17450884,10000,-0.176880,0.225586,0.950195,508
17460890,10006,-0.180176,0.226807,0.951416,509
17470886,9996,-0.181885,0.224976,0.950439,510
17480887,10001,-0.182861,0.226318,0.949097,508
17490882,9995,-0.183472,0.228149,0.947266,512
17500897,10015,-0.182495,0.228882,0.950806,509
17510882,9985,-0.176270,0.226074,0.953247,515
17520873,9991,-0.174805,0.224487,0.954956,515
17530910,10037,-0.174561,0.224609,0.957520,514
17540881,9971,-0.176147,0.228149,0.960571,511
17550870,9989,-0.177002,0.230469,0.958984,513
17560871,10001,-0.184814,0.217651,0.958496,511
17570896,10025,-0.188232,0.212280,0.954834,506
17580888,9992,-0.192871,0.208008,0.951050,504
17590883,9995,-0.197144,0.204834,0.947754,510
17600887,10004,-0.199341,0.202148,0.947632,502
17610876,9989,-0.202881,0.195557,0.946533,499
17620886,10010,-0.211670,0.193726,0.944824,500
17630891,10005,-0.220215,0.192871,0.945068,503
17640869,9978,-0.223389,0.187378,0.942627,505
17651317,10448,-0.226685,0.181030,0.937012,501
17660875,9558,-0.227905,0.175293,0.930298,503
17670884,10009,-0.230347,0.167725,0.918945,499
17680886,10002,-0.230103,0.168335,0.921631,499
17690882,9996,-0.229004,0.169067,0.926514,499
17700884,10002,-0.230347,0.170898,0.929932,496
17710887,10003,-0.231567,0.170654,0.932983,496
17720888,10001,-0.233521,0.164795,0.929321,500
17730879,9991,-0.236206,0.164307,0.927734,499
17740908,10029,-0.238281,0.164185,0.925415,499
17750878,9970,-0.240234,0.166748,0.922852,492
17760890,10012,-0.238281,0.170776,0.922485,501
17770881,9991,-0.238037,0.172241,0.925537,498
17780876,9995,-0.236816,0.176880,0.936890,499
17790885,10009,-0.234375,0.178833,0.935913,508
17800892,10007,-0.234741,0.182129,0.937866,508
17810893,10001,-0.231689,0.185425,0.937134,511
17820889,9996,-0.230835,0.190552,0.936890,516
17830898,10009,-0.226318,0.202271,0.942261,520
17840874,9976,-0.224609,0.206665,0.944946,518
17850874,10000,-0.223389,0.210449,0.945801,524
17860891,10017,-0.222900,0.213379,0.948486,526
17870895,10004,-0.221680,0.213257,0.951660,521
17880899,10004,-0.219849,0.210449,0.955078,522
17890890,9991,-0.219482,0.206909,0.957520,527
17900873,9983,-0.216919,0.207642,0.956543,524
17910870,9997,-0.211182,0.208740,0.956543,523
17920886,10016,-0.207031,0.208984,0.959229,520
17930895,10009,-0.205078,0.206543,0.961426,520
17940883,9988,-0.205200,0.203003,0.957764,516
17950875,9992,-0.206055,0.203369,0.957153,509
17960875,10000,-0.208008,0.204956,0.956421,514
17970873,9998,-0.212402,0.209839,0.957642,513
17980893,10020,-0.215820,0.212036,0.959229,509
17990886,9993,-0.216797,0.210815,0.958374,507
18000890,10004,-0.219849,0.205811,0.948364,507
18010873,9983,-0.220703,0.206055,0.942627,508
18020895,10022,-0.221069,0.206177,0.940796,502
18030892,9997,-0.221313,0.207397,0.940308,501
18040887,9995,-0.220581,0.209717,0.943970,501
18050874,9987,-0.220947,0.209473,0.950195,509
18060873,9999,-0.222168,0.208374,0.950439,509
18070897,10024,-0.225220,0.208740,0.947021,506
18080904,10007,-0.228760,0.206665,0.942749,511
18090895,9991,-0.231079,0.205444,0.936768,504
18100896,10001,-0.232910,0.201782,0.929687,512
18110894,9998,-0.236450,0.198242,0.929077,512
18120924,10030,-0.235474,0.192627,0.930908,511
18130892,9968,-0.235718,0.187134,0.932129,510
18140892,10000,-0.234375,0.184082,0.930542,511
18150871,9979,-0.234985,0.181030,0.933105,510
18160875,10004,-0.235474,0.173706,0.931641,507
18170877,10002,-0.238647,0.170776,0.929443,499
18180875,9998,-0.242310,0.170044,0.925049,506
18190886,10011,-0.246338,0.170654,0.922607,499
18200890,10004,-0.248901,0.171875,0.922852,503
18210899,10009,-0.251343,0.171997,0.923950,494
18220878,9979,-0.249756,0.172974,0.927612,502
18230876,9998,-0.247314,0.174438,0.928345,500
18240889,10013,-0.245117,0.172363,0.927368,492
18250886,9997,-0.243774,0.169556,0.928467,497
18260872,9986,-0.239624,0.170044,0.928467,491
18270894,10022,-0.232178,0.181274,0.934814,497
18280873,9979,-0.227661,0.182251,0.938965,498
18290883,10010,-0.223877,0.183960,0.939331,492
18300890,10007,-0.222168,0.186768,0.939331,496
18310883,9993,-0.216553,0.190430,0.938110,495
18320890,10007,-0.208618,0.199829,0.937256,496
18330898,10008,-0.204956,0.202881,0.934692,496
18340889,9991,-0.204102,0.205078,0.932861,501
18350880,9991,-0.203613,0.209351,0.928467,504
18360894,10014,-0.206299,0.216919,0.921509,509
18370882,9988,-0.211304,0.218506,0.915649,507
18380885,10003,-0.216431,0.213867,0.910645,513
18390869,9984,-0.224487,0.214355,0.908813,520
18400874,10005,-0.227905,0.211426,0.907104,525
18410880,10006,-0.229614,0.206055,0.907959,528
18420893,10013,-0.230591,0.202393,0.912354,523
18430896,10003,-0.228027,0.201172,0.917847,532
18440894,9998,-0.223267,0.196167,0.920044,532
18450914,10020,-0.218994,0.189941,0.925903,532
18460897,9983,-0.214966,0.187744,0.931274,522
18470878,9981,-0.210327,0.189453,0.937988,526
18485261,14383,-0.204346,0.198486,0.945923,523
18490879,5618,-0.203247,0.197510,0.950562,523
18500873,9994,-0.202515,0.194824,0.950684,522
18510891,10018,-0.204590,0.194702,0.950317,515
18520891,10000,-0.209961,0.193359,0.950073,508
18530893,10002,-0.214111,0.193604,0.949951,510
18540885,9992,-0.222778,0.198242,0.955566,507
18550883,9998,-0.228516,0.200562,0.957397,509
18560887,10004,-0.232788,0.202759,0.957886,501
18570881,9994,-0.234985,0.202759,0.955688,507
18580885,10004,-0.237061,0.203369,0.950684,508
18593432,12547,-0.240845,0.199341,0.949585,507
18600889,7457,-0.241089,0.193115,0.955200,507
18610871,9982,-0.238647,0.186768,0.956543,507
18620892,10021,-0.238525,0.183716,0.955322,501
18630888,9996,-0.238403,0.180420,0.954956,509
18640894,10006,-0.238281,0.180664,0.954712,508
18650891,9997,-0.233154,0.181152,0.950928,507
18660892,10001,-0.230835,0.178345,0.949341,503
18670869,9977,-0.228271,0.173584,0.947876,502
18680900,10031,-0.226318,0.169556,0.945068,502
18690873,9973,-0.223633,0.166504,0.942871,499
18700894,10021,-0.218140,0.167847,0.939575,498
18710887,9993,-0.215332,0.168945,0.937378,500
18720896,10009,-0.213379,0.170044,0.933350,504
18730897,10001,-0.215088,0.171265,0.932983,499
18740882,9985,-0.213623,0.171387,0.930298,495
18750896,10014,-0.211548,0.172485,0.927612,502
18760890,9994,-0.208618,0.172852,0.924683,502
18770872,9982,-0.207642,0.174805,0.922729,503
18780895,10023,-0.206665,0.176758,0.922729,503
18790869,9974,-0.203735,0.178101,0.922729,495
18800889,10020,-0.202759,0.179565,0.923706,503
18810879,9990,-0.207275,0.183838,0.924561,500
18820908,10029,-0.207153,0.185547,0.924561,500
18830881,9973,-0.208862,0.186768,0.926147,502
18840889,10008,-0.210205,0.189575,0.929443,503
18850898,10009,-0.211670,0.191162,0.930664,503
18860901,10003,-0.212036,0.194214,0.934204,501
18870873,9972,-0.210815,0.189575,0.932617,495
18880884,10011,-0.210083,0.184204,0.932495,499
18890875,9991,-0.208740,0.179199,0.932861,496
18900870,9995,-0.208984,0.174683,0.933350,501
18910883,10013,-0.208008,0.172485,0.933716,500
18920876,9993,-0.202393,0.169189,0.933228,495
18930897,10021,-0.204590,0.169312,0.935791,506
18940883,9986,-0.208130,0.171143,0.943115,508
18950895,10012,-0.210083,0.171753,0.951660,507
18960870,9975,-0.211426,0.173828,0.954102,508
18970878,10008,-0.215088,0.175415,0.951172,517
18980887,10009,-0.215820,0.174438,0.950317,520
18990875,9988,-0.214844,0.168213,0.952515,521
19000883,10008,-0.213623,0.163574,0.956665,520
19010876,9993,-0.213623,0.164551,0.958618,522
19020884,10008,-0.214600,0.165283,0.960937,521
19030886,10002,-0.213745,0.172607,0.963623,519
19040924,10038,-0.215088,0.177490,0.963013,520
19050897,9973,-0.217163,0.180298,0.962402,511
19060870,9973,-0.219360,0.179687,0.962036,512
19070884,10014,-0.221069,0.178101,0.962036,511
19080882,9998,-0.221924,0.181152,0.963501,510
19090870,9988,-0.221191,0.178833,0.963257,501
19100872,10002,-0.219971,0.179199,0.961914,503
19110881,10009,-0.217041,0.178223,0.959229,499
19120893,10012,-0.215698,0.177246,0.958740,498
19130895,10002,-0.211792,0.177979,0.958252,496
19140880,9985,-0.210083,0.183472,0.955688,496
19150879,9999,-0.207520,0.185913,0.957031,490
19160883,10004,-0.206299,0.188843,0.959106,494
19170884,10001,-0.204712,0.191406,0.964355,498
19180906,10022,-0.202271,0.188232,0.965820,495
19190874,9968,-0.200073,0.176270,0.963623,496
19202574,11700,-0.197998,0.173218,0.958130,498
19210879,8305,-0.195435,0.173096,0.957397,500
19220896,10017,-0.193115,0.175537,0.959473,502
19230877,9981,-0.189087,0.178345,0.960815,502
19240879,10002,-0.187378,0.180908,0.963257,502
19250878,9999,-0.182007,0.188843,0.960571,495
19260875,9997,-0.182007,0.189575,0.958252,496
19270879,10004,-0.180908,0.190308,0.954224,497
19280897,10018,-0.178101,0.187622,0.952881,499
19290873,9976,-0.175903,0.184570,0.952881,496
19300890,10017,-0.170410,0.185059,0.952515,497
19310874,9984,-0.167114,0.187256,0.950317,503
19320886,10012,-0.165039,0.189697,0.945923,501
19330874,9988,-0.159424,0.192017,0.939697,501
19340891,10017,-0.155640,0.195312,0.934204,496
19350893,10002,-0.152344,0.198975,0.924194,497
19360887,9994,-0.145752,0.197510,0.920532,499
19370898,10011,-0.143311,0.198975,0.917358,495
19385335,14437,-0.138550,0.202393,0.911255,503
19390893,5558,0.000000,0.000000,0.000000,500
19400921,10028,-0.139160,0.199585,0.904907,508
19410893,9972,-0.148437,0.197998,0.896851,509
19420898,10005,-0.156250,0.196045,0.896851,509
19430896,9998,-0.162354,0.191772,0.899170,509
19440886,9990,-0.169678,0.192139,0.902954,507
19450881,9995,-0.174561,0.195312,0.909424,506
19460871,9990,-0.174561,0.183716,0.926880,509
19470875,10004,-0.172852,0.179810,0.936035,503
19480869,9994,-0.176636,0.173828,0.941772,509
19490895,10026,-0.176880,0.165283,0.943970,501
19516311,25416,-0.183716,0.152954,0.955200,510
19521515,5204,-0.184570,0.154907,0.962646,517
19526776,5261,0.000000,0.000000,0.000000,517
19531009,4233,-0.184937,0.160767,0.972168,520
19540885,9876,-0.186157,0.166626,0.983398,521
19550871,9986,-0.185181,0.171265,0.991455,524
19560880,10009,-0.183472,0.171265,0.995361,525
19570874,9994,-0.182617,0.170166,0.990967,530
19580913,10039,-0.181763,0.169312,0.985229,525
19590882,9969,-0.182129,0.167114,0.981445,528
19600883,10001,-0.181274,0.171631,0.979126,530
19610886,10003,-0.182495,0.180420,0.981079,526
19620883,9997,-0.183472,0.186646,0.984985,532
19630897,10014,-0.179932,0.195190,0.990112,533
19640887,9990,-0.177979,0.202759,0.985718,529
19650870,9983,-0.179687,0.207397,0.975586,527
19660888,10018,-0.179565,0.207886,0.966309,529
19670887,9999,-0.177368,0.205200,0.958984,526
19680880,9993,-0.173950,0.197144,0.953979,523
19690893,10013,-0.172607,0.195068,0.954834,521
19700880,9987,-0.171387,0.194580,0.955200,513
19710882,10002,-0.170532,0.194946,0.955688,517
19720896,10014,-0.171021,0.193848,0.953369,519
19730897,10001,-0.171021,0.189941,0.951172,513
19740885,9988,-0.169434,0.185425,0.952026,515
19750871,9986,-0.171753,0.183716,0.950806,511
19760907,10036,-0.170654,0.182495,0.952393,514
19770873,9966,-0.170898,0.177856,0.953247,512
19780876,10003,-0.172241,0.170654,0.949463,515
19790882,10006,-0.175049,0.158325,0.949463,497
19800888,10006,-0.175415,0.157715,0.950562,509
19810879,9991,-0.177368,0.158081,0.951660,513
19820876,9997,-0.177002,0.158447,0.953247,507
19830883,10007,-0.176270,0.155640,0.956421,515
19840890,10007,-0.175049,0.154297,0.957520,508
19850895,10005,-0.176270,0.157104,0.954834,513
19860896,10001,-0.178467,0.159424,0.955200,511
19870890,9994,-0.179199,0.156982,0.953979,512
19880881,9991,-0.180298,0.153809,0.953735,511
19890883,10002,-0.181030,0.150757,0.952637,511
19900895,10012,-0.181641,0.150879,0.951172,510
19910873,9978,-0.181274,0.152832,0.954224,502
19922046,11173,-0.181152,0.156616,0.956299,504
19930882,8836,-0.181519,0.155884,0.956177,509
19940890,10008,-0.182617,0.153809,0.957153,503
19950887,9997,-0.181519,0.148437,0.957275,504
19960896,10009,-0.178101,0.149048,0.959717,506
19970875,9979,-0.177734,0.152344,0.961548,502
19980892,10017,-0.174683,0.156616,0.962280,501
19992801,11909,-0.172607,0.161377,0.963379,509
20000882,8081,0.000000,0.000000,0.000000,508
20022414,21532,-0.166504,0.159302,0.954468,507
20027742,5328,-0.166382,0.160156,0.950562,507
20033212,5470,0.000000,0.000000,0.000000,504
20040873,7661,-0.166504,0.163208,0.946655,503
20050884,10011,-0.166992,0.164917,0.945557,512
20060879,9995,-0.167114,0.174805,0.948730,514
20070872,9993,-0.167236,0.176147,0.950684,508
20080911,10039,-0.165405,0.181030,0.952393,512
20090880,9969,-0.165894,0.183838,0.951416,519
20100875,9995,-0.167969,0.185791,0.947021,526
20132568,31693,-0.174072,0.171021,0.946289,534
20137759,5191,-0.174805,0.166870,0.949585,536
20143595,5836,0.000000,0.000000,0.000000,529
20147803,4208,-0.175903,0.165405,0.953369,536
20153217,5414,0.000000,0.000000,0.000000,539
20160872,7655,-0.176025,0.165527,0.957886,541
20170870,9998,-0.176514,0.164795,0.963257,532
20180882,10012,-0.175781,0.160522,0.961914,533
20190874,9992,-0.176270,0.157471,0.962280,537
20200870,9996,-0.173950,0.154419,0.963867,531
20219595,18725,-0.171997,0.153809,0.962402,530
20224745,5150,-0.172363,0.151611,0.961304,527
20230887,6142,-0.173218,0.151611,0.961548,525
20240878,9991,-0.176270,0.155273,0.962402,522
20250884,10006,-0.177734,0.158203,0.961182,517
20260889,10005,-0.178589,0.161133,0.963135,515
20270880,9991,-0.178101,0.161011,0.965210,513
20280893,10013,-0.178955,0.160156,0.964966,517
20290871,9978,-0.178833,0.159546,0.960937,514
20300884,10013,-0.180054,0.160278,0.955444,511
20310898,10014,-0.179932,0.163330,0.953613,512
20320871,9973,-0.179687,0.165649,0.949585,513
20330879,10008,-0.176392,0.168335,0.948364,513
20340878,9999,-0.176025,0.170410,0.949341,514
20350889,10011,-0.173340,0.173340,0.950684,516
20360898,10009,-0.171509,0.172974,0.953369,510
20370890,9992,-0.171631,0.172363,0.954102,514
20380896,10006,-0.172852,0.168823,0.954224,516
20390886,9990,-0.175659,0.160522,0.953247,517
20400893,10007,-0.178345,0.156372,0.952637,517
20410898,10005,-0.180420,0.156494,0.953125,517
20420890,9992,-0.180420,0.158447,0.953247,516
20432765,11875,-0.177002,0.156860,0.950317,509
20440893,8128,0.000000,0.000000,0.000000,513
20450897,10004,-0.177002,0.152832,0.950684,513
20460896,9999,-0.177734,0.152466,0.951782,508
20470885,9989,-0.178223,0.152832,0.952881,510
20480878,9993,-0.177490,0.152832,0.953979,514
20490880,10002,-0.174805,0.150879,0.953125,512
20500886,10006,-0.179565,0.152710,0.949829,506
20518885,17999,-0.179077,0.151611,0.950562,511
20524041,5156,0.000000,0.000000,0.000000,511
20530878,6837,-0.177612,0.153687,0.951660,511
20540885,10007,-0.176758,0.155518,0.952515,514
20550874,9989,-0.174194,0.156982,0.954712,513
20560876,10002,-0.173950,0.159424,0.953857,512
20570875,9999,-0.173828,0.157959,0.954956,511
20580889,10014,-0.172852,0.156372,0.958984,504
20590885,9996,-0.173462,0.155762,0.960327,511
20600891,10006,-0.174927,0.125000,0.960693,507
20610885,9994,-0.177979,0.156006,0.958008,512
20620902,10017,-0.179321,0.158813,0.956543,511
20630883,9981,-0.180542,0.163208,0.954468,512
20640870,9987,-0.180054,0.166138,0.954102,511
20650887,10017,-0.178711,0.168945,0.953613,517
20660883,9996,-0.175415,0.167969,0.955688,516
20670892,10009,-0.175903,0.166260,0.957275,524
20680880,9988,-0.176880,0.167847,0.958130,533
20690877,9997,-0.177612,0.168823,0.959961,536
20700871,9994,-0.178101,0.170166,0.961792,537
20710871,10000,-0.177612,0.166504,0.964111,544
20730480,19609,-0.181152,0.158569,0.963379,548
20735916,5436,0.000000,0.000000,0.000000,542
20740886,4970,-0.182617,0.153564,0.963623,545
20750886,10000,-0.184326,0.152222,0.961548,542
20760895,10009,-0.183105,0.153442,0.958740,543
20770887,9992,-0.180664,0.158936,0.957397,541
20780878,9991,-0.181519,0.158325,0.958130,535
20790877,9999,-0.179443,0.158325,0.959351,533
20808526,17649,-0.177124,0.156494,0.960083,527
20813701,5175,-0.175293,0.156250,0.958130,518
20827467,13766,-0.175293,0.156494,0.954102,521
20832668,5201,-0.175171,0.155640,0.950684,514
20840892,8224,-0.174683,0.156738,0.947388,511
20850890,9998,-0.174316,0.156250,0.942871,517
20860881,9991,-0.174805,0.155518,0.941772,514
20870876,9995,-0.176270,0.156128,0.939697,513
20880883,10007,-0.177368,0.156860,0.940186,512
20890883,10000,-0.176880,0.156860,0.940918,513
20900886,10003,-0.176270,0.158325,0.941528,513
20910876,9990,-0.177124,0.159302,0.939575,516
20920886,10010,-0.175781,0.156860,0.940796,518
20930883,9997,-0.175659,0.154907,0.942627,513
20940889,10006,-0.177490,0.153809,0.944946,516
20950897,10008,-0.176147,0.151245,0.950317,518
20960882,9985,-0.177490,0.149780,0.954346,512
20970879,9997,-0.177979,0.148071,0.958740,517
20980891,10012,-0.178101,0.149170,0.958618,515
20990874,9983,-0.181152,0.149292,0.960693,508
21000880,10006,-0.181885,0.147583,0.961304,508
21010895,10015,-0.183350,0.147827,0.962280,515
21043812,32917,-0.189941,0.146484,0.962402,505
21049405,5593,-0.190918,0.151001,0.962769,505
21054954,5549,0.000000,0.000000,0.000000,506
21059363,4409,-0.193115,0.152710,0.963135,512
21065035,5672,0.000000,0.000000,0.000000,512
21070870,5835,-0.192871,0.153809,0.963135,507
21080892,10022,-0.194336,0.154541,0.964111,512
21090876,9984,-0.194336,0.153320,0.965210,505
21100873,9997,-0.192261,0.155151,0.966064,507
21110870,9997,-0.191284,0.157593,0.965210,504
21120869,9999,-0.187866,0.158691,0.964478,512
21130882,10013,-0.183716,0.158691,0.965942,509
21140891,10009,-0.179932,0.160889,0.966675,509
21150907,10016,-0.178101,0.168091,0.968506,502
21160889,9982,-0.173706,0.170410,0.967529,506
21170893,10004,-0.171875,0.171997,0.966431,502
21180920,10027,-0.170654,0.171997,0.963135,509
21190891,9971,-0.169189,0.172363,0.958496,511
21200891,10000,-0.168823,0.169189,0.953613,511
21210871,9980,-0.170532,0.167358,0.952881,517
21220888,10017,-0.171631,0.166992,0.951416,519
21230889,10001,-0.172363,0.163086,0.950684,523
21240882,9993,-0.172852,0.159668,0.951660,529
21250877,9995,-0.173950,0.155884,0.954956,533
21260888,10011,-0.177612,0.146851,0.955444,537
21270881,9993,-0.181152,0.141968,0.954590,539
21280898,10017,-0.183350,0.137817,0.951904,545
21290870,9972,-0.184570,0.136597,0.952271,548
21300881,10011,-0.187866,0.135132,0.951050,543
21310873,9992,-0.199829,0.139893,0.954468,549
21320876,10003,-0.201172,0.142212,0.955811,539
21330876,10000,-0.202271,0.145508,0.953979,537
21340894,10018,-0.200806,0.151489,0.950073,538
21350879,9985,-0.198975,0.155884,0.948853,537
21360888,10009,-0.196899,0.125244,0.945801,533
21370882,9994,-0.192383,0.152710,0.942383,524
21380885,10003,-0.191650,0.150269,0.939941,525
21390881,9996,-0.189575,0.150024,0.937988,519
21400876,9995,-0.188110,0.153564,0.937378,515
21410897,10021,-0.187988,0.157715,0.941284,508
21420885,9988,-0.184082,0.159668,0.947632,501
21430892,10007,-0.182251,0.153931,0.945435,505
21440888,9996,-0.180298,0.151123,0.944946,504
21450873,9985,-0.180054,0.151489,0.944702,505
21460876,10003,-0.178955,0.152344,0.945068,502
21470869,9993,-0.174561,0.154907,0.951416,502
21480882,10013,-0.173340,0.156738,0.954468,498
21490896,10014,-0.174072,0.157959,0.955078,500
21500897,10001,-0.177002,0.157959,0.958252,504
21510871,9974,-0.177612,0.157227,0.961548,505
21520889,10018,-0.179443,0.155640,0.963135,504
21530881,9992,-0.183960,0.155273,0.961670,498
21540891,10010,-0.185791,0.157349,0.963013,498
21550897,10006,-0.185791,0.160278,0.964355,506
21565997,15100,-0.186646,0.161987,0.967041,506
21571763,5766,0.000000,0.000000,0.000000,507
21580893,9130,-0.190308,0.158936,0.967285,509
21590888,9995,-0.190430,0.159424,0.963989,508
21600869,9981,-0.191895,0.159424,0.961426,504
21610890,10021,-0.191895,0.157593,0.958374,506
21620891,10001,-0.193481,0.159180,0.955322,509
21630931,10040,-0.194458,0.161011,0.953125,508
21640869,9938,-0.194336,0.156372,0.954712,508
21650897,10028,-0.194092,0.153809,0.956665,502
21660893,9996,-0.199219,0.154297,0.958130,507
21670913,10020,-0.196655,0.150879,0.957764,510
21680872,9959,-0.193481,0.146118,0.954224,508
21690888,10016,-0.190186,0.148071,0.950684,508
21700887,9999,-0.189941,0.149292,0.951416,506
21710889,10002,-0.187500,0.147339,0.954102,506
21720873,9984,-0.183960,0.146606,0.955444,503
21730881,10008,-0.183716,0.144409,0.957031,506
21740882,10001,-0.183472,0.141846,0.954224,503
21750892,10010,-0.183350,0.138184,0.952759,500
21760878,9986,-0.185303,0.140015,0.952148,500
21770894,10016,-0.187378,0.141357,0.953979,505
21780881,9987,-0.189453,0.142578,0.955444,507
21790871,9990,-0.191406,0.145386,0.956787,510
21800895,10024,-0.191895,0.149170,0.955444,512
21810877,9982,-0.192383,0.151001,0.955933,520
21820885,10008,-0.193359,0.157715,0.954834,531
21830896,10011,-0.191772,0.161133,0.957397,532
21840885,9989,-0.188843,0.159424,0.958496,541
21850915,10030,-0.185059,0.153198,0.962646,548
21860877,9962,-0.182251,0.151733,0.957520,551
21870896,10019,-0.182373,0.150391,0.956909,551
21880876,9980,-0.183960,0.151855,0.954224,554
21890886,10010,-0.185425,0.152466,0.951416,551
21900876,9990,-0.187256,0.154663,0.951904,550
21910898,10022,-0.187988,0.159668,0.956909,548
21920872,9974,-0.187500,0.157837,0.958984,539
21930896,10024,-0.189331,0.157349,0.959473,527
21940880,9984,-0.187866,0.155029,0.956665,528
21950873,9993,-0.186035,0.152832,0.954102,526
21960876,10003,-0.184937,0.149536,0.948242,525
21970891,10015,-0.183350,0.147827,0.946655,509
21980881,9990,-0.181641,0.146484,0.946167,515
21990886,10005,-0.180420,0.146484,0.945312,509
22000893,10007,-0.183350,0.147705,0.947998,506
22010870,9977,-0.182373,0.148071,0.950806,502
22020881,10011,-0.185791,0.147949,0.955200,499
22030910,10029,-0.187134,0.151978,0.955933,505
22040869,9959,-0.189087,0.150757,0.957764,501
22050878,10009,-0.188965,0.146729,0.957642,505
22060896,10018,-0.188599,0.144409,0.957764,507
22070888,9992,-0.190186,0.146484,0.957031,508
22080869,9981,-0.187988,0.147705,0.958618,509
22090873,10004,-0.187622,0.149780,0.959961,509
22100871,9998,-0.188232,0.153442,0.959717,508
22110880,10009,-0.186768,0.154053,0.958252,509
22120879,9999,-0.184937,0.155640,0.957764,510
22130872,9993,-0.185303,0.160278,0.957886,509
22140870,9998,-0.185303,0.161255,0.957520,508
22150885,10015,-0.184937,0.160156,0.958252,507
22160894,10009,-0.184570,0.159546,0.958008,506
22170898,10004,-0.186279,0.157959,0.958618,502
22180894,9996,-0.184448,0.153809,0.957642,499
22190875,9981,-0.184448,0.151733,0.956909,505
22200879,10004,-0.184570,0.150269,0.956665,500
22210885,10006,-0.184082,0.149292,0.954712,500
22220893,10008,-0.186035,0.150146,0.954468,500
22230896,10003,-0.184692,0.148193,0.957886,501
22240878,9982,-0.182007,0.147339,0.955688,499
22250908,10030,-0.183838,0.144775,0.957153,499
22260873,9965,-0.182861,0.144409,0.956299,497
22270875,10002,-0.182739,0.142578,0.956421,499
22280879,10004,-0.181274,0.142456,0.955933,497
22290872,9993,-0.183472,0.145996,0.953979,500
22300893,10021,-0.184814,0.150146,0.952515,496
22310878,9985,-0.184082,0.152588,0.953247,497
22320881,10003,-0.184082,0.153564,0.953613,500
22330885,10004,-0.182983,0.153442,0.953491,498
22340870,9985,-0.182495,0.151367,0.953247,500
22350897,10027,-0.181763,0.153687,0.954224,499
22360886,9989,-0.181763,0.155029,0.954956,495
22370881,9995,-0.180908,0.153198,0.956665,505
22380896,10015,-0.182983,0.151978,0.954346,506
22390879,9983,-0.185791,0.152344,0.953979,506
22400870,9991,-0.188721,0.154541,0.953857,516
22410869,9999,-0.188721,0.156616,0.954102,520
22420898,10029,-0.189087,0.157715,0.956421,522
22430910,10012,-0.188721,0.158936,0.957275,531
22445204,14294,-0.191040,0.158813,0.958130,541
22459696,14492,-0.192261,0.152832,0.956299,544
22464999,5303,0.000000,0.000000,0.000000,544
22470873,5874,-0.192749,0.151001,0.956055,537
22480888,10015,-0.194214,0.150269,0.953979,545
22490890,10002,-0.193481,0.150635,0.953491,542
22500884,9994,-0.193604,0.148560,0.950806,537
22510890,10006,-0.193115,0.153442,0.951538,536
22520871,9981,-0.193359,0.154907,0.954346,532
22530874,10003,-0.191772,0.155884,0.956421,527
22540872,9998,-0.192505,0.156250,0.957031,514
22550876,10004,-0.193604,0.155396,0.955566,515
22560873,9997,-0.189941,0.152222,0.952759,511
22570885,10012,-0.190430,0.150635,0.951050,500
22580877,9992,-0.189331,0.148193,0.950806,502
22590876,9999,-0.186523,0.145752,0.953735,498
22600893,10017,-0.186768,0.143799,0.957397,495
22610924,10031,-0.185547,0.145142,0.960815,491
22620876,9952,-0.185059,0.143677,0.959595,489
22630886,10010,-0.187378,0.144409,0.958496,489
22640878,9992,-0.186035,0.146240,0.957275,487
22650881,10003,-0.185547,0.144531,0.957153,495
22665241,14360,-0.184204,0.144775,0.955933,496
22670875,5634,-0.185303,0.149170,0.956299,498
22680898,10023,-0.183594,0.154663,0.957520,494
22690895,9997,-0.180298,0.158325,0.957031,502
22700894,9999,-0.179932,0.160156,0.955444,502
22710880,9986,-0.180298,0.160156,0.956177,497
22720893,10013,-0.179565,0.154053,0.954102,505
22730897,10004,-0.178955,0.151978,0.952881,506
22741909,11012,-0.181519,0.153320,0.952271,500
22750890,8981,-0.185303,0.159180,0.953979,503
22760875,9985,-0.185547,0.164551,0.956055,503
22770892,10017,-0.187012,0.164795,0.958618,500
22780892,10000,-0.188965,0.162842,0.960815,500
22790892,10000,-0.191162,0.158691,0.959595,499
22800922,10030,-0.191040,0.156982,0.958984,498
22810892,9970,-0.190308,0.157593,0.958252,496
22820894,10002,-0.189819,0.156250,0.956299,495
22830895,10001,-0.189697,0.150879,0.957886,488
22840891,9996,-0.190918,0.150757,0.959229,495
22850895,10004,-0.192627,0.149536,0.958862,485
22860876,9981,-0.194580,0.147217,0.957886,492
22870872,9996,-0.197510,0.145508,0.958374,492
22880894,10022,-0.198975,0.143066,0.955688,491
22890888,9994,-0.198242,0.145020,0.953735,487
22900892,10004,-0.197021,0.146606,0.951294,491
22910870,9978,-0.195557,0.149170,0.950562,490
22920880,10010,-0.191772,0.151245,0.950806,492
22930875,9995,-0.188843,0.156494,0.951172,492
22940898,10023,-0.185303,0.160278,0.949585,489
22950885,9987,-0.178955,0.155396,0.943359,493
22960898,10013,-0.185181,0.154907,0.941284,494
22970897,9999,-0.182251,0.154541,0.945435,497
22980899,10002,-0.176147,0.146973,0.942993,497
22990914,10015,-0.180176,0.143921,0.941406,499
23000890,9976,-0.180420,0.155640,0.943115,503
23010872,9982,-0.180542,0.159424,0.943604,510
23020893,10021,-0.182373,0.162354,0.944580,511
23030891,9998,-0.182373,0.165161,0.942505,522
23040874,9983,-0.182007,0.165649,0.942993,522
23050869,9995,-0.178955,0.159058,0.943115,538
23060884,10015,-0.177490,0.158203,0.939819,545
23070870,9986,-0.178955,0.157593,0.939453,548
23080889,10019,-0.177734,0.158203,0.942627,546
23090879,9990,-0.178101,0.156494,0.944702,547
23100884,10005,-0.180176,0.152954,0.954346,551
23110889,10005,-0.182739,0.153198,0.957031,549
23120880,9991,-0.180054,0.153198,0.958862,541
23130890,10010,-0.181763,0.158936,0.960083,536
23140887,9997,-0.184082,0.163208,0.959839,538
23150896,10009,-0.184082,0.162720,0.960815,533
23160895,9999,-0.185303,0.155640,0.964722,527
23170874,9979,-0.185181,0.152710,0.965942,522
23180889,10015,-0.184692,0.152832,0.965576,514
23190887,9998,-0.184570,0.153931,0.965454,513
23200892,10005,-0.186157,0.156128,0.965820,505
23210869,9977,-0.185913,0.157837,0.972290,506
23220884,10015,-0.186523,0.157349,0.973755,496
23230897,10013,-0.187378,0.156128,0.973999,497
23240873,9976,-0.187134,0.156006,0.972168,504
23250892,10019,-0.187500,0.157837,0.969238,506
23260888,9996,-0.187134,0.159546,0.967773,505
23270896,10008,-0.186035,0.156128,0.966309,508
23280876,9980,-0.187988,0.154663,0.965332,512
23290876,10000,-0.186523,0.153687,0.962280,510
23300874,9998,-0.185425,0.151978,0.962158,514
23310876,10002,-0.184570,0.153442,0.961792,517
23320896,10020,-0.182617,0.152710,0.960815,518
23330879,9983,-0.182739,0.150024,0.959717,516
23340889,10010,-0.183105,0.147461,0.960815,518
23350884,9995,-0.183105,0.145874,0.959595,514
23360902,10018,-0.183228,0.147827,0.957886,517
23370892,9990,-0.184937,0.150391,0.955200,517
23380872,9980,-0.184448,0.149658,0.956665,515
23390895,10023,-0.183716,0.149536,0.957275,512
23400877,9982,-0.184570,0.148804,0.953003,513
23410897,10020,-0.185913,0.148560,0.948242,510
23420880,9983,-0.184082,0.150391,0.945557,510
23430884,10004,-0.184082,0.150391,0.943115,508
23440888,10004,-0.181274,0.147705,0.946411,508
23450895,10007,-0.180786,0.145142,0.947510,507
23460885,9990,-0.179932,0.146362,0.946899,509
23470894,10009,-0.179443,0.145508,0.945801,508
23480874,9980,-0.179321,0.146729,0.943237,506
23490873,9999,-0.178955,0.145508,0.943481,501
23500889,10016,-0.177979,0.145508,0.944580,502
23510877,9988,-0.177979,0.146729,0.946289,507
23520878,10001,-0.176270,0.149658,0.947021,510
23530869,9991,-0.176392,0.152222,0.949951,499
23540883,10014,-0.174805,0.156250,0.953003,498
23550888,10005,-0.175659,0.158081,0.953491,505
23560891,10003,-0.176147,0.158936,0.952026,507
23570899,10008,-0.175415,0.155884,0.951904,502
23580879,9980,-0.174805,0.151978,0.953003,504
23590893,10014,-0.177490,0.146729,0.960815,508
23600890,9997,-0.177856,0.145996,0.964111,508
23610890,10000,-0.179077,0.146606,0.965820,511
23620878,9988,-0.180542,0.148315,0.965454,512
23630889,10011,-0.182617,0.149902,0.964478,512
23640892,10003,-0.184204,0.150513,0.963257,518
23650889,9997,-0.184814,0.145752,0.963623,523
23660892,10003,-0.184570,0.145508,0.964355,529
23670872,9980,-0.184692,0.144897,0.964722,535
23683524,12652,-0.185547,0.145264,0.964600,527
23690894,7370,0.000000,0.000000,0.000000,543
23700878,9984,-0.185669,0.136841,0.962646,549
23710895,10017,-0.186646,0.137939,0.961060,548
23720884,9989,-0.187378,0.140137,0.961182,553
23730886,10002,-0.188354,0.143066,0.962402,551
23740877,9991,-0.186279,0.144043,0.962158,549
23750894,10017,-0.185059,0.142090,0.961060,543
23760876,9982,-0.184814,0.146851,0.960571,544
23770888,10012,-0.183472,0.146484,0.960571,534
23788886,17998,-0.179810,0.141968,0.956909,528
23794059,5173,0.000000,0.000000,0.000000,524
23800878,6819,-0.179932,0.142456,0.958130,520
23810895,10017,-0.180176,0.146729,0.957764,515
23820888,9993,-0.178833,0.148926,0.958374,513
23830873,9985,-0.178101,0.151001,0.958740,511
23840896,10023,-0.177246,0.150391,0.957886,505
23850883,9987,-0.177979,0.150635,0.954834,506
23860874,9991,-0.178955,0.153320,0.952637,500
23870887,10013,-0.178345,0.153198,0.952515,508
23880926,10039,-0.178833,0.150635,0.956543,508
23890901,9975,-0.179810,0.150269,0.957520,510
23900893,9992,-0.179565,0.149292,0.958252,512
23910884,9991,-0.180786,0.147217,0.958374,514
23920872,9988,-0.182373,0.142212,0.957031,516
23930892,10020,-0.181885,0.144287,0.955688,518
23940874,9982,-0.181152,0.145630,0.954956,517
23950874,10000,-0.180786,0.145752,0.954346,519
23960880,10006,-0.179565,0.144653,0.957275,520
23970894,10014,-0.183105,0.142090,0.956177,519
23980898,10004,-0.183472,0.142944,0.953979,519
23990885,9987,-0.184937,0.142212,0.951416,527
24000876,9991,-0.184814,0.141479,0.951050,514
24010888,10012,-0.184082,0.142700,0.949951,513
24020897,10009,-0.183472,0.140869,0.947388,513
24030869,9972,-0.182617,0.134888,0.945801,511
24040908,10039,-0.181274,0.137207,0.944946,512
24050897,9989,-0.182861,0.140869,0.944824,512
24060872,9975,-0.181152,0.141235,0.947510,510
24070896,10024,-0.180298,0.143433,0.950317,509
24086220,15324,-0.183960,0.142700,0.955322,511
24091452,5232,-0.185181,0.141846,0.955444,510
24100891,9439,-0.186279,0.142334,0.955811,506
24110884,9993,-0.187378,0.142578,0.954346,502
24120895,10011,-0.184204,0.143555,0.955933,508
24130876,9981,-0.183594,0.144897,0.958862,500
24140887,10011,-0.180786,0.148193,0.965698,502
24150881,9994,-0.178955,0.148804,0.968872,504
24160876,9995,-0.177124,0.149048,0.971558,504
24170875,9999,-0.177856,0.149292,0.972290,505
24180876,10001,-0.177002,0.152100,0.969727,503
24190887,10011,-0.175781,0.156128,0.965820,502
24204736,13849,-0.175537,0.157349,0.962524,505
24210884,6148,-0.176025,0.160278,0.963013,507
24220887,10003,-0.176514,0.160889,0.963135,509
24230909,10022,-0.177490,0.161499,0.965332,515
24240895,9986,-0.177734,0.160767,0.963379,518
24250892,9997,-0.177002,0.160156,0.960327,527
24260896,10004,-0.177734,0.160034,0.959839,528
24270869,9973,-0.176636,0.158691,0.959229,533
24280887,10018,-0.179077,0.156250,0.959106,545
24290891,10004,-0.180542,0.156494,0.959839,549
24300875,9984,-0.181030,0.155029,0.961426,554
24310886,10011,-0.181641,0.153076,0.962280,552
24320890,10004,-0.185303,0.153809,0.968140,550
24330891,10001,-0.187134,0.153076,0.972656,556
24340885,9994,-0.189453,0.152100,0.974121,554
24350883,9998,-0.189941,0.144897,0.967529,548
24360883,10000,-0.190796,0.145142,0.966187,547
24370893,10010,-0.190430,0.146240,0.966064,541
24380892,9999,-0.191162,0.146851,0.966919,534
24390890,9998,-0.190063,0.144409,0.967773,525
24400887,9997,-0.187134,0.140991,0.967651,525
24410891,10004,-0.187134,0.140869,0.957764,518
24420902,10011,-0.185547,0.139893,0.951538,515
24430873,9971,-0.184937,0.138184,0.947266,508
24440874,10001,-0.184448,0.137207,0.941772,509
24450892,10018,-0.183960,0.136353,0.937378,506
24460892,10000,-0.181641,0.133179,0.933105,498
24470872,9980,-0.181396,0.132690,0.928955,501
24480875,10003,-0.180908,0.131470,0.924561,505
24490889,10014,-0.182983,0.129150,0.922119,502
24500869,9980,-0.183228,0.127075,0.920288,508
24510870,10001,-0.181641,0.125000,0.921753,510
24520884,10014,-0.179932,0.128174,0.926758,512
24530889,10005,-0.180664,0.130981,0.930176,515
24540891,10002,-0.181396,0.132324,0.932739,514
24550887,9996,-0.181763,0.132080,0.933105,512
24560874,9987,-0.183350,0.133545,0.934937,511
24570876,10002,-0.181641,0.138916,0.941895,512
24580877,10001,-0.179565,0.139648,0.946289,505
24590879,10002,-0.177979,0.142700,0.950439,509
24600883,10004,-0.177979,0.143677,0.955444,509
24610901,10018,-0.176880,0.145386,0.960571,508
24620873,9972,-0.177856,0.149414,0.967041,504
24630876,10003,-0.176514,0.162476,0.972900,503
24640917,10041,-0.179077,0.164795,0.974365,496
24650898,9981,-0.180908,0.165649,0.974976,499
24660880,9982,-0.181030,0.167480,0.974243,503
24670884,10004,-0.181519,0.168701,0.974365,500
24680873,9989,-0.183350,0.171143,0.977173,502
24690869,9996,-0.182129,0.171387,0.979980,500
24700869,10000,-0.182983,0.169067,0.980347,498
24710873,10004,-0.181885,0.164795,0.980835,498
24720893,10020,-0.181274,0.160278,0.979004,498
24730880,9987,-0.180908,0.158813,0.977295,494
24740873,9993,-0.178833,0.156982,0.979858,497
24750871,9998,-0.178955,0.155396,0.982056,496
24760883,10012,-0.178711,0.155762,0.982788,493
24770897,10014,-0.178833,0.156494,0.982300,489
24780876,9979,-0.179443,0.156494,0.981323,487
24790899,10023,-0.180420,0.153320,0.974487,490
24800911,10012,-0.182617,0.150024,0.972656,490
24810894,9983,-0.180298,0.145874,0.968994,491
24820884,9990,-0.178955,0.142700,0.966187,495
24830898,10014,-0.178101,0.144653,0.962402,497
24840874,9976,-0.177856,0.146362,0.956665,499
24850877,10003,-0.175781,0.146484,0.953125,507
24860876,9999,-0.173340,0.145264,0.948853,518
24870895,10019,-0.174561,0.145996,0.943848,526
24880872,9977,-0.173096,0.145142,0.940430,529
24890887,10015,-0.173096,0.145264,0.938354,540
24900893,10006,-0.173096,0.144775,0.937988,547
24910874,9981,-0.175049,0.142700,0.937866,551
24920897,10023,-0.176514,0.141113,0.935303,557
24930899,10002,-0.178223,0.142578,0.933472,558
24940884,9985,-0.180176,0.145264,0.933472,557
24950891,10007,-0.182983,0.144043,0.936646,551
24960895,10004,-0.183105,0.145630,0.937866,550
24970878,9983,-0.184082,0.148315,0.939331,544
24980895,10017,-0.184937,0.150269,0.942017,533
24990883,9988,-0.185303,0.151123,0.945801,533
25007775,16892,-0.184937,0.150391,0.951172,516
25013151,5376,-0.186768,0.149170,0.953369,521
25020893,7742,-0.186035,0.148682,0.952026,510
25030898,10005,-0.186890,0.149170,0.951904,502
25040869,9971,-0.187866,0.149292,0.953369,507
25050884,10015,-0.187012,0.152100,0.955566,503
25060898,10014,-0.191284,0.158691,0.957520,502
25070875,9977,-0.190430,0.156982,0.958496,499
25080891,10016,-0.191772,0.156128,0.962036,489
25090870,9979,-0.191650,0.152466,0.963379,491
25100889,10019,-0.191650,0.151001,0.965210,499
25110871,9982,-0.189941,0.150391,0.963745,499
25120883,10012,-0.191040,0.151611,0.964233,501
25130895,10012,-0.191284,0.152222,0.963135,500
25140870,9975,-0.193604,0.152954,0.962036,504
25150873,10003,-0.195312,0.153442,0.963501,508
25160891,10018,-0.195557,0.153442,0.962769,507
25170882,9991,-0.196533,0.156372,0.961792,500
25180869,9987,-0.196289,0.156372,0.961060,506
25190890,10021,-0.195801,0.157715,0.961060,507
25200870,9980,-0.195435,0.160889,0.961426,506
25219231,18361,-0.196899,0.160767,0.957520,503
25224767,5536,-0.197510,0.161011,0.957886,504
25230895,6128,-0.196899,0.162109,0.955078,498
25240925,10030,-0.197998,0.161621,0.952637,501
25250895,9970,-0.198486,0.161255,0.950562,498
25260891,9996,-0.199219,0.160400,0.948730,491
25270872,9981,-0.198608,0.159058,0.948608,490
25282934,12062,-0.198975,0.157349,0.944580,496
25290876,7942,-0.197021,0.157715,0.945068,496
25300890,10014,-0.193848,0.156494,0.945801,495
25310879,9989,-0.192749,0.152832,0.947021,491
25320872,9993,-0.191406,0.148193,0.948120,492
25330883,10011,-0.189453,0.145020,0.949463,492
25340878,9995,-0.189087,0.134888,0.950073,489
25350879,10001,-0.190552,0.134766,0.951050,490
25360897,10018,-0.192017,0.136719,0.952881,483
25370898,10001,-0.192139,0.138184,0.954102,486
25380885,9987,-0.191528,0.138062,0.955688,487
25390869,9984,-0.192871,0.136963,0.958984,485
25400892,10023,-0.191406,0.140991,0.960937,482
25410879,9987,-0.188477,0.144531,0.959839,485
25420885,10006,-0.188354,0.145874,0.958496,488
25430903,10018,-0.188721,0.147705,0.957031,487
25440887,9984,-0.189331,0.148315,0.954956,491
25450871,9984,-0.190308,0.147461,0.953125,494
25460923,10052,-0.191040,0.148315,0.953369,498
25470873,9950,-0.190918,0.149536,0.953247,502
25480881,10008,-0.191284,0.151978,0.953369,508
25490892,10011,-0.191772,0.153564,0.953979,518
25500894,10002,-0.194092,0.155884,0.952881,522
25520645,19751,-0.189209,0.154663,0.954712,541
25526081,5436,0.000000,0.000000,0.000000,546
25530890,4809,-0.188110,0.154907,0.954956,547
25540898,10008,-0.187500,0.154175,0.955688,547
25550869,9971,-0.184814,0.148682,0.954590,555
25560883,10014,-0.182861,0.146973,0.953857,555
25570871,9988,-0.182739,0.147461,0.953003,555
25580884,10013,-0.184204,0.145386,0.953125,551
25590878,9994,-0.184448,0.145264,0.954102,547
25600877,9999,-0.184814,0.145630,0.954712,542
25610891,10014,-0.186523,0.150269,0.957153,538
25620889,9998,-0.188721,0.150635,0.958252,531
25630874,9985,-0.190186,0.149048,0.957397,526
25640892,10018,-0.191284,0.150146,0.958252,512
25650898,10006,-0.191528,0.150757,0.957764,510
25660876,9978,-0.191772,0.147583,0.958130,509
25670891,10015,-0.192871,0.147705,0.958984,506
25680881,9990,-0.192871,0.148193,0.959961,503
25690884,10003,-0.192017,0.150146,0.958862,499
25700897,10013,-0.191406,0.151855,0.957275,501
25710871,9974,-0.190674,0.152954,0.954468,495
25720881,10010,-0.188232,0.153687,0.954224,501
25730882,10001,-0.185669,0.149902,0.955078,497
25740893,10011,-0.184204,0.147583,0.959595,504
25750875,9982,-0.184326,0.150513,0.962769,503
25760878,10003,-0.184448,0.151489,0.963867,506
25770883,10005,-0.181396,0.152832,0.960449,504
25780872,9989,-0.181152,0.150513,0.957764,507
25790895,10023,-0.180298,0.150635,0.954346,504
25800873,9978,-0.180298,0.151367,0.953369,507
25810897,10024,-0.179443,0.151245,0.953613,502
25820869,9972,-0.180664,0.151489,0.956543,508
25831556,10687,-0.183838,0.156250,0.958984,503
25840869,9313,-0.186401,0.155518,0.958130,505
25850873,10004,-0.189697,0.152954,0.957397,502
25860907,10034,-0.191162,0.147705,0.955933,502
25870879,9972,-0.192383,0.141846,0.956177,501
25880881,10002,-0.193115,0.145264,0.954224,500
25890915,10034,-0.192505,0.147827,0.954102,497
25900893,9978,-0.190430,0.149048,0.955444,495
25910891,9998,-0.190918,0.148071,0.957153,495
25920891,10000,-0.192627,0.148682,0.957642,487
25935090,14199,-0.196777,0.150146,0.951538,486
25940891,5801,-0.198364,0.148926,0.948730,488
25950891,10000,-0.199097,0.150391,0.945435,485
25960871,9980,-0.201294,0.152710,0.942871,492
25970872,10001,-0.201050,0.151489,0.941528,492
25980896,10024,-0.200317,0.150391,0.940674,495
25990877,9981,-0.200806,0.151978,0.944214,495
26000889,10012,-0.198120,0.154785,0.946777,491
26010887,9998,-0.196045,0.156372,0.947998,494
26020873,9986,-0.195679,0.152100,0.949341,493
26030874,10001,-0.192871,0.146973,0.951416,490
26040870,9996,-0.191162,0.141968,0.954712,492
26050892,10022,-0.187622,0.136230,0.956543,490
26060875,9983,-0.187378,0.135864,0.957153,488
26070872,9997,-0.187866,0.141113,0.955322,490
26080886,10014,-0.187744,0.144531,0.954468,489
26090888,10002,-0.186157,0.145508,0.954956,492
26100916,10028,-0.185791,0.145996,0.954712,496
26110888,9972,-0.186035,0.149658,0.953613,495
26120879,9991,-0.187378,0.154541,0.952759,506
26130869,9990,-0.187256,0.161133,0.950806,516
26140892,10023,-0.187500,0.164062,0.950439,518
26150896,10004,-0.187378,0.163086,0.954102,530
26160893,9997,-0.187744,0.160278,0.954224,539
26170877,9984,-0.188721,0.157349,0.955078,545
26180885,10008,-0.189087,0.155151,0.955322,551
26190888,10003,-0.189941,0.153198,0.955200,546
26200894,10006,-0.190796,0.154419,0.954468,550
26210886,9992,-0.192383,0.154053,0.952515,551
26220886,10000,-0.194580,0.152832,0.954590,551
26230890,10004,-0.194702,0.153320,0.955078,546
26240896,10006,-0.194946,0.155396,0.958618,542
26250884,9988,-0.192871,0.154785,0.964111,536
26260873,9989,-0.192871,0.153076,0.968506,528
26270903,10030,-0.194702,0.152222,0.967163,521
26280885,9982,-0.196777,0.151245,0.965942,520
26290925,10040,-0.195923,0.150879,0.965576,514
26300889,9964,-0.195435,0.152100,0.963501,505
26310881,9992,-0.195557,0.151611,0.965454,505
26320872,9991,-0.194214,0.149170,0.966431,502
26330898,10026,-0.195435,0.150269,0.963745,498
26340876,9978,-0.195435,0.150879,0.960815,494
26350895,10019,-0.195801,0.150635,0.959229,499
26360894,9999,-0.195312,0.152588,0.959473,502
26370893,9999,-0.196655,0.153442,0.957764,505
26380874,9981,-0.195557,0.154663,0.954102,504
26390870,9996,-0.195190,0.155518,0.952515,503
26400886,10016,-0.193481,0.156616,0.949707,511
26410893,10007,-0.191162,0.156372,0.946655,511
26420870,9977,-0.189575,0.154785,0.946411,515
26430883,10013,-0.186035,0.151123,0.942871,509
26440887,10004,-0.186035,0.149536,0.942871,518
26450870,9983,-0.185059,0.148926,0.943970,512
26460871,10001,-0.184570,0.148926,0.944092,514
26470909,10038,-0.185181,0.150391,0.942749,508
26480895,9986,-0.187134,0.151245,0.943359,500
26490887,9992,-0.188477,0.151733,0.943359,508
26500878,9991,-0.188721,0.152466,0.941650,510
26510883,10005,-0.188110,0.150269,0.940430,507
26520897,10014,-0.188477,0.149658,0.940430,506
26530881,9984,-0.190918,0.152222,0.942505,507
26540870,9989,-0.188721,0.152710,0.946899,509
26550872,10002,-0.191040,0.153320,0.947632,502
26560879,10007,-0.191895,0.153931,0.949219,504
26570869,9990,-0.193726,0.157104,0.948242,506
26580873,10004,-0.196777,0.159912,0.949341,502
26590879,10006,-0.199707,0.160522,0.953247,505
26600869,9990,-0.200195,0.157715,0.955566,504
26610896,10027,-0.201172,0.156006,0.958496,504
26620897,10001,-0.201538,0.154663,0.959717,499
26630892,9995,-0.201538,0.155884,0.957520,497
26640879,9987,-0.201416,0.154663,0.957275,502
26650893,10014,-0.199707,0.156128,0.953979,502
26660883,9990,-0.201538,0.156860,0.952393,495
26670889,10006,-0.202271,0.156006,0.951416,502
26680893,10004,-0.202148,0.154541,0.951172,495
26690888,9995,-0.201172,0.153442,0.951050,495
26700898,10010,-0.202515,0.155029,0.952637,494
26710886,9988,-0.202393,0.152954,0.954224,501
26720874,9988,-0.201172,0.149048,0.953003,502
26730878,10004,-0.199951,0.147827,0.953857,503
26740892,10014,-0.201172,0.148560,0.955200,500
26750882,9990,-0.200439,0.150269,0.957520,507
26760893,10011,-0.199707,0.154053,0.959717,509
26770880,9987,-0.197876,0.155029,0.960449,508
26780890,10010,-0.198608,0.157715,0.962280,513
26790889,9999,-0.198486,0.155884,0.961548,529
26800880,9991,-0.195068,0.156006,0.962646,533
26810877,9997,-0.191650,0.149048,0.961060,543
26832577,21700,-0.191162,0.146729,0.956665,550
26838125,5548,-0.191040,0.148071,0.956055,553
26855044,16919,-0.191406,0.149658,0.954346,555
26860399,5355,0.000000,0.000000,0.000000,552
26864532,4133,-0.191895,0.151245,0.953125,554
26870891,6359,-0.189697,0.148437,0.953125,553
26880897,10006,-0.184448,0.146118,0.951782,550
26890876,9979,-0.180542,0.145874,0.953857,544
26900887,10011,-0.177612,0.146606,0.950928,539
26910883,9996,-0.176636,0.147461,0.945801,535
26920898,10015,-0.179687,0.147339,0.943359,526
26941595,20697,-0.184692,0.148437,0.942383,520
26947196,5601,-0.189331,0.150513,0.945190,515
26952700,5504,0.000000,0.000000,0.000000,513
26960873,8173,-0.192261,0.154541,0.946411,513
26970873,10000,-0.199097,0.158936,0.949341,506
26980886,10013,-0.198853,0.159180,0.951050,506
26990884,9998,-0.199829,0.156982,0.951904,503
27000888,10004,-0.198242,0.153442,0.954346,507
27010885,9997,-0.198975,0.149658,0.953979,506
27020876,9991,-0.196655,0.146851,0.956665,506
27030882,10006,-0.195190,0.142822,0.960205,506
27048926,18044,-0.195923,0.142822,0.962402,508
27056909,7983,-0.195435,0.144409,0.962524,507
27062248,5339,0.000000,0.000000,0.000000,512
27070909,8661,-0.196655,0.146973,0.959717,506
27080883,9974,-0.198853,0.152344,0.954346,509
27090888,10005,-0.199585,0.154907,0.953369,511
27100876,9988,-0.200317,0.155762,0.953857,511
27110877,10001,-0.201416,0.158081,0.955200,506
27120871,9994,-0.202026,0.158936,0.958252,511
27130893,10022,-0.199585,0.157104,0.959106,514
27140897,10004,-0.193481,0.151489,0.958740,512
27150875,9978,-0.189209,0.146362,0.959351,511
27160891,10016,-0.185669,0.144775,0.958618,507
27170896,10005,-0.185181,0.140015,0.961792,507
27180888,9992,-0.181885,0.137695,0.965088,507
27190895,10007,-0.179199,0.138306,0.968506,507
27200898,10003,-0.179443,0.138184,0.967529,506
27210883,9985,-0.180054,0.137939,0.965454,504
27220898,10015,-0.180664,0.140137,0.964600,503
27230884,9986,-0.181396,0.142212,0.960571,503
27240871,9987,-0.182007,0.142944,0.956055,503
27250907,10036,-0.181763,0.143799,0.952759,502
27260897,9990,-0.183594,0.147217,0.948364,504
27270869,9972,-0.184448,0.147339,0.947144,508
27280877,10008,-0.183716,0.149048,0.946289,501
27290881,10004,-0.182861,0.149170,0.945312,507
27300874,9993,-0.181885,0.148315,0.946289,508
27310898,10024,-0.180298,0.146118,0.946899,504
27320892,9994,-0.178467,0.145752,0.946045,506
27330880,9988,-0.179687,0.143433,0.946899,502
27340881,10001,-0.177612,0.140015,0.949341,505
27350871,9990,-0.179199,0.136108,0.950317,502
27360886,10015,-0.181885,0.135010,0.950562,485
27370878,9992,-0.185547,0.136597,0.952148,496
27380875,9997,-0.187134,0.137573,0.954224,504
27390894,10019,-0.188477,0.138184,0.958618,502
27400896,10002,-0.190918,0.138672,0.961792,510
27410887,9991,-0.188965,0.141357,0.964478,511
27420881,9994,-0.188477,0.140625,0.963013,523
27430896,10015,-0.185181,0.140625,0.962769,532
27440895,9999,-0.186279,0.140991,0.963623,535
27450874,9979,-0.184448,0.139160,0.964844,542
27460885,10011,-0.183228,0.138916,0.967041,547
27470907,10022,-0.181763,0.138550,0.969238,547
27480870,9963,-0.180786,0.139404,0.967041,547
27490883,10013,-0.181396,0.139893,0.963989,549
27500887,10004,-0.182007,0.141357,0.962402,545
27510892,10005,-0.179687,0.142212,0.961792,545
27523372,12480,-0.177734,0.145874,0.964844,534
27530890,7518,-0.177856,0.145996,0.965210,532
27540874,9984,-0.176392,0.145386,0.962524,530
27561390,20516,-0.177368,0.145752,0.955688,514
27566796,5406,-0.177734,0.148437,0.952271,513
27572336,5540,-0.180542,0.151245,0.949951,507
27580871,8535,-0.179810,0.151978,0.950317,505
27590894,10023,-0.180298,0.151367,0.953979,501
27600882,9988,-0.182129,0.151001,0.958496,499
27610886,10004,-0.182251,0.148193,0.960937,496
27620890,10004,-0.182129,0.145874,0.961548,500
27630888,9998,-0.182007,0.144531,0.957397,501
27640871,9983,-0.181641,0.141479,0.958008,500
27656736,15865,-0.178223,0.135376,0.958984,494
27662187,5451,0.000000,0.000000,0.000000,499
27670882,8695,-0.177368,0.133545,0.961304,500
27680898,10016,-0.181152,0.137451,0.961060,503
27690908,10010,-0.180664,0.138428,0.961060,503
27700870,9962,-0.183350,0.138794,0.960327,506
27710869,9999,-0.183960,0.138550,0.958374,508
27720881,10012,-0.186523,0.140625,0.957764,508
27735978,15097,-0.187744,0.140625,0.958252,508
27741432,5454,-0.185791,0.140869,0.959839,508
27750882,9450,-0.186157,0.141235,0.958130,506
27760882,10000,-0.187500,0.141724,0.956177,495
27770897,10015,-0.187744,0.143921,0.953979,499
27780884,9987,-0.188110,0.142944,0.954590,498
27790878,9994,-0.188354,0.138794,0.954224,504
27800887,10009,-0.187134,0.137817,0.956299,503
27810891,10004,-0.188354,0.139038,0.956543,495
27820879,9988,-0.190186,0.139771,0.955200,499
27830877,9998,-0.191406,0.138428,0.955322,498
27840877,10000,-0.190918,0.139893,0.953003,496
27850871,9994,-0.190063,0.142700,0.952515,497
27860891,10020,-0.189087,0.143066,0.952148,494
27875632,14741,-0.187378,0.142700,0.953003,490
27881434,5802,0.000000,0.000000,0.000000,488
27890872,9438,-0.185791,0.139526,0.952881,495
27900871,9999,-0.185791,0.138062,0.955566,490
27910881,10010,-0.184814,0.137207,0.956299,488
27920896,10015,-0.185425,0.136475,0.956909,492
27930881,9985,-0.183594,0.137573,0.957397,490
27940897,10016,-0.182495,0.138672,0.958740,488
27950870,9973,-0.181030,0.139038,0.957397,493
27960889,10019,-0.182861,0.138794,0.956909,494
27970883,9994,-0.183350,0.141357,0.957031,493
27980883,10000,-0.183960,0.140259,0.956421,493
27990879,9996,-0.183716,0.140503,0.958862,500
28000872,9993,-0.184937,0.141724,0.958496,503
28010877,10005,-0.185425,0.142578,0.959961,507
28020882,10005,-0.185181,0.139404,0.959229,509
28030881,9999,-0.184448,0.136841,0.958008,518
28043081,12200,-0.184814,0.136108,0.957886,525
28050890,7809,-0.185059,0.137207,0.957764,530
28060891,10001,-0.184448,0.137451,0.959595,534
28070889,9998,-0.184814,0.136230,0.962280,545
28080892,10003,-0.185669,0.136108,0.963867,542
28090890,9998,-0.183716,0.134644,0.962402,552
28100892,10002,-0.182495,0.133057,0.962280,545
28110879,9987,-0.182495,0.135132,0.963257,536
28120882,10003,-0.180176,0.137573,0.961670,546
28130892,10010,-0.178101,0.139771,0.962524,546
28140898,10006,-0.176514,0.140625,0.962524,532
28150883,9985,-0.177246,0.140991,0.963013,537
28166841,15958,-0.178223,0.137817,0.957642,519
28172333,5492,-0.178345,0.137207,0.954712,523
28180876,8543,-0.180664,0.138672,0.950806,509
28190878,10002,-0.180786,0.139038,0.950073,512
28200889,10011,-0.182861,0.139648,0.950562,508
28210878,9989,-0.183838,0.140625,0.951172,505
28220877,9999,-0.182251,0.141357,0.952271,496
28230874,9997,-0.181030,0.139038,0.955078,501
28240888,10014,-0.179810,0.138428,0.953613,499
28261040,20152,-0.180786,0.134888,0.954590,499
28266564,5524,-0.179077,0.130005,0.958130,502
28272270,5706,0.000000,0.000000,0.000000,493
28280887,8617,-0.179565,0.124634,0.962158,498
28290883,9996,-0.178467,0.124268,0.964722,500
28300890,10007,-0.178711,0.124878,0.963745,504
28310874,9984,-0.176758,0.124023,0.963501,503
28320894,10020,-0.174194,0.124512,0.963379,500
28330876,9982,-0.174316,0.125488,0.966553,507
28340874,9998,-0.174072,0.131836,0.965210,506
28350881,10007,-0.180908,0.136719,0.968994,504
28360878,9997,-0.181274,0.142334,0.972534,500
28370889,10011,-0.183350,0.145630,0.971802,504
28380897,10008,-0.183838,0.144287,0.974731,500
28390869,9972,-0.186646,0.137329,0.979248,502
28400885,10016,-0.185791,0.139771,0.977783,503
28410890,10005,-0.183838,0.139893,0.976807,496
28420915,10025,-0.183350,0.141113,0.973267,498
28430896,9981,-0.184814,0.142822,0.971558,488
28440872,9976,-0.186157,0.141968,0.968506,495
28450888,10016,-0.188599,0.142212,0.966064,489
28460886,9998,-0.188232,0.141357,0.965576,488
28470884,9998,-0.187500,0.140015,0.964355,492
28480892,10008,-0.187012,0.139160,0.963379,492
28490888,9996,-0.186035,0.137695,0.961426,490
28500896,10008,-0.182251,0.131104,0.954956,493
28510885,9989,-0.181885,0.127319,0.951050,492
28520885,10000,-0.180176,0.125854,0.949463,494
28530894,10009,-0.180054,0.124146,0.947266,492
28540870,9976,-0.178223,0.123047,0.946045,492
28550882,10012,-0.175781,0.123901,0.942017,492
28560885,10003,-0.174561,0.124268,0.940186,486
28570875,9990,-0.174561,0.122314,0.937744,489
28580886,10011,-0.173706,0.119751,0.934570,493
28590895,10009,-0.174194,0.118042,0.933105,493
28600878,9983,-0.175903,0.117432,0.932617,493
28610891,10013,-0.177612,0.123901,0.935059,493
28620889,9998,-0.177002,0.126465,0.938477,493
28630874,9985,-0.176392,0.126953,0.941406,506
28640881,10007,-0.176270,0.127319,0.944092,508
28650874,9993,-0.177124,0.127197,0.946655,517
28660888,10014,-0.175537,0.126099,0.951294,517
28670890,10002,-0.176758,0.127075,0.953491,523
28680887,9997,-0.179077,0.127441,0.957275,537
28690869,9982,-0.179443,0.128906,0.960083,537
28700871,10002,-0.180664,0.130859,0.963135,536
28710896,10025,-0.181152,0.131836,0.964233,545
28720881,9985,-0.182983,0.135376,0.964478,538
28730878,9997,-0.183228,0.136719,0.965698,543
28740892,10014,-0.186157,0.137573,0.966309,537
28750898,10006,-0.187988,0.138062,0.968384,531
28760878,9980,-0.187866,0.138550,0.971924,529
28770876,9998,-0.191040,0.137329,0.976440,525
28780877,10001,-0.188232,0.136475,0.977539,519
28790888,10011,-0.187500,0.136719,0.977051,513
28800899,10011,-0.185547,0.137695,0.976807,508
28810893,9994,-0.184082,0.135742,0.975342,499
28820882,9989,-0.182373,0.133301,0.973511,498
28830878,9996,-0.182495,0.131592,0.973145,494
28840891,10013,-0.179932,0.129395,0.971436,487
28850879,9988,-0.179077,0.127930,0.969116,490
28860869,9990,-0.178101,0.126465,0.965576,490
28870880,10011,-0.178833,0.126709,0.962158,492
28880886,10006,-0.180054,0.129150,0.961548,493
28890879,9993,-0.179443,0.128052,0.960205,495
28900884,10005,-0.179810,0.127808,0.960083,498
28910895,10011,-0.181396,0.126343,0.959106,504
28920891,9996,-0.182495,0.126099,0.957520,505
28930873,9982,-0.183838,0.125244,0.954468,506
28940869,9996,-0.186646,0.122437,0.953735,507
28950876,10007,-0.185303,0.122559,0.953979,510
28960875,9999,-0.184448,0.121826,0.954834,506
28970895,10020,-0.184570,0.120605,0.955322,506
28980876,9981,-0.183105,0.120972,0.956299,505
28990892,10016,-0.180908,0.120850,0.957520,505
29000886,9994,-0.180298,0.118042,0.957153,505
29010890,10004,-0.180908,0.116699,0.958740,502
29020889,9999,-0.180664,0.115112,0.960449,494
29030884,9995,-0.182007,0.114990,0.961548,502
29040890,10006,-0.180542,0.115479,0.964111,498
29050890,10000,-0.179687,0.115479,0.963379,497
29060889,9999,-0.178345,0.115234,0.963135,489
29070898,10009,-0.176758,0.116821,0.962646,495
29080883,9985,-0.174927,0.118652,0.963867,490
29090882,9999,-0.170898,0.120605,0.961914,495
29100889,10007,-0.170288,0.122681,0.958252,497
29110873,9984,-0.169556,0.125000,0.954590,496
29120887,10014,-0.169922,0.128418,0.954590,494
29130869,9982,-0.168945,0.130615,0.955811,494
29140882,10013,-0.169312,0.133301,0.956543,498
29150887,10005,-0.172729,0.134399,0.958496,503
29160892,10005,-0.172363,0.133423,0.959351,505
29170888,9996,-0.172852,0.131958,0.960327,503
29180881,9993,-0.174683,0.129517,0.960937,498
29190897,10016,-0.175659,0.127563,0.961304,497
29200897,10000,-0.176514,0.093872,0.961426,503
29210879,9982,-0.177124,0.124512,0.962646,503
29220886,10007,-0.177490,0.123535,0.963501,494
29230879,9993,-0.176392,0.120850,0.965942,505
29240897,10018,-0.177368,0.120239,0.967041,505
29250884,9987,-0.179077,0.117432,0.967896,509
29260896,10012,-0.179932,0.112793,0.970825,506
29270869,9973,-0.181152,0.113403,0.970581,517
29280895,10026,-0.181519,0.113647,0.969238,526
29290898,10003,-0.179077,0.110596,0.967529,533
29300871,9973,-0.179199,0.107788,0.966431,542
29310883,10012,-0.177368,0.102051,0.966553,546
29320896,10013,-0.177124,0.099854,0.964600,543
29330884,9988,-0.175903,0.099854,0.962891,546
29340877,9993,-0.175537,0.102783,0.962524,547
29350893,10016,-0.176147,0.106323,0.961548,541
29360896,10003,-0.178101,0.106689,0.962280,547
29370876,9980,-0.176147,0.107910,0.963257,545
29380873,9997,-0.177124,0.109253,0.962402,536
29390888,10015,-0.176636,0.110229,0.963013,527
29400878,9990,-0.177979,0.113281,0.965820,528
29410884,10006,-0.177856,0.114014,0.966431,522
29420891,10007,-0.181152,0.108521,0.968750,519
29430895,10004,-0.179443,0.109009,0.971802,508
29440895,10000,-0.180420,0.111206,0.968262,510
29450893,9998,-0.183716,0.115845,0.968872,505
29460898,10005,-0.179077,0.116699,0.967407,501
29470878,9980,-0.178833,0.116943,0.967651,497
29480898,10020,-0.177856,0.118652,0.969604,499
29490892,9994,-0.177856,0.121460,0.971680,499
29500871,9979,-0.174194,0.120972,0.972656,501
29510879,10008,-0.171753,0.120483,0.970947,503
29520872,9993,-0.168579,0.119141,0.970459,504
29530895,10023,-0.165283,0.115234,0.970825,507
29540917,10022,-0.166504,0.115845,0.969604,507
29550891,9974,-0.168335,0.116943,0.968750,509
29560882,9991,-0.168335,0.114990,0.964966,512
29570874,9992,-0.168579,0.115112,0.964355,509
29580888,10014,-0.169800,0.118896,0.962402,510
29590870,9982,-0.169678,0.117188,0.958862,514
29600883,10013,-0.170532,0.115112,0.959839,512
29610897,10014,-0.169189,0.114258,0.960327,513
29620886,9989,-0.170166,0.112061,0.959717,510
29630883,9997,-0.171631,0.110474,0.957275,510
29640898,10015,-0.174805,0.110962,0.953003,511
29650881,9983,-0.176147,0.112183,0.953857,508
29660883,10002,-0.178345,0.109375,0.956055,509
29670884,10001,-0.178467,0.108032,0.958374,508
29680878,9994,-0.178589,0.109131,0.958130,501
29690871,9993,-0.177612,0.108276,0.956421,506
29700888,10017,-0.182617,0.118164,0.956543,506
29710873,9985,-0.181641,0.128784,0.958862,500
29720882,10009,-0.178711,0.132935,0.962524,507
29730895,10013,-0.172607,0.125610,0.966309,506
29740882,9987,-0.171997,0.121582,0.969360,506
29750879,9997,-0.167969,0.100464,0.960937,507
29760891,10012,-0.166138,0.092896,0.958008,500
29770883,9992,-0.164062,0.090332,0.955811,502
29780887,10004,-0.163818,0.096191,0.957397,496
29790897,10010,-0.163452,0.102295,0.960693,500
29800894,9997,-0.165649,0.113403,0.974854,498
29810876,9982,-0.166138,0.114014,0.978271,498
29820893,10017,-0.168335,0.112549,0.977295,496
29830875,9982,-0.170532,0.108398,0.976807,495
29840869,9994,-0.171143,0.109253,0.973389,501
29850881,10012,-0.172363,0.109863,0.969360,504
29860886,10005,-0.173828,0.109619,0.967773,510
29870892,10006,-0.173706,0.112427,0.966431,509
29880882,9990,-0.173462,0.116455,0.965576,519
29890882,10000,-0.172607,0.117065,0.966187,529
29900890,10008,-0.173584,0.117798,0.965576,542
29910876,9986,-0.176636,0.118896,0.958984,544
29920913,10037,-0.177734,0.120972,0.956909,555
29930874,9961,-0.177490,0.120483,0.956909,559
29940882,10008,-0.179077,0.117798,0.955933,556
29950884,10002,-0.178223,0.116699,0.954712,554
29960872,9988,-0.181274,0.117065,0.956055,555
29970875,10003,-0.180908,0.129272,0.957031,556
29980869,9994,-0.177979,0.127441,0.959351,547
29990869,10000,-0.176636,0.125610,0.957642,542
30000884,10015,-0.176880,0.119263,0.956421,536
30010888,10004,-0.174194,0.107910,0.954224,533
30020891,10003,-0.175415,0.090332,0.959229,527
30030881,9990,-0.174683,0.090576,0.964844,519
30040890,10009,-0.175537,0.097046,0.968994,513
30050895,10005,-0.175537,0.105713,0.971924,504
30060874,9979,-0.177612,0.113525,0.973633,503
30070883,10009,-0.177979,0.121338,0.976685,498
30080871,9988,-0.177124,0.115967,0.975830,497
30090877,10006,-0.176270,0.110596,0.972656,497
30100874,9997,-0.177124,0.107910,0.968628,499
30110884,10010,-0.177979,0.108154,0.965088,500
30120884,10000,-0.177490,0.110718,0.964722,497
30130882,9998,-0.181152,0.119019,0.966675,506
30140879,9997,-0.181641,0.123291,0.966431,502
30150891,10012,-0.181763,0.130127,0.965576,510
30160887,9996,-0.181885,0.134155,0.965088,512
30170887,10000,-0.180542,0.132324,0.962158,516
30180884,9997,-0.179932,0.124634,0.957520,513
30218715,37831,-0.170776,0.119263,0.963135,517
30224672,5957,-0.168091,0.117798,0.963623,510
30230277,5605,0.000000,0.000000,0.000000,506
30234712,4435,-0.165894,0.117065,0.963745,513
30240218,5506,0.000000,0.000000,0.000000,504
30244736,4518,-0.166626,0.116211,0.964722,509
30250886,6150,-0.165283,0.114868,0.964111,500
30260884,9998,-0.165405,0.115967,0.962891,505
30270877,9993,-0.167358,0.119751,0.963745,504
30280921,10044,-0.166382,0.119507,0.964478,501
30290876,9955,-0.167725,0.115234,0.965088,499
30300893,10017,-0.168213,0.113159,0.963745,500
30310871,9978,-0.168945,0.110718,0.962769,499
30320872,10001,-0.169678,0.110596,0.960205,495
30330895,10023,-0.169678,0.111938,0.958496,497
30340889,9994,-0.170654,0.113770,0.957764,495
30350895,10006,-0.170898,0.114502,0.957764,494
30360879,9984,-0.171265,0.116821,0.961304,497
30370880,10001,-0.171997,0.120728,0.961304,495
30380884,10004,-0.172852,0.122437,0.961792,492
30390879,9995,-0.175049,0.121826,0.962891,495
30404068,13189,-0.178589,0.117798,0.959961,489
30410898,6830,-0.182251,0.114868,0.958862,500
30420885,9987,-0.185913,0.115234,0.959106,500
30430886,10001,-0.189575,0.118774,0.959351,501
30440888,10002,-0.190674,0.119019,0.961548,509
30450903,10015,-0.192627,0.122192,0.995728,511
30460882,9979,-0.195557,0.125732,0.969360,516
30470892,10010,-0.194702,0.122925,0.969971,524
30480897,10005,-0.192627,0.119141,0.969360,532
30490877,9980,-0.192383,0.119141,0.967163,531
30505985,15108,-0.186157,0.111694,0.965576,546
30511494,5509,-0.183838,0.106934,0.967163,540
30520892,9398,-0.182007,0.106201,0.968140,551
30530895,10003,-0.181030,0.106934,0.969727,552
30540896,10001,-0.177856,0.108887,0.970337,545
30550878,9982,-0.175903,0.109863,0.969604,545
30560878,10000,-0.175537,0.112793,0.965576,543
30570892,10014,-0.170776,0.112793,0.964478,531
30585049,14157,-0.171143,0.114746,0.964355,532
30590882,5833,-0.169434,0.117188,0.963745,530
30600871,9989,-0.167969,0.119995,0.965332,522
30610875,10004,-0.167358,0.123047,0.965820,517
30620874,9999,-0.168091,0.125366,0.965576,511
30630881,10007,-0.168335,0.125122,0.963745,507
30640882,10001,-0.167847,0.123291,0.962036,504
30650891,10009,-0.167236,0.121704,0.960693,503
30660884,9993,-0.165649,0.121704,0.959961,501
30670890,10006,-0.168823,0.126099,0.957764,501
30680874,9984,-0.168701,0.127808,0.959229,500
30690883,10009,-0.170776,0.130249,0.957397,495
30700896,10013,-0.173706,0.131714,0.957520,504
30710889,9993,-0.174316,0.130615,0.958740,505
30720876,9987,-0.176025,0.127930,0.959717,507
30730897,10021,-0.180908,0.120361,0.962036,507
30740872,9975,-0.183838,0.121338,0.964600,508
30750882,10010,-0.184937,0.119141,0.965332,509
30760886,10004,-0.184937,0.117676,0.965820,508
30770880,9994,-0.183105,0.114502,0.968384,508
30780893,10013,-0.181030,0.111084,0.966919,501
30823565,42672,-0.178223,0.110718,0.969238,500
30828697,5132,0.000000,0.000000,0.000000,498
30833153,4456,-0.180054,0.109985,0.968994,493
30838372,5219,0.000000,0.000000,0.000000,497
30842467,4095,-0.179443,0.110474,0.966187,497
30847661,5194,0.000000,0.000000,0.000000,499
30852146,4485,-0.180664,0.113403,0.961426,497
30860898,8752,-0.180664,0.117188,0.958618,498
30870875,9977,-0.181885,0.118042,0.958496,496
30880891,10016,-0.182251,0.119995,0.958130,496
30899094,18203,-0.181152,0.119995,0.958618,496
30904503,5409,0.000000,0.000000,0.000000,493
30910894,6391,-0.179199,0.116943,0.959106,493
30920898,10004,-0.176758,0.113647,0.958374,490
30930886,9988,-0.176636,0.110962,0.955811,495
30940880,9994,-0.175903,0.111084,0.953735,492
30950898,10018,-0.176880,0.111572,0.954468,494
30960886,9988,-0.177856,0.111816,0.955688,492
30970892,10006,-0.177490,0.114380,0.957397,489
30980874,9982,-0.178589,0.115723,0.959595,488
30990891,10017,-0.177124,0.115723,0.959839,489
31000923,10032,-0.177734,0.115967,0.958130,488
31010882,9959,-0.177856,0.113770,0.957642,490
31020886,10004,-0.177002,0.112549,0.958130,491
31030892,10006,-0.178589,0.112915,0.959717,493
31040895,10003,-0.180298,0.114990,0.959229,500
31050898,10003,-0.182007,0.119507,0.963867,500
31060877,9979,-0.183228,0.117554,0.965576,504
31070899,10022,-0.184692,0.115112,0.966553,517
31080893,9994,-0.183472,0.112183,0.967407,525
31090878,9985,-0.184448,0.108521,0.966553,531
31100891,10013,-0.184448,0.107788,0.966187,538
31110890,9999,-0.183594,0.112427,0.967163,535
31120878,9988,-0.183960,0.113892,0.967529,545
31130880,10002,-0.182495,0.113525,0.966187,543
31140895,10015,-0.182861,0.114014,0.967163,545
31150878,9983,-0.183350,0.114990,0.968994,535
31160888,10010,-0.182861,0.114746,0.966187,532
31170882,9994,-0.182373,0.110229,0.966187,533
31180874,9992,-0.180542,0.114380,0.964111,523
31190893,10019,-0.181152,0.118408,0.963745,521
31200892,9999,-0.179687,0.117920,0.962280,515
31210872,9980,-0.180542,0.117432,0.961304,510
31220875,10003,-0.180908,0.114868,0.961792,506
31230893,10018,-0.180054,0.113647,0.960937,500
31240882,9989,-0.180420,0.112793,0.960815,496
31250893,10011,-0.181763,0.112915,0.960815,491
31260881,9988,-0.179687,0.112671,0.962524,491
31270883,10002,-0.179810,0.111694,0.963135,491
31280886,10003,-0.178467,0.112793,0.962646,484
31290875,9989,-0.177246,0.113281,0.958618,492
31300887,10012,-0.177856,0.112427,0.957642,494
31310894,10007,-0.176880,0.111450,0.957520,495
31320870,9976,-0.175903,0.109985,0.957886,493
31330895,10025,-0.177856,0.112915,0.960083,498
31340887,9992,-0.176514,0.111694,0.962402,496
31350911,10024,-0.176880,0.112305,0.961914,501
31360894,9983,-0.178589,0.112549,0.960449,495
31370881,9987,-0.179687,0.112061,0.959351,501
31380876,9995,-0.180786,0.108643,0.959717,501
31390874,9998,-0.181763,0.107422,0.958252,503
31400888,10014,-0.182373,0.108643,0.959229,500
31410875,9987,-0.183105,0.109253,0.957642,500
31420889,10014,-0.182251,0.108521,0.958130,498
31430886,9997,-0.182129,0.110107,0.962524,492
31440895,10009,-0.181519,0.110229,0.965576,490
31450874,9979,-0.180298,0.108032,0.966553,495
31460887,10013,-0.180542,0.110718,0.964355,495
31470895,10008,-0.182495,0.113525,0.962158,484
31480887,9992,-0.182861,0.114014,0.961426,486
31490872,9985,-0.183105,0.113281,0.963013,488
31500881,10009,-0.181274,0.111450,0.965576,488
31510890,10009,-0.180420,0.111694,0.966675,484
31520898,10008,-0.180176,0.113281,0.968018,490
31530915,10017,-0.179077,0.117920,0.969116,488
31540886,9971,-0.182739,0.126587,0.973511,488
31550870,9984,-0.187744,0.127075,0.977539,489
31560894,10024,-0.192749,0.125977,0.982666,482
31570895,10001,-0.195679,0.124634,0.987305,488
31580869,9974,-0.193970,0.120972,0.989258,487
31590872,10003,-0.193970,0.121460,0.991577,486
31600894,10022,-0.187378,0.116699,0.992432,485
31610874,9980,-0.184692,0.110596,0.990601,485
31620888,10014,-0.182251,0.106079,0.989136,477
31630890,10002,-0.180298,0.104248,0.986938,484
31640881,9991,-0.175903,0.106934,0.983032,482
31650891,10010,-0.173340,0.112427,0.971924,490
31660891,10000,-0.172485,0.115234,0.967896,495
31670896,10005,-0.169312,0.115967,0.962158,499
31680872,9976,-0.169434,0.115723,0.959106,502
31690891,10019,-0.167114,0.115112,0.957153,516
31700876,9985,-0.166626,0.113403,0.952515,524
31710873,9997,-0.163208,0.114746,0.941895,531
31720872,9999,-0.160889,0.112305,0.934204,536
31730896,10024,-0.161377,0.108521,0.928345,545
31740878,9982,-0.161377,0.106567,0.925781,538
31750870,9992,-0.163330,0.105835,0.926147,545
31760890,10020,-0.164551,0.106201,0.927002,546
31770872,9982,-0.166748,0.108765,0.926392,539
31780869,9997,-0.168457,0.110474,0.926392,534
31790869,10000,-0.170776,0.112793,0.926392,538
31800894,10025,-0.171753,0.113403,0.928711,536
31810895,10001,-0.175171,0.114258,0.933105,520
31820894,9999,-0.180786,0.110718,0.936401,524
31830870,9976,-0.183228,0.109619,0.944092,513
31840872,10002,-0.184448,0.110840,0.953003,506
31850898,10026,-0.183960,0.111450,0.955444,507
31860880,9982,-0.186890,0.111694,0.968262,502
31870893,10013,-0.179077,0.108398,0.977173,491
31880877,9984,-0.183472,0.106812,0.977295,493
31890915,10038,-0.187378,0.109863,0.981445,494
31900881,9966,-0.183472,0.110474,0.981079,491
31910870,9989,-0.185181,0.110596,0.979980,492
31920892,10022,-0.187866,0.111694,0.985352,493
31930874,9982,-0.187256,0.111816,0.990845,492
31940873,9999,-0.187744,0.113403,0.993164,489
31950870,9997,-0.188232,0.115112,0.994385,495
31960890,10020,-0.186279,0.118286,0.992554,494
31970877,9987,-0.182861,0.120972,0.988281,502
31980880,10003,-0.174561,0.124878,0.979492,501
31990889,10009,-0.170898,0.122192,0.973389,499
32000898,10009,-0.168213,0.121216,0.971436,509
32010889,9991,-0.168457,0.120605,0.970459,502
32020879,9990,-0.169189,0.119141,0.967041,507
32030877,9998,-0.173096,0.120605,0.960083,508
32040898,10021,-0.176758,0.121216,0.958130,507
32050878,9980,-0.177124,0.117432,0.954956,508
32060903,10025,-0.179687,0.115234,0.950317,507
32070899,9996,-0.182373,0.111206,0.946899,501
32080882,9983,-0.181519,0.110962,0.948242,504
32090886,10004,-0.182007,0.108521,0.950195,503
32100880,9994,-0.182373,0.108643,0.950439,507
32110878,9998,-0.183472,0.108276,0.951172,499
32120880,10002,-0.183594,0.105347,0.951172,501
32130872,9992,-0.184937,0.100464,0.953613,500
32140899,10027,-0.183594,0.093018,0.957886,501
32150880,9981,-0.182251,0.096436,0.958862,492
32160893,10013,-0.182861,0.099854,0.961426,492
32170879,9986,-0.180786,0.103271,0.961426,493
32180892,10013,-0.180420,0.104248,0.962524,496
32190888,9996,-0.180542,0.104736,0.964233,497
32200890,10002,-0.180420,0.104370,0.965576,497
32210872,9982,-0.180176,0.104614,0.964478,495
32220884,10012,-0.179687,0.104126,0.966064,490
32230908,10024,-0.179565,0.103638,0.967285,496
32240914,10006,-0.178711,0.105103,0.968140,499
32250874,9960,-0.178955,0.109009,0.965820,498
32260869,9995,-0.179199,0.112549,0.965210,501
32270873,10004,-0.178833,0.112671,0.967651,504
32280888,10015,-0.177002,0.110718,0.969727,507
32290881,9993,-0.177979,0.109253,0.972412,507
32300894,10013,-0.175171,0.103882,0.972290,521
32310888,9994,-0.176514,0.104614,0.969849,525
32320891,10003,-0.176880,0.107178,0.969727,520
32330872,9981,-0.176025,0.110107,0.968994,536
32340889,10017,-0.177124,0.110596,0.970093,539
32350896,10007,-0.176147,0.108276,0.970947,544
32360886,9990,-0.179565,0.107910,0.970947,538
32370893,10007,-0.178833,0.105957,0.968506,540
32380879,9986,-0.177856,0.103760,0.968140,545
32390876,9997,-0.176514,0.103516,0.966675,539
32400878,10002,-0.176880,0.104248,0.965576,535
32410893,10015,-0.177979,0.105957,0.966431,526
32420892,9999,-0.177368,0.104492,0.966553,529
32430895,10003,-0.178223,0.104492,0.966187,517
32440875,9980,-0.177246,0.102905,0.964966,517
32450871,9996,-0.177124,0.103760,0.961670,512
32460889,10018,-0.177979,0.106323,0.960327,508
32470874,9985,-0.177734,0.108643,0.960327,504
32480878,10004,-0.178467,0.107666,0.962036,499
32490874,9996,-0.177490,0.105713,0.962036,499
32500898,10024,-0.178833,0.104370,0.961182,498
32510884,9986,-0.179443,0.103516,0.960327,493
32520893,10009,-0.178467,0.104004,0.959473,498
32530893,10000,-0.178223,0.106323,0.960205,493
32540897,10004,-0.176758,0.107178,0.959595,495
32550880,9983,-0.178589,0.107910,0.961426,502
32560873,9993,-0.177734,0.106812,0.962402,502
32570887,10014,-0.177490,0.106445,0.963135,507
32580884,9997,-0.176758,0.105957,0.966064,509
32590898,10014,-0.176147,0.104492,0.965942,507
32600899,10001,-0.175781,0.104492,0.966187,504
32610888,9989,-0.175781,0.101563,0.965576,507
32620888,10000,-0.175537,0.100586,0.965454,505
32630879,9991,-0.176758,0.106445,0.964355,503
32640885,10006,-0.177124,0.106934,0.965820,500
32650886,10001,-0.179565,0.109131,0.967529,507
32660895,10009,-0.178955,0.110474,0.968628,507
32670898,10003,-0.180176,0.110474,0.968628,508
32680880,9982,-0.181030,0.109741,0.966797,499
32690888,10008,-0.181885,0.108765,0.964355,499
32700897,10009,-0.182129,0.107056,0.961182,497
32710878,9981,-0.180298,0.106934,0.960815,501
32720893,10015,-0.180176,0.106689,0.961182,504
32730881,9988,-0.179565,0.107422,0.962524,502
32740876,9995,-0.181641,0.106323,0.963867,502
32750875,9999,-0.182861,0.105835,0.961548,502
32760907,10032,-0.184082,0.105835,0.959473,501
32770885,9978,-0.183594,0.106201,0.958008,498
32780873,9988,-0.185425,0.107300,0.957642,493
32790879,10006,-0.182129,0.107056,0.961792,499
32800886,10007,-0.181519,0.109375,0.965210,497
32810885,9999,-0.181274,0.110474,0.967163,495
32820875,9990,-0.181274,0.109497,0.967163,496
32830882,10007,-0.180054,0.106689,0.966064,496
32847693,16811,-0.179443,0.103271,0.962646,497
32853074,5381,-0.180420,0.103638,0.960571,493
32860875,7801,-0.181396,0.107056,0.958740,496
32870883,10008,-0.182007,0.108887,0.961792,495
32880892,10009,-0.182129,0.111694,0.964233,504
32890872,9980,-0.181763,0.110352,0.965698,507
32900895,10023,-0.181641,0.108276,0.966431,515
32910873,9978,-0.181274,0.106323,0.962769,524
32920892,10019,-0.181152,0.105591,0.963135,527
32930922,10030,-0.180054,0.106201,0.960815,534
32950291,19369,-0.180420,0.102661,0.961670,538
32955533,5242,-0.178711,0.101074,0.962524,533
32961098,5565,-0.179932,0.103638,0.960571,541
32970875,9777,-0.180420,0.105591,0.960205,540
32980885,10010,-0.182129,0.107056,0.959106,540
32990883,9998,-0.182373,0.106079,0.958862,538
33000883,10000,-0.181396,0.104126,0.960083,531
33010894,10011,-0.179932,0.106079,0.959595,530
33020883,9989,-0.181030,0.106445,0.960815,526
33030870,9987,-0.178467,0.106812,0.963013,522
33040879,10009,-0.179321,0.107300,0.965454,524
33050885,10006,-0.180298,0.108521,0.965454,502
33060878,9993,-0.183350,0.111816,0.965210,508
33070896,10018,-0.183472,0.112183,0.965820,502
33080874,9978,-0.184570,0.111938,0.965820,493
33090891,10017,-0.186035,0.111572,0.966309,495
33100896,10005,-0.186890,0.111206,0.966797,491
33110870,9974,-0.186646,0.110962,0.968628,493
33120881,10011,-0.186890,0.113037,0.972046,494
33130895,10014,-0.185791,0.112427,0.970947,488
33140888,9993,-0.187378,0.109741,0.969604,495
33150894,10006,-0.185181,0.108276,0.970825,495
33160875,9981,-0.184570,0.107056,0.970337,496
33170874,9999,-0.181641,0.109863,0.971313,498
33180886,10012,-0.179932,0.110596,0.970581,497
33190889,10003,-0.179687,0.111572,0.967896,501
33200872,9983,-0.180420,0.112427,0.965820,503
33210898,10026,-0.180176,0.112671,0.963135,499
33222579,11681,-0.179077,0.110718,0.958862,500
33232256,9677,-0.179810,0.110352,0.957397,504
33246789,14533,-0.180054,0.114746,0.956299,503
33261364,14575,-0.183105,0.115723,0.957153,501
33267129,5765,-0.184692,0.115967,0.956787,503
33272547,5418,-0.185059,0.111206,0.956543,503
33280897,8350,-0.185425,0.106567,0.956421,502
33290870,9973,-0.187256,0.104858,0.956177,500
33300897,10027,-0.187866,0.105957,0.953979,494
33310875,9978,-0.188477,0.104980,0.953369,493
33320886,10011,-0.190674,0.105225,0.953735,500
33330897,10011,-0.191895,0.102295,0.954102,498
33340893,9996,-0.192505,0.101807,0.952637,496
33350880,9987,-0.193970,0.104004,0.951416,489
33360893,10013,-0.195557,0.104858,0.951172,492
33370895,10002,-0.193604,0.105713,0.952881,492
33380873,9978,-0.193359,0.105835,0.956421,492
33390893,10020,-0.192627,0.103882,0.957886,492
33400893,10000,-0.191040,0.103882,0.956909,491
33410878,9985,-0.190552,0.104126,0.958130,487
33420889,10011,-0.188599,0.104126,0.959229,488
33430886,9997,-0.186768,0.103516,0.960449,482
33440879,9993,-0.182617,0.102661,0.961182,490
33450922,10043,-0.183716,0.101929,0.960937,485
33460899,9977,-0.186035,0.102539,0.958862,483
33470898,9999,-0.187866,0.103027,0.958252,494
33480882,9984,-0.189087,0.101563,0.958496,490
33490895,10013,-0.191040,0.101807,0.959961,494
33500869,9974,-0.194580,0.098267,0.965942,507
33510896,10027,-0.195679,0.095703,0.967651,507
33520889,9993,-0.196899,0.092651,0.969238,513
33530887,9998,-0.196777,0.092285,0.972534,527
33540897,10010,-0.196289,0.093872,0.973755,531
33555520,14623,-0.196411,0.096313,0.976440,531
33560959,5439,-0.193970,0.095825,0.976074,533
33570882,9923,-0.193970,0.096313,0.975586,531
33580880,9998,-0.194946,0.098877,0.977051,538
33590876,9996,-0.193359,0.102661,0.977661,535
33600892,10016,-0.193237,0.104980,0.979004,533
33610898,10006,-0.185059,0.104614,0.978271,529
33620891,9993,-0.182373,0.105469,0.975830,525
33630922,10031,-0.179443,0.106934,0.973877,514
33642955,12033,-0.175781,0.109131,0.939209,517
33650898,7943,-0.173096,0.108765,0.967407,509
33660877,9979,-0.171875,0.106445,0.963257,511
33670893,10016,-0.172852,0.106323,0.961182,499
33680893,10000,-0.173706,0.107178,0.959961,501
33690878,9985,-0.174805,0.109497,0.958374,499
33700872,9994,-0.175781,0.108887,0.958008,499
33710873,10001,-0.175171,0.105713,0.955811,496
33720889,10016,-0.178833,0.102417,0.954590,497
33730880,9991,-0.177734,0.099854,0.953003,496
33740875,9995,-0.178955,0.098145,0.951172,496
33750888,10013,-0.180054,0.098389,0.951660,495
33760892,10004,-0.179687,0.096558,0.952759,494
33770875,9983,-0.181152,0.092773,0.956299,499
33780869,9994,-0.181763,0.091187,0.956787,502
33790896,10027,-0.182007,0.090942,0.958496,503
33800914,10018,-0.183472,0.091431,0.959351,503
33810873,9959,-0.183594,0.093018,0.963013,504
33820876,10003,-0.181396,0.097534,0.965454,505
33830884,10008,-0.180542,0.096436,0.963501,504
33840885,10001,-0.180298,0.096680,0.964111,504
33855510,14625,-0.180176,0.098877,0.964844,494
33860879,5369,0.000000,0.000000,0.000000,500
33870886,10007,-0.179810,0.099243,0.965332,501
33880870,9984,-0.182251,0.103271,0.964966,499
33890871,10001,-0.183716,0.105835,0.963257,495
33900872,10001,-0.182739,0.106567,0.962158,500
33910898,10026,-0.183716,0.105591,0.961548,498
33920883,9985,-0.185059,0.105225,0.962280,497
33930873,9990,-0.185425,0.103149,0.963745,498
33940888,10015,-0.188232,0.101807,0.963257,499
33950880,9992,-0.189331,0.100830,0.963745,496
33960894,10014,-0.190186,0.097656,0.965088,496
33970898,10004,-0.191650,0.096313,0.964355,489
33980915,10017,-0.193481,0.093506,0.962280,494
33990889,9974,-0.196533,0.089478,0.965210,493
34000885,9996,-0.197021,0.086182,0.967529,490
34010870,9985,-0.195923,0.084717,0.970581,489
34020888,10018,-0.195557,0.082153,0.973145,484
34030879,9991,-0.193115,0.081909,0.975830,487
34040886,10007,-0.187866,0.082886,0.977783,487
34050875,9989,-0.184204,0.083740,0.976685,483
34060888,10013,-0.183350,0.082642,0.974976,484
34070877,9989,-0.182373,0.082275,0.973511,484
34080882,10005,-0.180054,0.083984,0.971924,483
34090888,10006,-0.180054,0.091919,0.968872,483
34100894,10006,-0.180420,0.097168,0.969604,496
34110888,9994,-0.179932,0.099243,0.969116,497
34120888,10000,-0.179565,0.102783,0.967896,508
34130898,10010,-0.180664,0.102417,0.963135,508
34140873,9975,-0.180176,0.099609,0.960693,521
34150877,10004,-0.179321,0.101318,0.960205,527
34160904,10027,-0.179810,0.099243,0.957031,535
34170877,9973,-0.179443,0.094971,0.958252,540
34180897,10020,-0.180786,0.094727,0.958130,534
34190892,9995,-0.181763,0.096191,0.960083,540
34200895,10003,-0.184448,0.098877,0.962646,536
34210889,9994,-0.184814,0.098755,0.962158,540
34220875,9986,-0.187622,0.095703,0.961426,536
34230878,10003,-0.186890,0.092896,0.962280,534
34240880,10002,-0.188354,0.090820,0.960083,523
34250883,10003,-0.190063,0.089111,0.959351,524
34260895,10012,-0.189575,0.087646,0.961304,519
34270875,9980,-0.188721,0.087280,0.964355,514
34289089,18214,-0.191528,0.085937,0.961914,504
34294536,5447,-0.192993,0.085205,0.962524,497
34300875,6339,0.000000,0.000000,0.000000,499
34310876,10001,-0.191895,0.081299,0.964355,497
34320894,10018,-0.191162,0.079712,0.965332,490
34330913,10019,-0.189087,0.079102,0.967163,487
34340887,9974,-0.186768,0.079468,0.967407,492
34350876,9989,-0.185059,0.079468,0.966431,486
34360873,9997,-0.184326,0.083008,0.965210,492
34370895,10022,-0.183350,0.086548,0.967285,496
34380893,9998,-0.182739,0.087036,0.969971,497
34390880,9987,-0.183594,0.086548,0.970703,493
34400878,9998,-0.184448,0.087524,0.971802,500
34410892,10014,-0.185181,0.087891,0.970093,501
34420877,9985,-0.186157,0.092773,0.969727,497
34430899,10022,-0.185913,0.095825,0.970703,505
34440871,9972,-0.187500,0.097656,0.971802,505
34450881,10010,-0.186035,0.095459,0.969604,506
34460896,10015,-0.184326,0.093994,0.968994,505
34473712,12816,-0.184082,0.092163,0.968140,505
34480898,7186,-0.184692,0.093384,0.967529,503
34490877,9979,-0.186768,0.092041,0.966309,496
34500869,9992,-0.186279,0.092041,0.967163,495
34510926,10057,-0.188354,0.091919,0.968506,503
34520880,9954,-0.187988,0.090088,0.967651,497
34530875,9995,-0.190308,0.085937,0.967041,498
34540870,9995,-0.190430,0.087402,0.965820,489
34550882,10012,-0.189697,0.086792,0.965088,491
34560871,9989,-0.188843,0.085327,0.966553,497
34570893,10022,-0.188110,0.083496,0.965820,489
34580892,9999,-0.187744,0.083618,0.964478,486
34590896,10004,-0.187256,0.083740,0.964722,494
34600895,9999,-0.188477,0.084351,0.963623,486
34610894,9999,-0.188721,0.085327,0.964233,487
34620879,9985,-0.187378,0.084839,0.965088,491
34630887,10008,-0.187012,0.083618,0.965942,489
34640870,9983,-0.184937,0.082031,0.966919,492
34650870,10000,-0.183838,0.082397,0.967041,492
34660890,10020,-0.183716,0.082153,0.966797,494
34670894,10004,-0.181519,0.082031,0.966309,494
34680893,9999,-0.180908,0.081909,0.965942,493
34690896,10003,-0.178955,0.082031,0.965820,491
34700913,10017,-0.178467,0.082764,0.966187,494
34710878,9965,-0.177490,0.084717,0.964844,496
34720891,10013,-0.179932,0.085327,0.963501,492
34730893,10002,-0.180176,0.086670,0.964111,498
34740890,9997,-0.181030,0.087402,0.964233,505
34750893,10003,-0.183838,0.086182,0.965210,510
34760879,9986,-0.183716,0.088257,0.964966,516
34770871,9992,-0.185547,0.087158,0.962891,519
34780875,10004,-0.185303,0.086060,0.964233,524
34790887,10012,-0.184204,0.085449,0.964111,531
34800874,9987,-0.186646,0.085083,0.966064,535
34810898,10024,-0.185791,0.083740,0.966919,537
34820893,9995,-0.186890,0.083252,0.968384,535
34830887,9994,-0.187256,0.082642,0.969604,543
34840877,9990,-0.185181,0.082886,0.967896,539
34850874,9997,-0.185791,0.081055,0.969727,535
34860910,10036,-0.185181,0.080322,0.971069,535
34870887,9977,-0.185181,0.081421,0.973511,528
34880874,9987,-0.185425,0.081787,0.974365,527
34890870,9996,-0.183838,0.080444,0.976074,520
34900886,10016,-0.183105,0.080200,0.973389,515
34910875,9989,-0.183838,0.080566,0.966064,511
34920877,10002,-0.184570,0.083862,0.963867,507
34930892,10015,-0.185913,0.086426,0.963013,503
34940889,9997,-0.186401,0.087036,0.965332,496
34950898,10009,-0.186646,0.087280,0.968384,492
34960889,9991,-0.186035,0.086060,0.970825,491
34970870,9981,-0.185791,0.085327,0.968872,492
34980874,10004,-0.187378,0.086426,0.968872,500
34990899,10025,-0.184937,0.079956,0.967896,500
35000884,9985,-0.186890,0.077759,0.973755,500
35010869,9985,-0.185669,0.089233,0.977905,496
35020893,10024,-0.179810,0.089722,0.983276,501
35030941,10048,-0.182251,0.090332,0.982178,503
35040883,9942,-0.180786,0.095093,0.975342,506
35050877,9994,-0.179443,0.095093,0.969604,508
35060883,10006,-0.177856,0.090698,0.962524,509
35070890,10007,-0.179687,0.084473,0.958618,501
35080875,9985,-0.180176,0.085327,0.956543,508
35090879,10004,-0.180054,0.086914,0.956787,511
35100876,9997,-0.180786,0.088379,0.953857,511
35110875,9999,-0.178467,0.087891,0.952271,507
35120884,10009,-0.180176,0.085327,0.944580,509
35130878,9994,-0.182251,0.083740,0.943970,508
35140889,10011,-0.183960,0.082275,0.944458,504
35150895,10006,-0.184570,0.080200,0.944214,506
35160897,10002,-0.185303,0.076904,0.944458,505
35170874,9977,-0.187012,0.075684,0.944702,506
35180879,10005,-0.189697,0.076172,0.946655,505
35190885,10006,-0.191406,0.074219,0.947632,498
35200892,10007,-0.192993,0.071777,0.950684,499
35210905,10013,-0.191772,0.070801,0.953857,499
35220880,9975,-0.189697,0.070435,0.956909,496
35230895,10015,-0.189087,0.070190,0.959717,496
35240886,9991,-0.188965,0.071899,0.962524,492
35250892,10006,-0.188721,0.074219,0.964600,491
35260875,9983,-0.188721,0.075562,0.968384,487
35270894,10019,-0.188477,0.078369,0.969604,494
35280887,9993,-0.188477,0.081177,0.973511,491
35290885,9998,-0.186279,0.082642,0.975708,492
35300877,9992,-0.185181,0.082886,0.975830,492
35310894,10017,-0.184326,0.086426,0.975830,494
35320886,9992,-0.183960,0.088989,0.977173,496
35330898,10012,-0.183594,0.089844,0.978149,497
35340885,9987,-0.184326,0.090698,0.978516,499
35350899,10014,-0.186646,0.092773,0.978882,506
35360896,9997,-0.189209,0.095093,0.979126,503
35370881,9985,-0.189331,0.096313,0.977417,515
35380893,10012,-0.192017,0.096802,0.979004,521
35390890,9997,-0.191528,0.094482,0.978638,527
35400897,10007,-0.190796,0.088379,0.979248,533
35410871,9974,-0.189453,0.084595,0.978271,532
35420893,10022,-0.188110,0.081909,0.976318,541
35430892,9999,-0.186401,0.078979,0.975098,544
35440877,9985,-0.185059,0.077515,0.972046,544
35450881,10004,-0.185791,0.074951,0.967896,544
35460878,9997,-0.184937,0.073608,0.968384,542
35470881,10003,-0.184326,0.073120,0.969360,538
35480896,10015,-0.183594,0.073853,0.970093,535
35495073,14177,-0.182251,0.075073,0.964111,526
35500881,5808,0.000000,0.000000,0.000000,525
35510886,10005,-0.179199,0.070801,0.958618,521
35520892,10006,-0.179687,0.068726,0.956543,518
35530883,9991,-0.180054,0.070435,0.954102,510
35540885,10002,-0.179810,0.072266,0.952637,503
35550884,9999,-0.180176,0.074097,0.953735,504
35560877,9993,-0.180908,0.076782,0.956299,501
35570877,10000,-0.182495,0.077759,0.958252,498
35582257,11380,-0.181885,0.076660,0.959229,492
35590881,8624,-0.184570,0.079102,0.959961,501
35600883,10002,-0.183838,0.079712,0.961182,502
35610885,10002,-0.183960,0.080322,0.963745,504
35620875,9990,-0.183960,0.079102,0.965332,504
35630879,10004,-0.183105,0.078491,0.968018,504
35640885,10006,-0.184204,0.077881,0.968872,507
35650897,10012,-0.185425,0.077759,0.969604,509
35660882,9985,-0.184326,0.077881,0.973022,506
35670875,9993,-0.186768,0.077515,0.970581,506
35680871,9996,-0.186523,0.077393,0.971069,511
35690879,10008,-0.186523,0.077271,0.969849,506
35700898,10019,-0.185425,0.076294,0.968994,510
35710888,9990,-0.183960,0.076172,0.968628,503
35720873,9985,-0.183960,0.078003,0.966187,508
35730876,10003,-0.181885,0.078003,0.965576,506
35740893,10017,-0.182983,0.077148,0.966919,507
35750904,10011,-0.181885,0.078979,0.966309,505
35760887,9983,-0.182495,0.079102,0.965088,501
35770872,9985,-0.181274,0.079834,0.963745,504
35800556,29684,-0.180664,0.081055,0.962036,501
35805937,5381,-0.181152,0.078857,0.960571,496
35811287,5350,0.000000,0.000000,0.000000,500
35815439,4152,-0.180054,0.078247,0.961914,501
35820887,5448,0.000000,0.000000,0.000000,499
35830890,10003,-0.180542,0.078247,0.962524,492
35840884,9994,-0.181152,0.077148,0.965088,498
35850886,10002,-0.178833,0.078125,0.967651,496
35860870,9984,-0.182495,0.077637,0.966675,495
35870890,10020,-0.183228,0.076172,0.967285,495
35880899,10009,-0.182983,0.076782,0.967896,493
35890877,9978,-0.183960,0.078125,0.971680,497
35900884,10007,-0.183350,0.077393,0.972046,490
35910877,9993,-0.183594,0.075562,0.973511,499
35920887,10010,-0.184937,0.075684,0.971558,500
35930897,10010,-0.185059,0.077393,0.970093,502
35940878,9981,-0.186523,0.079468,0.969604,502
35950875,9997,-0.187866,0.080933,0.971191,506
35960878,10003,-0.188354,0.083496,0.970337,510
35970889,10011,-0.188599,0.083496,0.969727,515
35980895,10006,-0.187744,0.083374,0.969116,518
35990885,9990,-0.187744,0.081787,0.969849,521
36000893,10008,-0.183105,0.084595,0.972168,527
36010894,10001,-0.182251,0.085205,0.971313,539
36020877,9983,-0.182617,0.083740,0.971680,542
36030878,10001,-0.183472,0.082886,0.969360,538
36040893,10015,-0.183594,0.082275,0.969971,542
36050870,9977,-0.183594,0.082031,0.971313,548
36060884,10014,-0.183960,0.081665,0.970947,546
36070878,9994,-0.182495,0.081421,0.972290,541
36080893,10015,-0.180908,0.081177,0.969238,535
36090874,9981,-0.183716,0.081421,0.967773,533
36100894,10020,-0.187500,0.082031,0.970093,529
36110888,9994,-0.189575,0.081787,0.969849,523
36120909,10021,-0.192017,0.080322,0.969604,518
36130881,9972,-0.190186,0.080322,0.969116,512
36140874,9993,-0.190796,0.082031,0.967041,509
36150893,10019,-0.189697,0.081909,0.966919,504
36160894,10001,-0.188965,0.080200,0.967163,504
36170884,9990,-0.189575,0.082031,0.966431,498
36180894,10010,-0.190186,0.082764,0.963135,499
36190883,9989,-0.189697,0.079956,0.961548,495
36200873,9990,-0.188110,0.076904,0.960449,496
36210877,10004,-0.187500,0.074585,0.955566,495
36220894,10017,-0.187988,0.073242,0.953369,504
36230879,9985,-0.187134,0.073975,0.950317,504
36240874,9995,-0.186035,0.075073,0.951538,500
36250873,9999,-0.184570,0.076904,0.953125,505
36260882,10009,-0.186401,0.078125,0.954590,507
36270880,9998,-0.185181,0.075317,0.956421,507
36280883,10003,-0.186279,0.073975,0.956299,510
36290894,10011,-0.186157,0.070923,0.957275,506
36300869,9975,-0.185791,0.068970,0.956177,507
36310928,10059,-0.186401,0.070435,0.956055,508
36320907,9979,-0.186523,0.073242,0.958984,509
36330879,9972,-0.185669,0.073364,0.961670,507
36340879,10000,-0.185547,0.077026,0.964844,501
36350882,10003,-0.186890,0.076538,0.966309,500
36360877,9995,-0.185303,0.075928,0.967651,502
36370877,10000,-0.185181,0.075317,0.966797,495
36380885,10008,-0.186523,0.078735,0.968262,499
36390873,9988,-0.187256,0.079468,0.966431,498
36400895,10022,-0.188232,0.082031,0.965454,498
36410895,10000,-0.190308,0.084961,0.967041,491
36420893,9998,-0.192017,0.088257,0.969482,498
36430874,9981,-0.191650,0.088135,0.970825,496
36440889,10015,-0.190918,0.087280,0.970947,496
36450871,9982,-0.191772,0.086060,0.969482,491
36460879,10008,-0.190674,0.084595,0.969604,491
36470893,10014,-0.190308,0.083862,0.969360,497
36480877,9984,-0.189941,0.085693,0.974243,497
36490869,9992,-0.187012,0.085693,0.976318,499
36500912,10043,-0.185181,0.085815,0.979980,499
36510895,9983,-0.186157,0.084229,0.978394,495
36520889,9994,-0.185059,0.083130,0.976318,502
36530873,9984,-0.183838,0.081055,0.973267,492
36540882,10009,-0.183716,0.079102,0.969849,503
36550887,10005,-0.184448,0.079346,0.968994,500
36560883,9996,-0.184326,0.078979,0.969727,501
36570877,9994,-0.184082,0.079102,0.971680,501
36580896,10019,-0.185425,0.077148,0.971924,515
36590896,10000,-0.187500,0.077881,0.969604,519
36614928,24032,-0.187744,0.075195,0.965088,536
36620275,5347,-0.189819,0.073242,0.963257,533
36625613,5338,-0.191772,0.071289,0.963623,540
36631041,5428,0.000000,0.000000,0.000000,535
36640895,9854,-0.191284,0.069946,0.963013,539
36650879,9984,-0.191772,0.065918,0.964722,545
36660876,9997,-0.191895,0.064575,0.965454,546
36670886,10010,-0.192383,0.063477,0.965088,543
36680917,10031,-0.193359,0.060669,0.967651,540
36690881,9964,-0.192139,0.057861,0.968872,540
36700883,10002,-0.191162,0.058594,0.968018,536
36710881,9998,-0.190918,0.059814,0.965698,528
36720880,9999,-0.189575,0.060669,0.963501,526
36730881,10001,-0.190796,0.063232,0.962402,516
36740898,10017,-0.191284,0.064209,0.961182,507
36750869,9971,-0.191162,0.067871,0.959106,509
36760873,10004,-0.191650,0.072632,0.960205,502
36770872,9999,-0.192871,0.074463,0.960327,499
36780888,10016,-0.191406,0.074219,0.958496,498
36790875,9987,-0.190308,0.072998,0.957886,496
36800869,9994,-0.191040,0.072144,0.956787,501
36810873,10004,-0.188843,0.071045,0.960205,501
36820878,10005,-0.187866,0.072021,0.962524,497
36830893,10015,-0.187378,0.072144,0.964966,505
36840887,9994,-0.187012,0.071289,0.969482,499
36850886,9999,-0.185059,0.071167,0.969727,503
36860916,10030,-0.186279,0.070801,0.970825,507
36870895,9979,-0.184814,0.068237,0.969849,506
36880870,9975,-0.184326,0.067261,0.971558,509
36892421,11551,-0.184326,0.067627,0.974243,509
36900876,8455,-0.186035,0.068970,0.974121,510
36910877,10001,-0.183472,0.070923,0.973511,511
36922984,12107,-0.184937,0.075562,0.972046,502
36930875,7891,-0.186401,0.075439,0.970459,509
36940874,9999,-0.184937,0.073608,0.970947,508
36950878,10004,-0.186646,0.071899,0.973267,507
36960876,9998,-0.186646,0.073486,0.970337,508
36970870,9994,-0.218018,0.075073,0.969971,507
36980877,10007,-0.189453,0.074585,0.970825,502
36990880,10003,-0.189575,0.073730,0.971313,499
37000870,9990,-0.190186,0.069458,0.972534,501
37016830,15960,-0.191650,0.067871,0.973022,504
37021875,5045,0.000000,0.000000,0.000000,497
37030879,9004,-0.190308,0.064575,0.969604,497
37040930,10051,-0.190674,0.063843,0.967529,494
37050898,9968,-0.190674,0.064453,0.968262,504
37060881,9983,-0.191040,0.064819,0.967041,501
37070880,9999,-0.190918,0.063232,0.967896,500
37080877,9997,-0.188965,0.064087,0.965698,500
37090879,10002,-0.187744,0.062256,0.964233,497
37100882,10003,-0.187500,0.063232,0.963135,501
37110887,10005,-0.186768,0.063599,0.964355,501
37120883,9996,-0.186646,0.063843,0.965698,500
37130894,10011,-0.185669,0.061768,0.965332,499
37140895,10001,-0.184814,0.060913,0.965088,492
37150890,9995,-0.186035,0.060425,0.962524,495
37160879,9989,-0.188110,0.059082,0.960571,497
37170874,9995,-0.189697,0.059082,0.957642,503
37180879,10005,-0.191162,0.061157,0.958374,502
37190886,10007,-0.192627,0.062622,0.961548,513
37207727,16841,-0.198242,0.059448,0.962280,522
37212906,5179,0.000000,0.000000,0.000000,521
37220890,7984,-0.197021,0.060913,0.964722,528
37233593,12703,-0.198975,0.058960,0.967285,537
37240901,7308,0.000000,0.000000,0.000000,537
37250876,9975,-0.197144,0.057617,0.968872,544
37260887,10011,-0.195679,0.059570,0.970337,544
37270875,9988,-0.192505,0.062378,0.973267,545
37280879,10004,-0.191772,0.061279,0.974976,547
37290880,10001,-0.189575,0.061279,0.975220,545
37300889,10009,-0.184570,0.055420,0.974121,542
37310898,10009,-0.180664,0.054810,0.975464,534
37320897,9999,-0.178833,0.057983,0.973999,532
37330887,9990,-0.178955,0.060669,0.972534,521
37340896,10009,-0.177246,0.062378,0.971558,522
37350895,9999,-0.176270,0.064941,0.969604,519
37360896,10001,-0.179321,0.073364,0.967651,514
37370890,9994,-0.178589,0.076904,0.965454,512
37380888,9998,-0.179565,0.077515,0.964722,505
37390891,10003,-0.179565,0.076294,0.961914,506
37400874,9983,-0.178223,0.073853,0.961792,506
37413908,13034,-0.181641,0.070679,0.963257,503
37428907,14999,-0.184326,0.070190,0.968506,500
37433946,5039,0.000000,0.000000,0.000000,504
