t_us,dt_us,ax,ay,az,ppg
13232799,10017,0.893921,-0.058350,0.370483,530
13242784,9985,0.929321,-0.034424,0.371948,529
13252800,10016,0.946411,-0.026001,0.379150,522
13262808,10008,0.966919,-0.022949,0.385864,523
13272783,9975,0.978271,-0.024048,0.390625,519
13282792,10009,0.979614,-0.032104,0.396973,516
13307008,24216,0.982300,-0.089111,0.395142,507
13313060,6052,0.986450,-0.116699,0.388672,504
13318803,5743,0.000000,0.000000,0.000000,500
13323582,4779,0.991333,-0.139160,0.385864,499
13332783,9201,0.989990,-0.153564,0.382080,497
13342785,10002,0.979980,-0.159424,0.379150,493
13352830,10045,0.942993,-0.154297,0.376587,495
13362793,9963,0.923950,-0.146484,0.377930,493
13372793,10000,0.906006,-0.139160,0.380615,498
13382799,10006,0.890625,-0.139404,0.382202,498
13392811,10012,0.881714,-0.142334,0.380005,498
13402805,9994,0.879272,-0.179565,0.368408,506
13412800,9995,0.871826,-0.159912,0.358643,511
13422801,10001,0.871826,-0.160767,0.350830,509
13432787,9986,0.874756,-0.158081,0.343018,503
13442799,10012,0.877441,-0.156128,0.338745,505
13452784,9985,0.884033,-0.156738,0.334229,505
13462785,10001,0.890015,-0.162964,0.331909,494
13472801,10016,0.889526,-0.164551,0.333008,493
13482797,9996,0.884033,-0.164429,0.338135,481
13505561,22764,0.882935,-0.176147,0.344360,474
13510726,5165,0.000000,0.000000,0.000000,473
13514666,3940,0.884033,-0.181030,0.341797,472
13522796,8130,0.880737,-0.180542,0.336914,464
13532829,10033,0.875610,-0.175903,0.334351,467
13542797,9968,0.872925,-0.167358,0.333374,461
13552799,10002,0.871704,-0.155518,0.334595,470
13562792,9993,0.869995,-0.145752,0.338501,472
13572790,9998,0.861450,-0.132202,0.347900,472
13582787,9997,0.858032,-0.131592,0.351318,478
13610373,27586,0.859985,-0.139526,0.347412,473
13617345,6972,0.861694,-0.142700,0.345947,478
13624050,6705,0.862793,-0.144653,0.344727,478
13631479,7429,0.000000,0.000000,0.000000,484
13637824,6345,0.863159,-0.150146,0.343140,482
13644589,6765,0.861084,-0.152588,0.342041,481
13652787,8198,0.856812,-0.155396,0.337646,486
13662808,10021,0.847900,-0.154785,0.334229,487
13672796,9988,0.840820,-0.150757,0.329834,483
13682792,9996,0.839966,-0.136719,0.319824,493
13692806,10014,0.855225,-0.130981,0.313110,495
13710555,17749,0.907837,-0.133057,0.307861,503
13716029,5474,0.000000,0.000000,0.000000,504
13722800,6771,0.933960,-0.130371,0.306763,509
13732804,10004,0.990356,-0.128296,0.309814,516
13742796,9992,1.026001,-0.132324,0.312378,534
13752782,9986,1.064331,-0.135498,0.318604,535
13762811,10029,1.095825,-0.140869,0.323975,539
13772810,9999,1.108887,-0.141846,0.328491,551
13782796,9986,1.097290,-0.140259,0.333374,551
13792809,10013,1.010498,-0.134766,0.330200,558
13802801,9992,0.962402,-0.141479,0.318848,560
13812799,9998,0.914673,-0.150757,0.302856,555
13822806,10007,0.881104,-0.161133,0.286499,560
13832801,9995,0.860474,-0.169922,0.274170,560
13842790,9989,0.867065,-0.182251,0.261475,562
13852803,10013,0.879639,-0.186646,0.261719,553
13862809,10006,0.893799,-0.194336,0.266846,550
13872792,9983,0.908447,-0.205444,0.271729,540
13882823,10031,0.926270,-0.218506,0.277344,540
13892792,9969,0.945679,-0.240112,0.288452,534
13902797,10005,0.995605,-0.245605,0.292236,524
13912793,9996,1.016113,-0.249756,0.295898,521
13945052,32259,1.011719,-0.242187,0.297241,507
13952563,7511,0.000000,0.000000,0.000000,508
13957233,4670,1.000610,-0.233398,0.297852,508
13962671,5438,0.990967,-0.218506,0.297119,504
13968461,5790,0.000000,0.000000,0.000000,510
13972792,4331,0.979614,-0.203857,0.297974,514
13982797,10005,0.972412,-0.191284,0.298950,514
13992803,10006,0.968628,-0.184204,0.302612,520
14002792,9989,0.964722,-0.191650,0.311768,526
14012811,10019,0.955078,-0.201172,0.312012,527
14022789,9978,0.942261,-0.209595,0.309082,528
14032786,9997,0.930176,-0.215820,0.304932,539
14042801,10015,0.917847,-0.219727,0.299683,539
14052802,10001,0.908447,-0.220825,0.295410,541
14062783,9981,0.890015,-0.223877,0.286255,537
14072825,10042,0.882324,-0.228394,0.284668,534
14082811,9986,0.879150,-0.235352,0.278687,532
14092805,9994,0.876587,-0.241333,0.277344,530
14102792,9987,0.878540,-0.247314,0.276489,526
14112783,9991,0.893311,-0.251099,0.269775,516
14122796,10013,0.905029,-0.249878,0.268433,514
14132792,9996,0.919434,-0.249390,0.268921,508
14142785,9993,0.933228,-0.250366,0.268921,501
14152796,10011,0.944214,-0.250732,0.269531,495
14162809,10013,0.951538,-0.254028,0.268555,495
14172789,9980,0.962158,-0.253296,0.266968,494
14182791,10002,0.963989,-0.251465,0.265259,495
14192789,9998,0.964600,-0.252197,0.263306,492
14202790,10001,0.963379,-0.253174,0.264526,496
14212810,10020,0.960327,-0.254883,0.266968,488
14222798,9988,0.950806,-0.249146,0.278931,495
14232792,9994,0.947266,-0.246704,0.286255,501
14242787,9995,0.943604,-0.244751,0.293823,500
14252795,10008,0.934814,-0.243042,0.300537,506
14262811,10016,0.924561,-0.245972,0.302612,506
14276330,13519,0.903442,-0.251953,0.302002,502
14282806,6476,0.895142,-0.253296,0.301025,507
14309929,27123,0.888428,-0.253174,0.311279,502
14315146,5217,0.000000,0.000000,0.000000,498
14319275,4129,0.885986,-0.249878,0.322388,502
14324499,5224,0.882202,-0.248413,0.336060,500
14332790,8291,0.875000,-0.247070,0.350830,499
14342793,10003,0.880371,-0.250610,0.361938,505
14352811,10018,0.904419,-0.257690,0.363159,504
14362807,9996,0.948486,-0.267578,0.359741,511
14372788,9981,1.001465,-0.280762,0.352173,519
14382798,10010,1.081543,-0.281860,0.347534,521
14392794,9996,1.078369,-0.264771,0.354980,523
14409887,17093,0.986206,-0.204834,0.394043,515
14415082,5195,0.000000,0.000000,0.000000,518
14422808,7726,0.934570,-0.185059,0.408813,520
14432786,9978,0.880249,-0.173096,0.422974,515
14442827,10041,0.792603,-0.162842,0.424438,517
14452806,9979,0.785034,-0.154785,0.412476,511
14462782,9976,0.816162,-0.145996,0.404175,514
14472797,10015,0.869019,-0.130981,0.396851,509
14482787,9990,0.932251,-0.116455,0.397339,503
14492793,10006,1.044556,-0.118042,0.414062,496
14502788,9995,1.083374,-0.129150,0.421631,488
14512795,10007,1.102539,-0.140015,0.429565,490
14522799,10004,1.099731,-0.150391,0.437378,484
14532789,9990,1.074341,-0.162476,0.439819,474
14542809,10020,1.046387,-0.169678,0.436279,469
14552809,10000,0.993164,-0.170166,0.434326,470
14562803,9994,0.973267,-0.167603,0.429077,469
14572805,10002,0.955688,-0.163574,0.421509,466
14582783,9978,0.942871,-0.168823,0.409912,474
14592801,10018,0.934570,-0.171143,0.399902,482
14602800,9999,0.913452,-0.151978,0.399048,483
14612811,10011,0.896484,-0.138672,0.412598,492
14622827,10016,0.885010,-0.128418,0.423584,497
14632788,9961,0.880127,-0.126953,0.419067,502
14642807,10019,0.877319,-0.133789,0.407471,508
14652800,9993,0.873047,-0.145264,0.381226,504
14662795,9995,0.866089,-0.158813,0.371826,511
14672795,10000,0.864380,-0.158447,0.364624,502
14682795,10000,0.862793,-0.153198,0.360107,507
14692788,9993,0.865601,-0.146729,0.355469,499
14702808,10020,0.860107,-0.138184,0.352295,497
14712785,9977,0.851685,-0.128540,0.348389,491
14722790,10005,0.853516,-0.126343,0.347900,490
14732793,10003,0.856812,-0.125854,0.346069,487
14742798,10005,0.859985,-0.125732,0.343506,482
14752790,9992,0.863770,-0.127075,0.339722,477
14762786,9996,0.863281,-0.129517,0.329956,472
14772785,9999,0.859131,-0.130371,0.330811,471
14782791,10006,0.855225,-0.131348,0.329102,473
14792791,10000,0.849121,-0.132690,0.329102,471
14802828,10037,0.840942,-0.133545,0.329712,470
14812802,9974,0.832397,-0.135986,0.330688,471
14822788,9986,0.818359,-0.143799,0.338379,465
14832795,10007,0.816528,-0.146851,0.340210,472
14842800,10005,0.816162,-0.150269,0.341919,471
14852805,10005,0.814819,-0.155151,0.342651,473
14862798,9993,0.810303,-0.158691,0.345093,472
14872783,9985,0.810181,-0.162842,0.347656,465
14882798,10015,0.810547,-0.163574,0.349487,475
14892794,9996,0.813721,-0.162720,0.351807,472
14902794,10000,0.816772,-0.163086,0.354370,478
14912793,9999,0.817749,-0.164917,0.359741,480
14922799,10006,0.819092,-0.166260,0.367188,476
14932811,10012,0.827148,-0.180176,0.376587,480
14942787,9976,0.835205,-0.193237,0.376221,496
14952790,10003,0.852661,-0.218872,0.374878,497
14962806,10016,0.876831,-0.234863,0.371704,506
14972807,10001,0.901855,-0.242676,0.368286,514
14982814,10007,0.942383,-0.236694,0.374756,522
14992789,9975,0.956787,-0.227905,0.381958,529
15002791,10002,0.965088,-0.215576,0.389282,538
15012787,9996,0.971924,-0.209717,0.394775,534
15022808,10021,0.981201,-0.214355,0.394409,546
15032782,9974,0.990723,-0.224609,0.392456,550
15042802,10020,0.995117,-0.245117,0.394043,549
15052800,9998,0.982178,-0.251587,0.395142,551
15062782,9982,0.961304,-0.256104,0.395508,547
15072783,10001,0.936279,-0.256348,0.393921,539
15082806,10023,0.911987,-0.255127,0.390381,541
15092796,9990,0.886475,-0.253662,0.387329,535
15102788,9992,0.893799,-0.254883,0.382080,532
15112792,10004,0.916626,-0.255981,0.378784,526
15122789,9997,0.954224,-0.256836,0.374634,519
15132782,9993,0.993530,-0.258057,0.368286,516
15142805,10023,1.053711,-0.273193,0.352051,516
15152793,9988,1.049805,-0.284424,0.343628,514
15162801,10008,1.051025,-0.294678,0.335449,504
15172797,9996,1.046143,-0.300537,0.329590,504
15182787,9990,1.037354,-0.305420,0.327026,501
15192798,10011,1.024780,-0.305908,0.322388,494
15202795,9997,0.990479,-0.295410,0.313354,498
15212803,10008,0.972168,-0.283569,0.311279,498
15222809,10006,0.958252,-0.267456,0.308350,503
15232798,9989,0.949341,-0.248291,0.307129,507
15242798,10000,0.941650,-0.229492,0.309814,513
15252789,9991,0.933960,-0.209106,0.316284,520
15262797,10008,0.931519,-0.209839,0.317261,519
15272789,9992,0.928223,-0.210449,0.315430,532
15282799,10010,0.918823,-0.209351,0.313110,532
15292806,10007,0.905762,-0.205444,0.308838,545
15302807,10001,0.891724,-0.205566,0.307129,538
15312804,9997,0.863281,-0.213989,0.306152,545
15322791,9987,0.850220,-0.222290,0.305664,538
15332787,9996,0.841675,-0.229980,0.305908,534
15342831,10044,0.840698,-0.238770,0.305908,535
15352812,9981,0.845703,-0.249390,0.306030,530
15362809,9997,0.877686,-0.272461,0.312744,523
15372808,9999,0.895020,-0.282471,0.314209,521
15382792,9984,0.916260,-0.292358,0.320313,512
15392795,10003,0.933960,-0.301514,0.320557,503
15402797,10002,0.952759,-0.307129,0.320923,506
15412792,9995,0.966797,-0.311523,0.319214,499
15422804,10012,0.977295,-0.311890,0.319824,495
15432787,9983,0.980225,-0.308716,0.320679,497
15442788,10001,0.979858,-0.303345,0.320190,491
15452804,10016,0.975220,-0.293945,0.320190,501
15462788,9984,0.967041,-0.279175,0.320435,503
15472794,10006,0.941162,-0.253174,0.318970,496
15482800,10006,0.931396,-0.247314,0.322632,502
15499009,16209,0.914795,-0.246460,0.324097,507
15504701,5692,0.000000,0.000000,0.000000,505
15512809,8108,0.907349,-0.247314,0.324585,506
15522787,9978,0.901123,-0.250732,0.327271,508
15532784,9997,0.887573,-0.250244,0.326538,507
15542785,10001,0.883057,-0.246460,0.326660,510
15552810,10025,0.879395,-0.241821,0.328613,511
15562800,9990,0.875732,-0.235840,0.328735,507
15572807,10007,0.878662,-0.229004,0.328735,514
15582783,9976,0.884888,-0.218506,0.331421,517
15592785,10002,0.892700,-0.212280,0.332520,521
15605081,12296,0.904785,-0.207397,0.332642,524
15612798,7717,0.923218,-0.205200,0.331055,528
15622793,9995,0.952759,-0.208008,0.328613,529
15632784,9991,1.017090,-0.209229,0.343262,527
15642802,10018,1.039185,-0.204590,0.361816,527
15652783,9981,1.040039,-0.196411,0.379883,525
15662794,10011,1.025879,-0.191772,0.391846,523
15672804,10010,1.008179,-0.188721,0.396240,514
15682803,9999,0.999756,-0.184570,0.394653,510
15692807,10004,0.963501,-0.161865,0.401001,497
15702785,9978,0.932617,-0.139038,0.406494,493
15712786,10001,0.901001,-0.116089,0.411133,498
15722810,10024,0.886597,-0.097656,0.412720,496
15732801,9991,0.890137,-0.086792,0.419067,494
15742806,10005,0.929687,-0.077759,0.430664,495
15752784,9978,0.956177,-0.079468,0.429199,495
15762803,10019,0.984863,-0.084351,0.428345,492
15772804,10001,1.005737,-0.087158,0.426758,494
15782797,9993,1.020386,-0.090942,0.423828,494
15792802,10005,1.028320,-0.095947,0.422485,492
15802800,9998,1.003906,-0.104370,0.423828,492
15812802,10002,0.981567,-0.110474,0.428223,484
15822794,9992,0.965332,-0.120850,0.426880,493
15832811,10017,0.964478,-0.140381,0.416138,494
15842805,9994,0.973633,-0.165894,0.400269,494
15852806,10001,0.973389,-0.204346,0.364990,487
15862782,9976,0.959106,-0.209106,0.355713,485
15872842,10060,0.943848,-0.202026,0.350708,491
15882793,9951,0.923950,-0.184326,0.351196,487
15892785,9992,0.904785,-0.164062,0.353882,488
15902810,10025,0.889160,-0.129028,0.361328,484
15912809,9999,0.858032,-0.120117,0.361450,486
15922805,9996,0.851440,-0.113403,0.355103,488
15932783,9978,0.849121,-0.110840,0.349365,500
15942801,10018,0.849976,-0.111816,0.341187,497
15952790,9989,0.852295,-0.115112,0.331787,504
15962790,10000,0.850220,-0.127686,0.318726,504
15972809,10019,0.850952,-0.133789,0.314697,506
15982793,9984,0.847778,-0.139038,0.314087,505
15992791,9998,0.845093,-0.139771,0.318970,498
16002809,10018,0.840820,-0.140747,0.328003,501
16012790,9981,0.842407,-0.144043,0.338379,492
16022810,10020,0.844482,-0.146362,0.339966,491
16032808,9998,0.844727,-0.147705,0.335815,482
16042825,10017,0.843506,-0.151489,0.333984,484
16052799,9974,0.838867,-0.151123,0.330444,481
16062812,10013,0.836792,-0.147583,0.329956,477
16072809,9997,0.840088,-0.140747,0.331177,473
16082786,9977,0.846558,-0.139526,0.337402,476
16092805,10019,0.857544,-0.141724,0.342285,477
16102789,9984,0.868530,-0.145386,0.346069,477
16112809,10020,0.879395,-0.151367,0.347778,480
16122810,10001,0.888672,-0.163940,0.343750,476
16132784,9974,0.890137,-0.167847,0.337158,488
16142789,10005,0.889038,-0.170532,0.331055,491
16152782,9993,0.887329,-0.171143,0.328491,497
16162798,10016,0.886719,-0.168579,0.327148,502
16172784,9986,0.888550,-0.163818,0.327515,508
16182802,10018,0.892822,-0.151489,0.339600,516
16192790,9988,0.895386,-0.144897,0.347168,525
16202795,10005,0.899536,-0.140625,0.351440,531
16212799,10004,0.911133,-0.139160,0.353027,538
16222804,10005,0.926758,-0.141479,0.352417,543
16232783,9979,0.960205,-0.151001,0.354370,550
16242788,10005,0.981812,-0.155518,0.355591,553
16252786,9998,1.008179,-0.161377,0.361694,556
16262784,9998,1.036255,-0.167847,0.373169,555
16272805,10021,1.055786,-0.176392,0.383789,569
16282804,9999,1.073853,-0.214844,0.401611,556
16292808,10004,1.087280,-0.194946,0.404419,551
16302802,9994,1.050293,-0.187988,0.411987,543
16312800,9998,0.997314,-0.176270,0.414795,547
16322790,9990,0.941528,-0.163696,0.412964,551
16332803,10013,0.898193,-0.155762,0.403931,545
16342795,9992,0.863159,-0.156006,0.377319,544
16352782,9987,0.864380,-0.164307,0.366211,544
16362808,10026,0.878906,-0.175049,0.355103,546
16372811,10003,0.902466,-0.185425,0.348511,544
16382792,9981,0.928711,-0.198853,0.347412,542
16392793,10001,0.989746,-0.238037,0.341187,539
16402845,10052,1.017578,-0.259399,0.337646,534
16413571,10726,1.037720,-0.277832,0.334351,525
16422808,9237,1.042114,-0.290161,0.331909,526
16432791,9983,1.035767,-0.296753,0.322754,524
16442785,9994,1.031006,-0.298706,0.316772,519
16452802,10017,1.008057,-0.277588,0.304565,518
16462782,9980,0.996460,-0.270630,0.301392,517
16472801,10019,0.980713,-0.254883,0.298462,521
16482795,9994,0.963501,-0.242798,0.293579,517
16492806,10011,0.948242,-0.232056,0.290039,525
16502804,9998,0.918213,-0.215088,0.282471,530
16519777,16973,0.895630,-0.203491,0.275391,532
16525385,5608,0.000000,0.000000,0.000000,524
16532800,7415,0.888550,-0.194458,0.269043,532
16542802,10002,0.886719,-0.190552,0.259766,533
16552801,9999,0.885132,-0.188232,0.250854,531
16562787,9986,0.900024,-0.197021,0.233887,525
16572789,10002,0.909790,-0.204224,0.229736,518
16582827,10038,0.919189,-0.212036,0.226562,521
16592802,9975,0.923218,-0.222412,0.227295,509
16602788,9986,0.927368,-0.238159,0.229980,511
16612788,10000,0.925415,-0.266602,0.246216,503
16622811,10023,0.922363,-0.276978,0.254517,502
16632804,9993,0.922974,-0.282715,0.260376,496
16642784,9980,0.929077,-0.285522,0.260620,493
16652797,10013,0.934082,-0.279175,0.259766,500
16662782,9985,0.955200,-0.273682,0.247192,494
16672806,10024,0.955933,-0.259766,0.237427,501
16682807,10001,0.959106,-0.260010,0.235596,504
16692787,9980,0.968872,-0.260498,0.232178,500
16702807,10020,0.964722,-0.260742,0.233765,507
16712789,9982,0.963867,-0.254639,0.235962,509
16722807,10018,0.977295,-0.251221,0.249023,511
16732783,9976,0.974487,-0.246338,0.256958,509
16742804,10021,0.969604,-0.241821,0.269287,520
16752809,10005,0.964966,-0.237671,0.286255,515
16762797,9988,0.957153,-0.233887,0.300537,515
16772790,9993,0.956787,-0.239868,0.308960,524
16782820,10030,0.949463,-0.242554,0.307983,527
16792791,9971,0.950317,-0.237915,0.308838,525
16802810,10019,0.947510,-0.226685,0.313232,527
16812797,9987,0.947388,-0.209595,0.316528,521
16822799,10002,0.954590,-0.196167,0.320313,525
16832805,10006,0.965942,-0.170898,0.332642,520
16842792,9987,0.973145,-0.163818,0.343262,516
16852799,10007,0.969971,-0.157104,0.349243,512
16862782,9983,0.969116,-0.155518,0.352661,512
16872803,10021,0.973389,-0.156372,0.357056,510
16882801,9998,0.998901,-0.142944,0.371704,509
16892805,10004,1.025146,-0.149170,0.378418,499
16902785,9980,1.060303,-0.164917,0.380615,503
16912800,10015,1.082275,-0.179077,0.382202,496
16922789,9989,1.067627,-0.185059,0.384888,489
16932792,10003,1.029663,-0.187500,0.387695,478
16942804,10012,0.985107,-0.176025,0.361938,471
16952787,9983,0.979614,-0.171265,0.347290,471
16962829,10042,0.968384,-0.162354,0.340698,473
16972791,9962,0.943237,-0.147095,0.339966,472
16982811,10020,0.909668,-0.128418,0.344849,467
16992801,9990,0.860352,-0.088501,0.369751,477
17002784,9983,0.870239,-0.079224,0.371948,480
17012804,10020,0.895386,-0.079224,0.370728,487
17022800,9996,0.923950,-0.089722,0.369873,493
17032797,9997,0.943604,-0.100220,0.368530,507
17042799,10002,0.959106,-0.106201,0.367798,510
17052792,9993,0.983276,-0.101563,0.368164,513
17062812,10020,0.989380,-0.101929,0.369263,510
17072802,9990,0.989258,-0.108887,0.372681,520
17082803,10001,0.981323,-0.116455,0.375854,521
17092810,10007,0.973755,-0.132812,0.378052,514
17102787,9977,0.969604,-0.173096,0.367676,520
17112794,10007,0.974854,-0.189453,0.360107,518
17122785,9991,0.979614,-0.197021,0.355835,516
17132801,10016,0.980713,-0.201660,0.350098,513
17142795,9994,0.977539,-0.200195,0.347412,508
17152811,10016,0.969971,-0.163574,0.341309,507
17162801,9990,0.938843,-0.180664,0.339111,498
17172784,9983,0.920776,-0.174805,0.336670,505
17182791,10007,0.904907,-0.170654,0.334106,503
17192806,10015,0.889160,-0.169067,0.330200,507
17202801,9995,0.873047,-0.166748,0.327637,506
17212801,10000,0.831909,-0.158325,0.325073,510
17222786,9985,0.804443,-0.153931,0.324829,510
17232782,9996,0.780762,-0.150391,0.324829,504
17242784,10002,0.761108,-0.149780,0.324707,511
17252812,10028,0.752808,-0.151611,0.323730,508
17262805,9993,0.760010,-0.164795,0.323486,507
17272794,9989,0.766479,-0.169434,0.321167,508
17282782,9988,0.774536,-0.173706,0.319214,501
17292794,10012,0.781982,-0.175293,0.314819,486
17302808,10014,0.788818,-0.173828,0.310547,484
17312792,9984,0.799805,-0.171631,0.307617,482
17322786,9994,0.824341,-0.171631,0.305664,480
17332813,10027,0.833252,-0.174316,0.305664,475
17342817,10004,0.837158,-0.173096,0.308716,474
17352784,9967,0.840698,-0.170166,0.313110,477
17362803,10019,0.844116,-0.166382,0.317627,475
17372788,9985,0.863525,-0.161377,0.322021,487
17382811,10023,0.881714,-0.160034,0.324097,493
17392810,9999,0.901123,-0.162598,0.325928,500
17402785,9975,0.919800,-0.169312,0.327515,510
17412782,9997,0.932861,-0.174805,0.331055,511
17422793,10011,0.940552,-0.177979,0.335693,512
17432806,10013,0.934937,-0.180176,0.347900,518
17442797,9991,0.934448,-0.181030,0.353638,521
17452809,10012,0.937378,-0.183228,0.361572,520
17462801,9992,0.940430,-0.186279,0.367432,517
17472804,10003,0.941650,-0.185059,0.370361,526
17482802,9998,0.917114,-0.171387,0.362305,526
17492802,10000,0.911621,-0.172729,0.354492,523
17502785,9983,0.927002,-0.172363,0.346802,527
17512802,10017,0.953003,-0.170898,0.346680,527
17522843,10041,0.981689,-0.167358,0.351196,528
17532787,9944,1.007935,-0.167480,0.395752,533
17542807,10020,1.043579,-0.183838,0.387451,533
17552784,9977,1.060181,-0.195068,0.393921,532
17562796,10012,1.065308,-0.202148,0.397339,530
17572805,10009,1.063354,-0.203369,0.399292,524
17582809,10004,1.059204,-0.201538,0.399780,530
17592801,9992,1.028687,-0.196411,0.401001,527
17602788,9987,1.003174,-0.196045,0.396973,532
17612806,10018,0.977295,-0.199341,0.392578,529
17622784,9978,0.949707,-0.198853,0.386963,527
17632797,10013,0.925537,-0.196899,0.380737,526
17642799,10002,0.909668,-0.195190,0.367798,530
17652810,10011,0.885376,-0.194702,0.358276,534
17662797,9987,0.880493,-0.199585,0.347778,532
17672793,9996,0.883667,-0.205322,0.335449,530
17682797,10004,0.895630,-0.213379,0.323730,529
17692795,9998,0.918091,-0.219238,0.313599,524
17702793,9998,0.988892,-0.241211,0.304077,526
17712823,10030,1.018921,-0.256470,0.307983,514
17722783,9960,1.047363,-0.271118,0.308350,508
17732785,10002,1.056763,-0.285034,0.308716,506
17742810,10025,1.052368,-0.289307,0.308228,502
17752787,9977,1.008545,-0.287231,0.292603,495
17762804,10017,1.001099,-0.276855,0.286377,489
17772802,9998,0.983887,-0.253174,0.280151,490
17782801,9999,0.969727,-0.230957,0.273926,493
17792794,9993,0.960083,-0.214111,0.270508,490
17802790,9996,0.947876,-0.200195,0.268799,500
17812782,9992,0.927856,-0.200439,0.266357,505
17822801,10019,0.919067,-0.213989,0.264404,500
17832783,9982,0.910034,-0.228516,0.256104,507
17842792,10009,0.901245,-0.240234,0.247314,510
17852793,10001,0.894287,-0.244141,0.235352,506
17862787,9994,0.884888,-0.232178,0.217285,505
17872784,9997,0.884155,-0.226685,0.212646,509
17882795,10011,0.889648,-0.226074,0.209473,512
17892792,9997,0.897583,-0.227417,0.209351,511
17902792,10000,0.907104,-0.231201,0.212036,509
17912812,10020,0.920288,-0.238403,0.213867,509
17922803,9991,0.948364,-0.245850,0.221924,508
17932782,9979,0.959717,-0.244507,0.227417,509
17942791,10009,0.969604,-0.241699,0.229370,515
17952803,10012,0.977173,-0.238770,0.230469,520
17962808,10005,0.983643,-0.238281,0.230225,519
17972794,9986,0.985474,-0.239624,0.226318,528
17982811,10017,0.987305,-0.243652,0.225098,534
17992804,9993,0.987915,-0.245605,0.224243,534
18002798,9994,0.987671,-0.246704,0.225708,539
18012798,10000,0.986938,-0.244385,0.229858,542
18022791,9993,0.984009,-0.239990,0.243408,538
18032808,10017,0.973267,-0.232178,0.253052,536
18042798,9990,0.968506,-0.235840,0.262817,523
18052802,10004,0.966675,-0.241455,0.270020,528
18062797,9995,0.965698,-0.246582,0.277710,521
18072790,9993,0.958618,-0.244507,0.288940,517
18082788,9998,0.958984,-0.240479,0.304321,511
18092789,10001,0.962402,-0.234619,0.310059,509
18102802,10013,0.961060,-0.223022,0.317627,498
18112803,10001,0.953369,-0.207642,0.327393,493
18122788,9985,0.947998,-0.193359,0.336914,495
18132803,10015,0.947388,-0.177490,0.350586,486
18142798,9995,0.953979,-0.174438,0.360352,484
18152799,10001,0.959351,-0.173584,0.366333,479
18162792,9993,0.959839,-0.177856,0.372192,481
18172808,10016,0.958008,-0.185791,0.376465,484
18182803,9995,0.955688,-0.195801,0.375854,483
18192803,10000,0.973999,-0.206177,0.367920,484
18202804,10001,1.002686,-0.212280,0.363037,479
18212787,9983,1.034912,-0.215454,0.363770,488
18222792,10005,1.067383,-0.214600,0.365845,490
18232784,9992,1.079346,-0.211426,0.377197,489
18242809,10025,1.028931,-0.210327,0.379883,485
18252808,9999,1.005249,-0.213867,0.364380,484
18262799,9991,1.000610,-0.211304,0.348877,474
18272806,10007,1.000488,-0.199585,0.341797,482
18282794,9988,0.985718,-0.180420,0.343384,481
18292801,10007,0.950073,-0.157837,0.351563,485
18302797,9996,0.875610,-0.125366,0.358398,490
18312790,9993,0.849487,-0.116211,0.357300,498
18322809,10019,0.834839,-0.117920,0.349609,504
18332806,9997,0.837280,-0.127930,0.339478,510
18342802,9996,0.858887,-0.144775,0.327515,512
18352788,9986,0.923462,-0.175537,0.301880,514
18362792,10004,0.946777,-0.178345,0.294556,516
18372803,10011,0.963745,-0.177490,0.294556,512
18382784,9981,0.969116,-0.169800,0.300659,512
18392784,10000,0.965820,-0.161499,0.311279,515
18402812,10028,0.945923,-0.153076,0.336792,509
18412789,9977,0.913208,-0.145630,0.342163,511
18422799,10010,0.914307,-0.150635,0.344116,510
18432809,10010,0.916016,-0.157593,0.344727,510
18442810,10001,0.911621,-0.165405,0.339844,509
18452789,9979,0.902954,-0.171631,0.333740,511
18462797,10008,0.881958,-0.171387,0.325562,509
18472807,10010,0.877197,-0.168457,0.327637,506
18482796,9989,0.864868,-0.165405,0.332031,514
18492789,9993,0.850830,-0.162720,0.336792,514
18502806,10017,0.840942,-0.159668,0.342651,515
18512787,9981,0.834473,-0.164429,0.346802,520
18522784,9997,0.822266,-0.169434,0.346436,519
18532790,10006,0.822388,-0.174072,0.344971,520
18542797,10007,0.819336,-0.177979,0.340454,522
18552800,10003,0.812012,-0.182861,0.336182,525
18562792,9992,0.808838,-0.186890,0.334595,525
18572793,10001,0.806274,-0.184448,0.337158,526
18582809,10016,0.810181,-0.177490,0.339844,526
18592808,9999,0.817139,-0.170166,0.343140,519
18602794,9986,0.823853,-0.164185,0.346436,524
18612793,9999,0.834229,-0.162109,0.348145,524
18622814,10021,0.859863,-0.164185,0.345093,521
18632787,9973,0.870117,-0.171387,0.342773,520
18642810,10023,0.876343,-0.180908,0.338257,517
18652797,9987,0.879883,-0.190308,0.334717,515
18662796,9999,0.888184,-0.198608,0.331543,523
18672782,9986,0.894775,-0.205444,0.328735,513
18682804,10022,0.899902,-0.210449,0.322510,508
18692798,9994,0.900513,-0.209229,0.322388,509
18702795,9997,0.899536,-0.206665,0.320679,506
18712783,9988,0.899658,-0.206421,0.315796,506
18722790,10007,0.901978,-0.205933,0.311646,501
18732811,10021,0.902100,-0.203735,0.313599,502
18742789,9978,0.903564,-0.201904,0.314453,504
18752785,9996,0.903198,-0.202515,0.318481,504
18762807,10022,0.906250,-0.205811,0.322510,504
18772787,9980,0.914185,-0.209717,0.325928,511
18782803,10016,0.929199,-0.209961,0.328125,521
18792792,9989,0.982666,-0.216797,0.329956,529
18802787,9995,1.014526,-0.223389,0.333984,529
18812804,10017,1.047241,-0.226562,0.341675,532
18822807,10003,1.072632,-0.227173,0.349976,538
18832801,9994,1.094238,-0.225586,0.360718,536
18842791,9990,1.116211,-0.218384,0.385742,537
18852800,10009,1.120361,-0.213989,0.395142,540
18862793,9993,1.127686,-0.211304,0.404297,539
18872788,9995,1.137695,-0.214355,0.411255,537
18882798,10010,1.136108,-0.216431,0.420288,533
18892785,9987,1.122314,-0.215210,0.432861,538
18902787,10002,1.059570,-0.210449,0.434814,532
18912794,10007,1.009399,-0.207275,0.433350,538
18922802,10008,0.961304,-0.204834,0.428101,534
18932811,10009,0.918823,-0.203979,0.421631,544
18942789,9978,0.883789,-0.207764,0.409546,539
18952793,10004,0.863037,-0.220947,0.381592,538
18962795,10002,0.870605,-0.231079,0.366821,538
18972782,9987,0.891479,-0.241577,0.352173,529
18982832,10050,0.917847,-0.253052,0.339844,536
18992801,9969,0.935669,-0.263794,0.333252,529
19002788,9987,0.951904,-0.283936,0.331299,525
19012787,9999,0.965698,-0.293457,0.332275,524
19022793,10006,0.969238,-0.302002,0.330200,518
19032800,10007,0.964111,-0.307129,0.325195,507
19042791,9991,0.960205,-0.308228,0.315918,501
19052797,10006,0.953247,-0.301514,0.303467,507
19067497,14700,0.949341,-0.282104,0.285278,509
19073648,6151,0.943481,-0.263062,0.280151,503
19082793,9145,0.941650,-0.249023,0.274902,508
19092792,9999,0.941772,-0.240845,0.270874,521
19102809,10017,0.937744,-0.238281,0.265991,527
19112798,9989,0.931152,-0.244263,0.258057,532
19122795,9997,0.924927,-0.247070,0.250854,539
19132803,10008,0.916992,-0.248291,0.242676,545
19142791,9988,0.908813,-0.245850,0.232666,548
19152802,10011,0.900269,-0.238525,0.222168,546
19225713,72911,0.930420,-0.263916,0.229858,519
19231106,5393,0.000000,0.000000,0.000000,512
19235166,4060,0.942627,-0.259766,0.231445,514
19240756,5590,0.950806,-0.257813,0.233521,510
19246510,5754,0.000000,0.000000,0.000000,510
19250915,4405,0.956909,-0.255493,0.229858,504
19256176,5261,0.000000,0.000000,0.000000,506
19260404,4228,0.967773,-0.259033,0.230835,503
19265903,5499,0.966309,-0.255371,0.232422,504
19271527,5624,0.000000,0.000000,0.000000,499
19275701,4174,0.974243,-0.248047,0.239990,494
19281311,5610,0.000000,0.000000,0.000000,494
19285362,4051,0.982544,-0.242432,0.246094,497
19292811,7449,0.984131,-0.235474,0.253540,490
19302811,10000,0.986450,-0.231567,0.261841,490
19312800,9989,0.989136,-0.229004,0.270508,498
19326753,13953,0.984741,-0.223999,0.280029,500
19333639,6886,0.980103,-0.223145,0.286743,503
19342804,9165,0.972168,-0.223022,0.291382,498
19352808,10004,0.969482,-0.220215,0.294189,502
19362810,10002,0.969360,-0.222656,0.297485,507
19372784,9974,0.967529,-0.218750,0.301270,511
19382804,10020,0.961060,-0.206055,0.321411,509
19392811,10007,0.947144,-0.201172,0.326660,511
19402796,9985,0.947021,-0.198608,0.329834,509
19412808,10012,0.941650,-0.194824,0.331909,500
19422788,9980,0.931519,-0.187500,0.335205,501
19432810,10022,0.916260,-0.178711,0.340576,493
19442796,9986,0.885986,-0.162598,0.355225,498
19452789,9993,0.880493,-0.161255,0.356567,497
19462810,10021,0.886353,-0.161865,0.356201,499
19472798,9988,0.904785,-0.164062,0.351074,501
19482795,9997,0.941040,-0.168335,0.341309,503
19492811,10016,1.040894,-0.188599,0.328369,503
19502785,9974,1.072632,-0.196777,0.329102,496
19512786,10001,1.084717,-0.205566,0.335327,499
19522785,9999,1.068604,-0.210937,0.348145,494
19532798,10013,1.035645,-0.209229,0.363159,483
19542794,9996,1.006592,-0.203125,0.367432,486
19552809,10015,0.996704,-0.185303,0.361938,486
19562793,9984,0.999634,-0.174805,0.356689,488
19572807,10014,0.994873,-0.161377,0.354736,488
19582806,9999,0.981445,-0.148560,0.353027,487
19592806,10000,0.963623,-0.135620,0.354004,504
19602782,9976,0.920044,-0.119507,0.360718,508
19612811,10029,0.911011,-0.118774,0.361328,517
19622809,9998,0.909302,-0.124390,0.360840,526
19632807,9998,0.912842,-0.133545,0.356445,525
19642809,10002,0.911377,-0.143066,0.352051,539
19652793,9984,0.896240,-0.180786,0.354004,540
19662790,9997,0.863037,-0.164185,0.346558,541
19672801,10011,0.853149,-0.169800,0.340088,543
19682790,9989,0.846924,-0.175293,0.332397,551
19692815,10025,0.840942,-0.179077,0.325073,546
19702785,9970,0.836792,-0.181396,0.318237,549
19712782,9997,0.847290,-0.185913,0.309937,545
19738015,25233,0.892090,-0.180664,0.309204,541
19745677,7662,0.000000,0.000000,0.000000,538
19751430,5753,0.907715,-0.180786,0.313843,532
19758671,7241,0.918457,-0.179077,0.320679,523
19765801,7130,0.920044,-0.178467,0.328491,524
19772810,7009,0.909058,-0.174805,0.335693,517
19782789,9979,0.895142,-0.170654,0.343018,511
19792803,10014,0.883301,-0.165283,0.346558,508
19808394,15591,0.864502,-0.154297,0.351929,495
19813687,5293,0.000000,0.000000,0.000000,499
19822797,9110,0.842896,-0.145630,0.351563,499
19832784,9987,0.837158,-0.147705,0.352295,502
19842788,10004,0.834595,-0.152100,0.353394,494
19852825,10037,0.835693,-0.161255,0.355469,500
19862827,10002,0.837280,-0.168335,0.355469,494
19872799,9972,0.836914,-0.180664,0.347534,494
19882787,9988,0.837036,-0.184692,0.341187,501
19892792,10005,0.839966,-0.186401,0.334473,502
19902795,10003,0.844482,-0.184448,0.331177,498
19912799,10004,0.849854,-0.179565,0.330322,505
19922811,10012,0.856934,-0.177002,0.329346,505
19932802,9991,0.878174,-0.177124,0.328857,505
19942791,9989,0.891724,-0.178589,0.326660,506
19952786,9995,0.902588,-0.180542,0.325195,508
19962796,10010,0.911987,-0.182373,0.325806,504
19972809,10013,0.912476,-0.183350,0.325928,511
19982806,9997,0.911255,-0.181885,0.329346,513
19992809,10003,0.914062,-0.179443,0.331665,515
20002793,9984,0.920044,-0.177612,0.334106,518
20012792,9999,0.927002,-0.177979,0.338623,511
20022803,10011,0.930054,-0.178711,0.343628,515
20032784,9981,0.927734,-0.178589,0.345215,514
20042797,10013,0.908325,-0.171997,0.348389,515
20056688,13891,0.899292,-0.166504,0.350586,524
20063440,6752,0.896606,-0.161621,0.350708,525
20072801,9361,0.911255,-0.159912,0.349121,525
20082787,9986,0.941650,-0.160278,0.347900,535
20092787,10000,1.021362,-0.169556,0.363403,538
20102804,10017,1.056519,-0.176514,0.376587,542
20112810,10006,1.088867,-0.185425,0.389282,545
20122786,9976,1.120605,-0.193848,0.398315,542
20132790,10004,1.144897,-0.203247,0.407593,538
20153819,21029,1.070190,-0.211670,0.425781,539
20160301,6482,0.000000,0.000000,0.000000,537
20164771,4470,0.995361,-0.209839,0.420532,539
20173675,8904,0.921875,-0.207520,0.402710,540
20182805,9130,0.864136,-0.205933,0.375854,541
20192801,9996,0.840088,-0.203613,0.346802,549
20202793,9992,0.908936,-0.219971,0.304810,555
20212806,10013,0.969604,-0.233276,0.295776,559
20222814,10008,1.020264,-0.247925,0.294922,562
20232787,9973,1.053833,-0.262939,0.298950,559
20242788,10001,1.071655,-0.279053,0.306763,555
20252789,10001,1.069092,-0.309570,0.322021,553
20262798,10009,1.049683,-0.321899,0.321167,543
20272794,9996,1.020630,-0.324707,0.318115,546
20282794,10000,0.995728,-0.312744,0.313477,547
20292789,9995,0.979126,-0.288330,0.310181,547
20302784,9995,0.966675,-0.261108,0.310547,545
20312795,10011,0.951538,-0.202148,0.315308,549
20322802,10007,0.942261,-0.186890,0.319824,556
20332803,10001,0.936035,-0.188843,0.320679,551
20342792,9989,0.927368,-0.206177,0.319336,558
20352796,10004,0.914307,-0.229858,0.312134,554
20362806,10010,0.877075,-0.252563,0.289917,556
20372790,9984,0.863525,-0.252319,0.274048,544
20382783,9993,0.853882,-0.250366,0.258667,558
20392806,10023,0.851074,-0.248291,0.244019,535
20402812,10006,0.855347,-0.250366,0.234009,534
20412823,10011,0.863037,-0.255127,0.229370,522
20422789,9966,0.894531,-0.279419,0.232910,518
20432800,10011,0.913086,-0.292847,0.236206,511
20442782,9982,0.930908,-0.305298,0.239258,500
20452791,10009,0.944458,-0.312378,0.239746,498
20462790,9999,0.952271,-0.312866,0.239136,494
20472785,9995,0.954834,-0.302856,0.233765,488
20482833,10048,0.950928,-0.290161,0.229736,492
20492788,9955,0.942261,-0.276611,0.224854,496
20502805,10017,0.937866,-0.263062,0.220825,500
20512783,9978,0.941040,-0.252808,0.216187,503
20522782,9999,0.944336,-0.245239,0.209839,508
20532806,10024,0.952148,-0.233154,0.211060,509
20542799,9993,0.953247,-0.231689,0.213745,511
20552789,9990,0.950806,-0.232788,0.218384,512
20562789,10000,0.944092,-0.233032,0.223022,512
20572803,10014,0.935791,-0.228394,0.229492,512
20582796,9993,0.918701,-0.215942,0.238770,514
20592808,10012,0.913086,-0.210205,0.242310,509
20602820,10012,0.904785,-0.203979,0.246338,502
20612795,9975,0.896118,-0.198853,0.252197,502
20622804,10009,0.890625,-0.194580,0.257446,492
20632811,10007,0.887817,-0.189697,0.269897,496
20642799,9988,0.889038,-0.187378,0.273071,493
20652799,10000,0.891479,-0.184448,0.281006,493
20662784,9985,0.897217,-0.181030,0.292236,494
20672811,10027,0.911621,-0.178711,0.301758,489
20682791,9980,0.947144,-0.183105,0.306030,486
20692802,10011,1.082886,-0.209229,0.307007,487
20702789,9987,1.154175,-0.219238,0.306152,491
20712797,10008,1.205688,-0.229492,0.306274,487
20722790,9993,1.231445,-0.236328,0.305908,483
20732785,9995,1.224365,-0.236206,0.307373,474
20742798,10013,1.149658,-0.207886,0.332031,470
20752784,9986,1.081543,-0.180908,0.352295,467
20762810,10026,1.020020,-0.144409,0.377197,470
20772802,9992,0.978638,-0.105469,0.408447,477
20782789,9987,0.951172,-0.072510,0.433838,485
20792786,9997,0.940918,-0.054565,0.446411,497
20802787,10001,0.923218,-0.040894,0.449951,512
20812796,10009,0.924927,-0.041382,0.446167,521
20822822,10026,0.937378,-0.044434,0.435425,539
20832790,9968,0.956543,-0.051880,0.417358,548
20842805,10015,0.976196,-0.063354,0.401611,558
20852811,10006,1.006592,-0.109375,0.383301,561
20862787,9976,1.014282,-0.129517,0.378540,556
20872795,10008,1.009277,-0.143677,0.377930,543
20882795,10000,1.002075,-0.150879,0.381836,544
20892811,10016,0.992432,-0.148682,0.385742,526
20902797,9986,0.980103,-0.140015,0.396118,520
20912787,9990,0.972778,-0.132935,0.400024,511
20922785,9998,0.978638,-0.143311,0.393311,499
20932802,10017,0.982300,-0.152832,0.385010,499
20942789,9987,0.976929,-0.153198,0.372803,489
20952811,10022,0.963623,-0.146851,0.363403,491
20962793,9982,0.932373,-0.131104,0.348511,492
20972800,10007,0.911865,-0.124390,0.342285,490
20982792,9992,0.894653,-0.117188,0.337280,489
20992790,9998,0.874512,-0.109985,0.333008,497
21002793,10003,0.855225,-0.104248,0.330566,498
21012796,10003,0.838867,-0.100952,0.318481,503
21022783,9987,0.828735,-0.109497,0.312134,514
21032793,10010,0.828491,-0.119873,0.303345,517
21042789,9996,0.828857,-0.129272,0.296021,521
21052807,10018,0.825439,-0.138062,0.293335,516
21062782,9975,0.822876,-0.143799,0.291504,521
21072787,10005,0.813477,-0.151367,0.298462,521
21082788,10001,0.813599,-0.153687,0.301147,515
21092806,10018,0.807617,-0.152344,0.305908,510
21102799,9993,0.804321,-0.154175,0.310059,510
21112806,10007,0.796753,-0.156616,0.311523,507
21122792,9986,0.791748,-0.151367,0.314087,499
21132795,10003,0.783691,-0.148193,0.313232,498
21142784,9989,0.783203,-0.146973,0.312256,494
21152788,10004,0.785034,-0.148071,0.311401,495
21162810,10022,0.786255,-0.152954,0.308105,487
21172813,10003,0.791626,-0.156250,0.305786,490
21182804,9991,0.806274,-0.165527,0.302124,484
21192808,10004,0.808105,-0.168091,0.299561,482
21207028,14220,0.810791,-0.168457,0.300903,477
21214372,7344,0.000000,0.000000,0.000000,468
21222795,8423,0.814087,-0.167358,0.303345,472
21232799,10004,0.809570,-0.168213,0.305542,476
21242805,10006,0.813599,-0.171753,0.304688,478
21252786,9981,0.830566,-0.179687,0.298584,472
21262809,10023,0.880371,-0.191895,0.287964,482
21272810,10001,0.972412,-0.208740,0.280396,479
21282784,9974,1.087402,-0.225708,0.288818,485
21292808,10024,1.316772,-0.242065,0.361206,489
21302806,9998,1.364136,-0.257690,0.389404,487
21312792,9986,1.354248,-0.273315,0.385986,481
21322803,10011,1.272217,-0.283936,0.370117,474
21332792,9989,1.145142,-0.279419,0.334717,467
21342790,9998,0.947998,-0.215088,0.276123,476
21352802,10012,0.887939,-0.174683,0.265625,486
21362824,10022,0.853760,-0.139282,0.255615,494
21372797,9973,0.843628,-0.114136,0.246216,512
21382800,10003,0.868652,-0.106323,0.239624,521
21392803,10003,0.933838,-0.115479,0.241089,539
21403494,10691,1.076904,-0.176636,0.253906,553
21412792,9298,1.131348,-0.209717,0.259033,561
21422791,9999,1.166260,-0.236938,0.260132,568
21432792,10001,1.186157,-0.260254,0.257813,568
21442795,10003,1.186035,-0.282227,0.251953,565
21452789,9994,1.129028,-0.290039,0.228394,570
21462783,9994,1.078125,-0.267578,0.216309,564
21472810,10027,1.027832,-0.234497,0.209351,562
21482801,9991,0.987793,-0.204956,0.212769,563
21492797,9996,0.952637,-0.176270,0.222168,563
21502808,10011,0.925171,-0.116455,0.253296,563
21512785,9977,0.886719,-0.100464,0.273682,560
21522782,9997,0.881836,-0.092041,0.290894,558
21532790,10008,0.886841,-0.104370,0.300781,558
21542826,10036,0.883667,-0.130615,0.303223,558
21552806,9980,0.880249,-0.157837,0.300415,544
21562817,10011,0.880493,-0.187256,0.276123,540
21572789,9972,0.882080,-0.197754,0.253296,530
21582789,10000,0.881836,-0.207031,0.232056,520
21592788,9999,0.881592,-0.214478,0.214233,507
21605409,12621,0.887085,-0.214111,0.195312,493
21612793,7384,0.000000,0.000000,0.000000,485
21622786,9993,0.879517,-0.215576,0.205933,476
21632784,9998,0.882446,-0.218994,0.217041,461
21642798,10014,0.892700,-0.222046,0.228149,459
21652782,9984,0.903320,-0.222046,0.234863,462
21662790,10008,0.914062,-0.219238,0.236206,464
21672801,10011,0.927856,-0.199585,0.229858,467
21682808,10007,0.934692,-0.187622,0.225830,477
21692782,9974,0.938721,-0.182129,0.221436,488
21702785,10003,0.942017,-0.180420,0.223022,491
21712812,10027,0.940186,-0.177124,0.221924,504
21722796,9984,0.926270,-0.172607,0.223389,508
21732810,10014,0.921387,-0.171509,0.223022,513
21742785,9975,0.918823,-0.171387,0.223267,522
21752807,10022,0.921265,-0.170044,0.223633,527
21762795,9988,0.927490,-0.170654,0.226318,530
21772782,9987,0.932861,-0.168579,0.230103,527
21782811,10029,0.924072,-0.170898,0.242554,529
21792784,9973,0.915649,-0.174194,0.247314,525
21802806,10022,0.911133,-0.178589,0.249756,515
21812787,9981,0.906616,-0.179810,0.254883,521
21822803,10016,0.904907,-0.178345,0.259521,521
21832795,9992,0.944946,-0.172729,0.273438,521
21842810,10015,0.983032,-0.175537,0.282593,514
21852801,9991,1.026733,-0.182617,0.293091,516
21862807,10006,1.063843,-0.188843,0.306274,515
21872783,9976,1.092407,-0.201050,0.318970,510
21882801,10018,1.102051,-0.215698,0.323120,504
21892797,9996,1.071045,-0.233154,0.315308,493
21902793,9996,1.041992,-0.224854,0.314819,493
21912802,10009,1.015015,-0.202026,0.326050,489
21922783,9981,1.001709,-0.173096,0.343140,486
21932793,10010,1.001099,-0.147583,0.365601,478
21942794,10001,1.027832,-0.132080,0.409790,488
21952784,9990,1.038940,-0.132324,0.427979,483
21962783,9999,1.036743,-0.128296,0.442993,493
21972797,10014,1.024536,-0.117554,0.453613,501
21982801,10004,1.024536,-0.117554,0.464355,501
21992799,9998,1.024902,-0.137085,0.468628,512
22002807,10008,1.012329,-0.147583,0.465210,519
22012800,9993,0.998779,-0.156860,0.456543,517
22022794,9994,0.972778,-0.163818,0.446777,524
22032800,10006,0.942261,-0.168213,0.435791,517
22042799,9999,0.903076,-0.175049,0.429565,521
22052784,9985,0.840332,-0.196533,0.409424,521
22062783,9999,0.829956,-0.203735,0.398438,521
22072787,10004,0.825928,-0.203979,0.384888,522
22082795,10008,0.820190,-0.202759,0.371704,516
22092804,10009,0.818481,-0.200806,0.357422,514
22102810,10006,0.820801,-0.205933,0.326172,507
22112798,9988,0.824097,-0.205322,0.309448,512
22122798,10000,0.823486,-0.203491,0.296143,509
22132788,9990,0.828857,-0.200684,0.283447,501
22142809,10021,0.822510,-0.200195,0.273315,506
22152794,9985,0.814575,-0.196655,0.266113,498
22162791,9997,0.817993,-0.190308,0.264893,505
22172797,10006,0.819092,-0.188232,0.264160,507
22182783,9986,0.824219,-0.189087,0.263916,507
22192792,10009,0.827515,-0.188965,0.265381,517
22202791,9999,0.831909,-0.185425,0.264282,511
22212795,10004,0.848267,-0.196899,0.255493,515
22222796,10001,0.853149,-0.204468,0.247559,522
22232797,10001,0.855957,-0.209351,0.243896,520
22242790,9993,0.855469,-0.211792,0.240112,519
22252804,10014,0.856323,-0.206787,0.237549,516
22262787,9983,0.856934,-0.198975,0.234619,505
22272802,10015,0.864136,-0.184204,0.234741,505
22282798,9996,0.866089,-0.178467,0.237671,503
22292787,9989,0.861450,-0.175293,0.243774,500
22302798,10011,0.857544,-0.174072,0.249634,496
22312789,9991,0.860718,-0.172607,0.254639,491
22322789,10000,0.883545,-0.172241,0.260254,489
22332800,10011,0.906738,-0.177002,0.260742,490
22342802,10002,0.933472,-0.181641,0.260864,487
22352809,10007,0.968506,-0.190308,0.261108,488
22362789,9980,1.006714,-0.199585,0.262817,490
22372790,10001,1.041748,-0.209229,0.268799,490
22382788,9998,1.071777,-0.221191,0.273804,483
22392789,10001,1.059570,-0.221436,0.274292,488
22402809,10020,1.038818,-0.215454,0.277222,484
22412807,9998,1.015869,-0.206665,0.280762,486
22422809,10002,0.987183,-0.197144,0.281128,492
22432796,9987,0.933472,-0.179321,0.278809,492
22442787,9991,0.925415,-0.175049,0.274780,503
22452794,10007,0.930054,-0.171509,0.270508,509
22462814,10020,0.942261,-0.170410,0.263916,507
22472796,9982,0.968994,-0.179565,0.257446,520
22482806,10010,1.013062,-0.237793,0.248779,525
22492802,9996,1.023560,-0.276245,0.243408,523
22502791,9989,1.024780,-0.310669,0.241455,525
22512803,10012,1.011963,-0.329468,0.236206,523
22522801,9998,0.994751,-0.330444,0.230591,521
22532784,9983,0.971924,-0.325928,0.223755,523
22542812,10028,0.940796,-0.307739,0.218018,521
22552805,9993,0.926392,-0.288696,0.218628,529
22562797,9992,0.911743,-0.261475,0.226807,533
22572806,10009,0.904053,-0.239502,0.238770,539
22582792,9986,0.901245,-0.228760,0.254883,547
22592801,10009,0.912109,-0.233154,0.283081,554
22602789,9988,0.924927,-0.243896,0.291504,558
22612791,10002,0.934814,-0.248657,0.296265,565
22622804,10013,0.939209,-0.244507,0.295166,568
22632782,9978,0.944824,-0.232056,0.292358,569
22642794,10012,0.947632,-0.219482,0.291992,566
22652803,10009,0.957520,-0.217896,0.290894,569
22662805,10002,0.970703,-0.226562,0.296021,565
22672822,10017,0.989014,-0.237793,0.298340,559
22682787,9965,1.003174,-0.253296,0.301270,555
22692796,10009,1.010620,-0.270996,0.302856,542
22702788,9992,1.027954,-0.299927,0.300537,539
22712807,10019,1.032227,-0.312500,0.300659,530
22722793,9986,1.030762,-0.327148,0.301636,517
22732803,10010,1.024170,-0.342651,0.302856,515
22742782,9979,1.013184,-0.360474,0.303101,511
22752809,10027,1.000732,-0.370850,0.303345,509
22762793,9984,0.972656,-0.368652,0.303833,505
22772809,10016,0.954590,-0.358398,0.303589,501
22782794,9985,0.941528,-0.345459,0.305054,504
22792799,10005,0.930054,-0.331421,0.304565,508
22802795,9996,0.923462,-0.315918,0.305298,509
22812803,10008,0.923340,-0.284790,0.302002,514
22822797,9994,0.927124,-0.272339,0.300415,515
22832838,10041,0.929077,-0.262329,0.297729,519
22842795,9957,0.927734,-0.255859,0.295044,522
22852805,10010,0.931030,-0.253052,0.294189,525
22862786,9981,0.931152,-0.253174,0.292969,524
22872799,10013,0.934204,-0.258911,0.295166,523
22882810,10011,0.934937,-0.264893,0.296875,532
22892796,9986,0.936279,-0.270142,0.295288,518
22902807,10011,0.935791,-0.274170,0.296509,515
22912806,9999,0.936523,-0.276611,0.294312,511
22922793,9987,0.933472,-0.277832,0.288818,509
22932802,10009,0.931274,-0.274780,0.286255,508
22942788,9986,0.933594,-0.271362,0.286011,508
22952799,10011,0.938354,-0.268921,0.283081,505
22962806,10007,0.940308,-0.266846,0.281006,501
22972789,9983,0.939575,-0.266968,0.270996,496
22982792,10003,0.933350,-0.263672,0.266479,501
23002374,19582,0.920288,-0.254395,0.261841,502
23008122,5748,0.911255,-0.248047,0.261597,496
23013664,5542,0.000000,0.000000,0.000000,502
23022836,9172,0.900879,-0.243042,0.264282,502
23038582,15746,0.900269,-0.233154,0.271606,498
23043935,5353,0.892944,-0.228882,0.271973,500
23052804,8869,0.915894,-0.225220,0.273682,504
23062807,10003,0.944458,-0.225220,0.276978,507
23072809,10002,0.981567,-0.222290,0.275513,506
23100202,27393,1.027588,-0.200317,0.264526,503
23106606,6404,0.000000,0.000000,0.000000,496
23111973,5367,1.033447,-0.186523,0.265259,503
23117242,5269,1.047607,-0.174683,0.276489,505
23122964,5722,0.000000,0.000000,0.000000,505
23132791,9827,1.051147,-0.166138,0.299683,507
23142785,9994,0.976929,-0.153687,0.336548,512
23152801,10016,0.934692,-0.144287,0.341431,516
23162809,10008,0.911255,-0.134277,0.337646,519
23172812,10003,0.921509,-0.119751,0.335083,523
23203825,31013,1.046997,-0.051514,0.369629,535
23208940,5115,0.000000,0.000000,0.000000,539
23212929,3989,1.054810,-0.050049,0.387573,530
23218346,5417,0.000000,0.000000,0.000000,536
23222835,4489,1.055176,-0.061035,0.400146,533
23232807,9972,1.047363,-0.081787,0.406128,530
23242795,9988,1.034912,-0.102173,0.377075,514
23252795,10000,1.003784,-0.129272,0.399048,512
23262798,10003,0.997925,-0.140137,0.395996,510
23272789,9991,0.994751,-0.147339,0.392944,504
23282805,10016,0.983398,-0.148926,0.390503,493
23292784,9979,0.972778,-0.147949,0.386841,489
23302809,10025,0.963623,-0.139771,0.376831,494
23312799,9990,0.958008,-0.134033,0.373291,493
23322785,9986,0.950928,-0.130127,0.368164,493
23332801,10016,0.937622,-0.128906,0.365601,492
23342790,9989,0.925781,-0.133667,0.359863,495
23352802,10012,0.914307,-0.139771,0.343384,495
23362788,9986,0.896851,-0.154419,0.333130,491
23372782,9994,0.887085,-0.158936,0.324463,500
23382791,10009,0.875244,-0.158447,0.320313,501
23392800,10009,0.863647,-0.160522,0.315918,505
23402811,10011,0.853638,-0.155396,0.309326,506
23412782,9971,0.836792,-0.146484,0.304810,507
23422817,10035,0.829834,-0.143433,0.304077,512
23432803,9986,0.825073,-0.141357,0.303223,508
23442827,10024,0.821167,-0.144165,0.301636,514
23452797,9970,0.817139,-0.144653,0.299683,511
23462790,9993,0.810059,-0.146973,0.298828,511
23472802,10012,0.794556,-0.147705,0.297852,505
23482788,9986,0.788208,-0.147095,0.298218,507
23492782,9994,0.777344,-0.147339,0.298828,500
23502784,10002,0.769653,-0.145386,0.301270,499
23512787,10003,0.767212,-0.143921,0.306030,491
23522808,10021,0.773071,-0.151367,0.314453,494
23532795,9987,0.783447,-0.156738,0.314209,483
23542810,10015,0.797607,-0.161377,0.312866,487
23552805,9995,0.808960,-0.163940,0.312256,485
23562800,9995,0.816528,-0.164307,0.310181,484
23572790,9990,0.825195,-0.162964,0.308472,485
23582798,10008,0.825073,-0.163818,0.307129,480
23592787,9989,0.826416,-0.164307,0.309326,481
23602803,10016,0.826172,-0.164429,0.315918,477
23612793,9990,0.828247,-0.168579,0.323608,484
23622790,9997,0.836182,-0.175781,0.331421,482
23632826,10036,0.874512,-0.190918,0.339111,481
23642811,9985,0.918091,-0.199707,0.340088,482
23652798,9987,0.974731,-0.204468,0.341553,488
23662785,9987,1.025757,-0.203857,0.341797,489
23672809,10024,1.084473,-0.202637,0.347290,487
23682807,9998,1.131348,-0.201294,0.355835,490
23692800,9993,1.122681,-0.199585,0.356079,495
23702794,9994,1.097290,-0.198975,0.358765,498
23712782,9988,1.063477,-0.199463,0.349365,503
23722787,10005,1.037964,-0.198608,0.333740,512
23732798,10011,1.024414,-0.197754,0.290649,521
23742790,9992,1.021484,-0.192139,0.296753,527
23752799,10009,1.015137,-0.182129,0.288574,536
23762790,9991,1.007446,-0.166870,0.280518,539
23772787,9997,1.005127,-0.153564,0.281128,548
23782799,10012,1.010376,-0.136963,0.287720,555
23792821,10022,1.016724,-0.116455,0.307739,556
23802793,9972,1.015503,-0.120117,0.311401,565
23812783,9990,1.016724,-0.133545,0.306763,567
23822782,9999,1.019531,-0.149780,0.294067,569
23832803,10021,1.024048,-0.162842,0.278564,569
23842808,10005,1.032837,-0.192505,0.255371,559
23852803,9995,1.057495,-0.205688,0.251099,560
23862803,10000,1.067261,-0.214233,0.248535,555
23872802,9999,1.065552,-0.210815,0.245239,541
23882809,10007,1.055420,-0.201538,0.244751,542
23892811,10002,1.033936,-0.190063,0.243652,531
23902804,9993,0.993774,-0.169434,0.243896,532
23912801,9997,0.979858,-0.159668,0.246704,532
23922784,9983,0.970947,-0.153198,0.250244,529
23932793,10009,0.967041,-0.150024,0.254883,529
23942798,10005,0.963623,-0.154419,0.256958,522
23952787,9989,0.955078,-0.180176,0.255859,521
23962783,9996,0.945923,-0.197510,0.253906,526
23972815,10032,0.936523,-0.214844,0.248657,522
23982802,9987,0.921753,-0.230957,0.243286,520
23992800,9998,0.905396,-0.240356,0.238159,514
24002801,10001,0.890137,-0.245972,0.232544,503
24012804,10003,0.863281,-0.244141,0.220703,499
24022801,9997,0.851685,-0.241577,0.215942,499
24032790,9989,0.847168,-0.240112,0.215942,495
24042786,9996,0.848022,-0.240234,0.219360,492
24052784,9998,0.848999,-0.241089,0.224121,487
24062790,10006,0.855347,-0.250854,0.233032,480
24072810,10020,0.865845,-0.255371,0.235107,482
24082806,9996,0.872925,-0.256836,0.235962,485
24092783,9977,0.882690,-0.256592,0.234009,471
24102793,10010,0.891846,-0.256592,0.231567,476
24112787,9994,0.905640,-0.256958,0.231201,477
24122798,10011,0.927979,-0.251221,0.227417,476
24132798,10000,0.936768,-0.248779,0.228271,479
24142791,9993,0.945312,-0.244507,0.226929,479
24152790,9999,0.953369,-0.239990,0.226440,481
24164739,11949,0.971436,-0.235596,0.221558,484
24172806,8067,0.000000,0.000000,0.000000,483
24182795,9989,0.986938,-0.231445,0.229126,487
24192802,10007,0.990723,-0.224731,0.241455,482
24202800,9998,0.995239,-0.220337,0.253662,491
24212787,9987,0.997314,-0.219482,0.263916,487
24222782,9995,1.000366,-0.223999,0.273560,492
24232810,10028,1.019287,-0.216919,0.278931,493
24242810,10000,1.044922,-0.206421,0.281982,501
24252791,9981,1.081055,-0.193359,0.289917,504
24282966,30175,1.208862,-0.170288,0.362549,504
24288065,5099,0.000000,0.000000,0.000000,495
24292306,4241,1.156616,-0.180542,0.367188,496
24297817,5511,0.000000,0.000000,0.000000,495
24302800,4983,1.057861,-0.182861,0.362305,488
24312809,10009,0.954346,-0.169434,0.355835,489
24322818,10009,0.867676,-0.144287,0.352051,490
24332792,9974,0.786865,-0.062378,0.351563,495
24342783,9991,0.796631,-0.028320,0.361084,501
24352809,10026,0.824585,-0.007446,0.375122,512
24362812,10003,0.856934,-0.004272,0.386597,521
24372811,9999,0.883301,-0.008789,0.393677,529
24382809,9998,0.901001,-0.017456,0.398193,536
24392789,9980,0.932861,-0.054565,0.405029,540
24402790,10001,0.947876,-0.083984,0.403442,540
24412799,10009,0.953613,-0.114868,0.400391,532
24422787,9988,0.952881,-0.144287,0.394531,529
24432793,10006,0.942139,-0.167725,0.387939,519
24442796,10003,0.916260,-0.183472,0.369507,513
24452789,9993,0.915649,-0.173706,0.362305,512
24462791,10002,0.920044,-0.159424,0.359619,501
24472785,9994,0.927979,-0.151611,0.358643,500
24482836,10051,0.933594,-0.151978,0.359131,496
24492793,9957,0.937622,-0.158447,0.357178,489
24502785,9992,0.932861,-0.169189,0.353394,484
24512806,10021,0.926636,-0.171265,0.350220,490
24522785,9979,0.925659,-0.171387,0.341553,487
24532805,10020,0.925903,-0.171021,0.332275,484
24542793,9988,0.923096,-0.169434,0.320557,485
24552807,10014,0.910156,-0.164307,0.303101,496
24564071,11264,0.902100,-0.166748,0.296509,498
24572795,8724,0.897217,-0.168823,0.294556,498
24582809,10014,0.891602,-0.170532,0.294678,501
24592794,9985,0.885010,-0.173828,0.290405,501
24602782,9988,0.880127,-0.177124,0.281616,502
24612810,10028,0.880005,-0.176147,0.277100,506
24622788,9978,0.875122,-0.173584,0.272827,506
24632793,10005,0.873535,-0.171265,0.269897,514
24642785,9992,0.872192,-0.166382,0.266479,512
24652807,10022,0.869141,-0.161255,0.264893,513
24662804,9997,0.864502,-0.150146,0.266724,512
24672798,9994,0.857910,-0.147095,0.271729,515
24682804,10006,0.851929,-0.145508,0.275757,511
24692796,9992,0.848511,-0.143188,0.277710,515
24702797,10001,0.848633,-0.140381,0.279297,511
24712806,10009,0.850830,-0.141724,0.283325,512
24722790,9984,0.854126,-0.144531,0.284668,506
24732810,10020,0.855835,-0.147095,0.287720,510
24742807,9997,0.853882,-0.146851,0.290771,510
24752792,9985,0.855469,-0.149292,0.293457,506
24762789,9997,0.862427,-0.150513,0.295776,511
24772788,9999,0.902344,-0.160156,0.300171,510
24782810,10022,0.930298,-0.167358,0.302368,509
24792784,9974,0.957886,-0.174316,0.304932,510
24802799,10015,0.982910,-0.180054,0.308960,508
24812798,9999,1.000000,-0.182495,0.312866,504
24822794,9996,1.010864,-0.185425,0.317383,504
24832792,9998,1.005493,-0.191406,0.316650,504
24842807,10015,0.995850,-0.202759,0.310425,503
24852795,9988,0.982666,-0.216675,0.303833,502
24862798,10003,0.971069,-0.233521,0.298584,501
24872793,9995,0.965576,-0.245972,0.296387,503
24882806,10013,0.953735,-0.253662,0.298706,509
24892785,9979,0.951782,-0.253418,0.302368,514
24902794,10009,0.960449,-0.259033,0.304321,525
24912804,10010,0.974854,-0.266602,0.299194,522
24922800,9996,0.999756,-0.279297,0.296997,523
24932791,9991,1.032715,-0.324219,0.310181,529
24942783,9992,1.040649,-0.346802,0.323364,533
24952802,10019,1.044067,-0.365601,0.333618,532
24962811,10009,1.041992,-0.376221,0.332520,532
24972791,9980,1.024414,-0.366699,0.326050,528
24982788,9997,1.001099,-0.309692,0.317749,522
24992797,10009,0.963623,-0.282593,0.321411,521
25002808,10011,0.933594,-0.266235,0.329102,518
25012822,10014,0.902954,-0.264648,0.342163,512
25022796,9974,0.877808,-0.272461,0.359131,511
25032822,10026,0.868042,-0.285156,0.372437,514
25042807,9985,0.888062,-0.317383,0.376099,521
25052797,9990,0.898437,-0.321045,0.362305,524
25062782,9985,0.902710,-0.320190,0.342896,520
25072802,10020,0.903442,-0.311523,0.319336,521
25082796,9994,0.898193,-0.300903,0.298706,520
25092809,10013,0.880249,-0.274048,0.278198,518
25102782,9973,0.871338,-0.268311,0.277344,518
25112803,10021,0.869141,-0.270264,0.277710,515
25122790,9987,0.878296,-0.278320,0.276733,514
25132802,10012,0.899536,-0.288452,0.276855,512
25142810,10008,0.924316,-0.301025,0.274414,508
25152801,9991,0.949585,-0.306152,0.255493,505
25162800,9999,0.947266,-0.299072,0.243774,506
25172803,10003,0.939087,-0.288452,0.236084,500
25182831,10028,0.933716,-0.273926,0.232544,499
25192803,9972,0.932129,-0.260986,0.229004,499
25202827,10024,0.944580,-0.247314,0.229126,503
25212795,9968,0.951416,-0.243896,0.228882,506
25222810,10015,0.957153,-0.241333,0.230713,508
25232790,9980,0.960205,-0.236450,0.235596,506
25242790,10000,0.965698,-0.232666,0.239014,507
25252797,10007,0.965698,-0.222168,0.223755,516
25262795,9998,0.942017,-0.202026,0.215698,517
25272784,9989,0.932617,-0.196777,0.211670,521
25282799,10015,0.923462,-0.191406,0.209473,524
25292808,10009,0.918213,-0.185791,0.210327,526
25302802,9994,0.915039,-0.181763,0.212280,528
25312791,9989,0.919189,-0.187866,0.215210,529
25322783,9992,0.925171,-0.194336,0.219604,526
25332793,10010,0.927124,-0.203491,0.223267,529
25342812,10019,0.928345,-0.210205,0.225952,522
25352800,9988,0.924316,-0.215332,0.225830,522
25362838,10038,0.959351,-0.223022,0.224731,528
25376554,13716,0.975830,-0.228271,0.221558,525
25382796,6242,1.017212,-0.235962,0.220459,519
25392793,9997,1.063477,-0.244751,0.222412,522
25402804,10011,1.103516,-0.253296,0.228271,520
25412801,9997,1.129761,-0.264771,0.239014,517
25422799,9998,1.106079,-0.274536,0.278320,515
25432802,10003,1.047363,-0.270630,0.295654,512
25442809,10007,0.979126,-0.255371,0.309204,512
25452798,9989,0.900757,-0.238281,0.324097,512
25462810,10012,0.827271,-0.224365,0.333740,518
25472796,9986,0.734985,-0.201294,0.341553,516
25482791,9995,0.725952,-0.198242,0.343872,525
25492784,9993,0.737305,-0.205078,0.347168,530
25502783,9999,0.775757,-0.218750,0.349854,533
25512791,10008,0.838867,-0.234131,0.351929,536
25522808,10017,0.891113,-0.246704,0.356201,530
25532792,9984,0.988281,-0.270874,0.363647,531
25542819,10027,1.006714,-0.278687,0.368774,527
25552802,9983,1.023315,-0.274902,0.375244,520
25562793,9991,1.014893,-0.264404,0.377319,512
25572795,10002,1.007813,-0.247070,0.376831,506
25582798,10003,1.003540,-0.217773,0.380737,505
25592796,9998,0.997559,-0.212158,0.376587,510
25602794,9998,0.977173,-0.197998,0.375854,511
25612794,10000,0.977783,-0.199829,0.380981,505
25622811,10017,0.966797,-0.197632,0.385376,509
25632783,9972,0.958374,-0.206787,0.392822,510
25642791,10008,0.932251,-0.211548,0.388550,503
25652795,10004,0.917480,-0.204224,0.381104,510
25662789,9994,0.909790,-0.210815,0.368408,504
25672804,10015,0.903198,-0.217896,0.356812,509
25682794,9990,0.910034,-0.192749,0.355347,500
25692807,10013,0.906738,-0.209839,0.340820,507
25702808,10001,0.904175,-0.225708,0.343994,505
25712804,9996,0.914673,-0.227905,0.345337,501
25722790,9986,0.928223,-0.233032,0.341064,495
25732836,10046,0.943237,-0.227661,0.337524,492
25742798,9962,0.952637,-0.193237,0.335571,484
25752828,10030,0.972412,-0.199097,0.340210,483
25762792,9964,0.975586,-0.194946,0.345947,490
25772797,10005,0.973022,-0.188843,0.349243,490
25782799,10002,0.971680,-0.183960,0.354736,490
25792802,10003,0.947266,-0.182983,0.360107,482
25802792,9990,0.934326,-0.125854,0.380249,494
25812796,10004,0.930176,-0.152466,0.372925,495
25822788,9992,0.915649,-0.215210,0.357178,495
25832789,10001,0.927124,-0.226562,0.356445,499
25842786,9997,0.936401,-0.193604,0.349609,502
25852803,10017,0.927734,-0.188354,0.339600,504
25862794,9991,0.914917,-0.195435,0.345703,497
25872784,9990,0.900146,-0.191528,0.357056,505
25882790,10006,0.887085,-0.191406,0.365967,504
25892787,9997,0.880249,-0.190308,0.369385,506
25902796,10009,0.874878,-0.197144,0.367920,503
25912791,9995,0.864990,-0.215820,0.354858,505
25922783,9992,0.863037,-0.220825,0.348145,495
25932822,10039,0.859497,-0.216187,0.343994,494
25942785,9963,0.854858,-0.206543,0.345215,502
25952792,10007,0.849487,-0.194702,0.345337,499
25962793,10001,0.844360,-0.180542,0.350098,494
25972782,9989,0.840576,-0.175293,0.352173,499
25982807,10025,0.839844,-0.173096,0.353149,498
26012438,29631,0.836792,-0.175049,0.341797,501
26018048,5610,0.834351,-0.177490,0.336060,492
26023407,5359,0.830688,-0.178101,0.330078,499
26028645,5238,0.000000,0.000000,0.000000,495
26032990,4345,0.825439,-0.182129,0.325195,502
26056311,23321,0.801758,-0.190674,0.318970,502
26064304,7993,0.000000,0.000000,0.000000,508
26069906,5602,0.789551,-0.191895,0.321289,504
26076713,6807,0.787720,-0.197021,0.321655,502
26092764,16051,0.882202,-0.219971,0.308472,517
26098315,5551,0.000000,0.000000,0.000000,516
26102784,4469,0.957520,-0.230103,0.307739,518
26112799,10015,1.020508,-0.235107,0.316406,519
26122788,9989,1.064087,-0.233765,0.329224,525
26132823,10035,1.094116,-0.221191,0.351074,527
26142798,9975,1.081177,-0.218994,0.353027,528
26152784,9986,1.061890,-0.220215,0.348267,526
26162803,10019,1.043457,-0.218750,0.342651,524
26172807,10004,1.019287,-0.215210,0.342163,526
26182808,10001,0.961182,-0.201416,0.342407,527
26192785,9977,0.933105,-0.192017,0.338501,524
26202787,10002,0.917603,-0.185669,0.332153,520
26212791,10004,0.911255,-0.180786,0.324829,520
26222806,10015,0.909180,-0.180908,0.316772,526
26232809,10003,0.906860,-0.187012,0.308838,521
26242796,9987,0.915161,-0.213257,0.301270,528
26252808,10012,0.928101,-0.228271,0.289185,520
26262790,9982,0.945557,-0.242187,0.277832,523
26272782,9992,0.959106,-0.249268,0.269409,516
26282808,10026,0.969604,-0.248779,0.264526,519
26292798,9990,0.979736,-0.240479,0.263062,517
26302796,9998,0.973999,-0.233154,0.263794,514
26312786,9990,0.963135,-0.231201,0.264282,516
26322813,10027,0.952881,-0.225586,0.265747,509
26332783,9970,0.942871,-0.216919,0.267090,512
26342819,10036,0.934082,-0.197632,0.273438,517
26352783,9964,0.924805,-0.188232,0.275757,510
26362782,9999,0.923340,-0.183594,0.276855,520
26372806,10024,0.918457,-0.181396,0.275146,519
26382808,10002,0.911255,-0.181396,0.270630,516
26392809,10001,0.905884,-0.183105,0.263916,518
26402790,9981,0.908325,-0.191650,0.258789,522
26412785,9995,0.913696,-0.200806,0.257446,521
26422795,10010,0.915649,-0.208374,0.255737,516
26432782,9987,0.915894,-0.218140,0.254272,517
26442785,10003,0.913330,-0.227417,0.251099,516
26452790,10005,0.904175,-0.240845,0.243408,512
26462798,10008,0.901001,-0.246094,0.240356,510
26472795,9997,0.897461,-0.247681,0.238647,499
26482798,10003,0.900024,-0.246704,0.237183,505
26492790,9992,0.907593,-0.243530,0.239014,495
26502784,9994,0.915771,-0.236572,0.239258,502
26512794,10010,0.934937,-0.221924,0.241699,502
26522807,10013,0.943970,-0.217285,0.241699,497
26532792,9985,0.948364,-0.213135,0.243042,504
26542798,10006,0.950562,-0.209351,0.243896,506
26552792,9994,0.957520,-0.205200,0.245361,509
26562789,9997,0.968384,-0.203125,0.246582,513
26572782,9993,0.970947,-0.203613,0.246704,514
26582800,10018,0.976685,-0.206299,0.247192,516
26592790,9990,0.984253,-0.211914,0.250000,517
26602797,10007,0.990356,-0.217285,0.250122,518
26612802,10005,0.987915,-0.223267,0.246338,519
26622806,10004,0.950806,-0.224365,0.243896,517
26632783,9977,0.930542,-0.221069,0.243896,522
26642789,10006,0.917236,-0.212280,0.243652,523
26652801,10012,0.909790,-0.204102,0.245605,518
26662818,10017,0.908936,-0.196045,0.248901,529
26672807,9989,0.931519,-0.186035,0.255981,533
26682807,10000,0.952393,-0.188721,0.253906,530
26692797,9990,0.967407,-0.193604,0.251709,538
26702801,10004,0.974487,-0.199219,0.249146,545
26712800,9999,0.978882,-0.201538,0.247925,538
26722804,10004,0.979858,-0.201294,0.247437,538
26732786,9982,0.980225,-0.199219,0.250610,529
26742786,10000,0.979370,-0.196289,0.252930,531
26752805,10019,0.975952,-0.196045,0.255981,523
26762792,9987,0.973145,-0.195801,0.255493,528
26772783,9991,0.967285,-0.194580,0.256958,529
26782811,10028,0.973877,-0.195068,0.254761,530
26792805,9994,1.000366,-0.199585,0.253296,524
26802794,9989,1.049194,-0.205444,0.250732,533
26812792,9998,1.114136,-0.212402,0.249756,527
26822782,9990,1.179810,-0.219849,0.248657,524
26832833,10051,1.244019,-0.223267,0.260986,526
26842786,9953,1.208252,-0.213379,0.270752,516
26852794,10008,1.136230,-0.195068,0.279175,519
26862821,10027,1.046997,-0.172363,0.285889,510
26872807,9986,0.961060,-0.146606,0.292725,514
26882796,9989,0.878296,-0.117920,0.299805,521
26892784,9988,0.794312,-0.079590,0.322388,520
26902810,10026,0.780518,-0.077515,0.327148,525
26912803,9993,0.773437,-0.083496,0.327637,529
26922805,10002,0.776001,-0.092529,0.328003,530
26932795,9990,0.781372,-0.098633,0.326172,529
26942790,9995,0.810547,-0.123047,0.323120,530
26952811,10021,0.836548,-0.135864,0.319092,524
26962806,9995,0.863403,-0.151123,0.309692,515
26972790,9984,0.878418,-0.158691,0.292603,507
26982803,10013,0.895020,-0.167847,0.278442,496
26992800,9997,0.898071,-0.182739,0.263550,481
27002811,10011,0.911743,-0.166260,0.257568,476
27012784,9973,0.926025,-0.150635,0.262817,471
27022792,10008,0.936768,-0.143677,0.272949,470
27032792,10000,0.947876,-0.134155,0.288452,469
27042784,9992,0.965576,-0.141479,0.301147,469
27052808,10024,0.982544,-0.139893,0.335693,471
27062810,10002,0.995239,-0.124146,0.354370,478
27072785,9975,0.998169,-0.121704,0.354736,476
27082787,10002,0.993286,-0.123169,0.346924,486
27092806,10019,0.981689,-0.111816,0.333374,494
27102787,9981,0.977539,-0.065918,0.307983,491
27112803,10016,0.943604,-0.077881,0.300659,500
27122802,9999,0.939087,-0.066650,0.302490,502
27132796,9994,0.944824,-0.047729,0.303345,501
27142796,10000,0.933228,-0.032837,0.298828,507
27152810,10014,0.936890,-0.015869,0.298584,509
27162812,10002,0.909424,-0.018799,0.291382,503
27172789,9977,0.906494,-0.019653,0.291016,496
27182784,9995,0.900635,-0.014526,0.288330,501
27192840,10056,0.896118,-0.012085,0.281372,497
27202782,9942,0.902954,-0.009644,0.276367,500
27212784,10002,0.915161,-0.015259,0.263184,497
27222807,10023,0.919312,-0.021729,0.256836,497
27232801,9994,0.922729,-0.035767,0.253540,497
27242790,9989,0.922974,-0.049683,0.248901,499
27252794,10004,0.927368,-0.063599,0.247681,500
27262788,9994,0.927856,-0.078613,0.246582,502
27272788,10000,0.931396,-0.099487,0.240601,507
27282799,10011,0.933472,-0.105469,0.237427,507
27292811,10012,0.938721,-0.108887,0.229736,508
27302804,9993,0.952393,-0.115601,0.216064,519
27312800,9996,0.969727,-0.123779,0.206177,523
27322786,9986,0.990967,-0.143311,0.200195,525
27332805,10019,0.996338,-0.148437,0.208130,526
27342800,9995,1.002808,-0.161987,0.220337,526
27352794,9994,1.022095,-0.183105,0.225464,528
27362805,10011,1.039551,-0.206665,0.230713,519
27372815,10010,1.049194,-0.231567,0.230469,521
27382793,9978,1.019775,-0.255981,0.226685,514
27392788,9995,0.990845,-0.255005,0.225098,510
27402795,10007,0.953369,-0.246826,0.224609,512
27412799,10004,0.918091,-0.234985,0.231689,503
27422796,9997,0.889160,-0.222412,0.246460,513
27432812,10016,0.886963,-0.234619,0.255371,513
27442803,9991,0.921875,-0.255127,0.240234,518
27452800,9997,0.972778,-0.287964,0.220947,513
27462812,10012,1.023682,-0.317017,0.204834,520
27472795,9983,1.061890,-0.328857,0.194946,519
27482804,10009,1.074463,-0.314575,0.194824,510
27492800,9996,1.056763,-0.298218,0.200195,509
27502790,9990,1.037720,-0.284790,0.204224,506
27512788,9998,1.017578,-0.275635,0.207764,504
27522793,10005,1.004028,-0.264526,0.212891,505
27532801,10008,0.998169,-0.254028,0.217529,503
27542809,10008,0.941406,-0.220215,0.229736,504
27552835,10026,0.913208,-0.205078,0.239502,512
27562804,9969,0.886475,-0.198364,0.247681,511
27572804,10000,0.863159,-0.201050,0.254272,523
27582787,9983,0.847412,-0.209717,0.259277,518
27592809,10022,0.837891,-0.222778,0.260742,525
27602783,9974,0.840454,-0.226440,0.260742,523
27612794,10011,0.849854,-0.235107,0.258911,521
27622800,10006,0.856689,-0.244751,0.254761,511
27632808,10008,0.862305,-0.254028,0.247070,508
27642802,9994,0.872070,-0.263062,0.240967,497
27652793,9991,0.888550,-0.275635,0.234009,488
27662797,10004,0.894653,-0.273193,0.240234,472
27672804,10007,0.900024,-0.265869,0.252930,473
27682784,9980,0.914429,-0.259521,0.263428,463
27692786,10002,0.931030,-0.260376,0.268311,457
27702788,10002,0.967407,-0.277710,0.267334,461
27712799,10011,0.973999,-0.285278,0.264771,461
27722789,9990,0.974731,-0.288818,0.263062,462
27732810,10021,0.975586,-0.290039,0.260620,469
27742807,9997,0.975098,-0.288208,0.259155,474
27752802,9995,0.977173,-0.282959,0.260254,479
27762783,9981,0.977661,-0.268433,0.261108,486
27772790,10007,0.973755,-0.263062,0.258911,499
27782801,10011,0.970581,-0.260986,0.254761,508
27792805,10004,0.966553,-0.262451,0.248291,510
27802798,9993,0.963745,-0.264771,0.240356,520
27812803,10005,0.976685,-0.264038,0.229736,530
27822793,9990,0.982666,-0.262207,0.228516,541
27832791,9998,0.988892,-0.257935,0.229736,538
27842811,10020,0.994873,-0.253540,0.234497,533
27852795,9984,0.997925,-0.249756,0.239136,545
27862809,10014,0.998657,-0.246460,0.241821,549
27872794,9985,0.999756,-0.247925,0.244019,552
27882785,9991,0.998657,-0.250122,0.246094,553
27892806,10021,0.995239,-0.251953,0.246948,550
27902814,10008,0.989380,-0.252441,0.246948,552
27912800,9986,0.983765,-0.255493,0.248413,552
27922785,9985,0.974365,-0.256836,0.253784,545
27932814,10029,0.971313,-0.259033,0.255859,544
27942811,9997,0.968140,-0.264648,0.259766,542
27952792,9981,0.964355,-0.269287,0.263306,534
27962803,10011,0.962280,-0.273560,0.264893,529
27972804,10001,0.955322,-0.275635,0.267334,518
27982788,9984,0.950073,-0.272949,0.269409,514
27992804,10016,0.946411,-0.274170,0.270996,511
28002799,9995,0.947510,-0.274170,0.271240,505
28012785,9986,0.951416,-0.276733,0.270142,496
28022797,10012,0.953613,-0.279541,0.270142,494
28032788,9991,0.953735,-0.277954,0.270142,499
28042793,10005,0.941406,-0.270386,0.268799,494
28052810,10017,0.930786,-0.262451,0.268433,498
28062795,9985,0.921143,-0.250122,0.269165,498
28072793,9998,0.917236,-0.235352,0.272217,497
28082797,10004,0.923828,-0.208496,0.272461,497
28092791,9994,0.941162,-0.201538,0.274170,497
28102802,10011,0.962891,-0.197266,0.275757,497
28112792,9990,0.981934,-0.194458,0.276978,502
28122785,9993,0.982422,-0.187012,0.270020,494
28132792,10007,0.980835,-0.179321,0.253052,502
28142788,9996,0.973755,-0.141357,0.227051,503
28152806,10018,0.982666,-0.119385,0.211670,508
28162791,9985,1.003662,-0.109131,0.201782,510
28172809,10018,1.044312,-0.110107,0.192627,509
28182800,9991,1.090210,-0.119629,0.186768,517
28192796,9996,1.143677,-0.128052,0.182983,518
28202804,10008,1.125610,-0.114502,0.180298,513
28212785,9981,1.083008,-0.089722,0.182861,512
28222805,10020,1.027100,-0.054199,0.190674,515
28232811,10006,0.965088,-0.013550,0.201294,515
28242793,9982,0.901123,0.051880,0.229614,519
28252783,9990,0.816895,0.068848,0.235229,522
28262807,10024,0.810791,0.066895,0.244629,535
28272810,10003,0.833740,0.044312,0.248901,536
28282789,9979,0.864746,0.013062,0.258545,534
28292794,10005,0.914673,-0.012695,0.269775,528
28302788,9994,0.994019,-0.052490,0.279053,516
28312801,10013,1.014526,-0.059204,0.278809,500
28324550,11749,1.020630,-0.062134,0.278687,497
28332787,8237,1.014038,-0.056885,0.282593,484
28342795,10008,1.004395,-0.045532,0.291382,479
28352786,9991,1.000732,-0.025757,0.326050,476
28362802,10016,1.001099,-0.027588,0.345825,473
28372789,9987,1.003418,-0.038208,0.356079,473
28382789,10000,1.004395,-0.056396,0.361694,476
28392810,10021,1.004150,-0.075928,0.365356,478
28402791,9981,1.006836,-0.090088,0.364868,482
28412804,10013,1.004639,-0.099609,0.358765,487
28422807,10003,0.998413,-0.093018,0.354980,486
28432806,9999,0.979126,-0.075562,0.352783,499
28442812,10006,0.954590,-0.054810,0.346313,499
28452806,9994,0.928467,-0.039673,0.338379,513
28462795,9989,0.885742,-0.036987,0.323486,522
28472785,9990,0.871094,-0.036743,0.321045,528
28482788,10003,0.859863,-0.037720,0.319946,535
28492799,10011,0.855591,-0.044067,0.316772,543
28502800,10001,0.856689,-0.054687,0.314697,545
28512812,10012,0.864624,-0.069214,0.311035,544
28522802,9990,0.882690,-0.087158,0.309204,553
28532792,9990,0.887817,-0.091797,0.309082,544
28542801,10009,0.890015,-0.097900,0.309204,541
28552790,9989,0.892334,-0.105835,0.307495,539
28562784,9994,0.893799,-0.109375,0.307129,534
28572807,10023,0.878174,-0.105469,0.316284,527
28582785,9978,0.868164,-0.102417,0.317749,521
28592806,10021,0.858032,-0.105591,0.321045,516
28602801,9995,0.849609,-0.113647,0.316772,512
28612807,10006,0.842529,-0.122925,0.309814,506
28622782,9975,0.835693,-0.130737,0.297729,501
28632811,10029,0.825928,-0.130493,0.294800,496
28642803,9992,0.820312,-0.126343,0.292603,494
28652807,10004,0.816895,-0.122803,0.293945,490
28662802,9995,0.812988,-0.124268,0.297363,488
28682877,20075,0.794678,-0.135742,0.310913,487
28688526,5649,0.000000,0.000000,0.000000,487
28692905,4379,0.796631,-0.140259,0.315063,485
28702790,9885,0.817139,-0.147339,0.314697,487
28712798,10008,0.866943,-0.157959,0.312866,480
28722798,10000,0.937256,-0.168579,0.309937,490
28732801,10003,1.076172,-0.181519,0.317139,494
28742783,9982,1.130005,-0.182739,0.326172,491
28752794,10011,1.147095,-0.182251,0.333618,492
28762808,10014,1.138062,-0.179077,0.336182,483
28772800,9992,1.106567,-0.171875,0.328735,483
28782785,9985,1.070557,-0.167969,0.318481,490
28792788,10003,1.003296,-0.172119,0.268311,490
28802808,10020,0.999390,-0.171997,0.247314,495
28812798,9990,1.004883,-0.171143,0.234375,500
28822810,10012,1.016357,-0.170288,0.226562,504
28832803,9993,1.021973,-0.172241,0.225464,501
28842811,10008,1.004761,-0.183838,0.228149,511
28852810,9999,0.992676,-0.187744,0.227173,508
28862799,9989,0.976318,-0.191528,0.223145,517
28872809,10010,0.962158,-0.193359,0.217407,522
28882810,10001,0.951050,-0.186646,0.213745,526
28892795,9985,0.951050,-0.181396,0.206055,527
28902790,9995,0.963257,-0.169800,0.192139,528
28912794,10004,0.968506,-0.164917,0.187378,531
28922798,10004,0.968140,-0.162476,0.185547,525
28932790,9992,0.965332,-0.161621,0.185669,524
28942797,10007,0.961182,-0.158569,0.189575,529
28952783,9986,0.951782,-0.147095,0.195435,526
28962795,10012,0.947388,-0.142700,0.199219,526
28972796,10001,0.944214,-0.139526,0.202271,520
28982786,9990,0.937866,-0.136719,0.202759,524
28992793,10007,0.932983,-0.136841,0.200684,517
29002800,10007,0.932129,-0.141602,0.197144,514
29012799,9999,0.931274,-0.159546,0.194092,519
29022808,10009,0.935669,-0.166504,0.192261,512
29032809,10001,0.939819,-0.169800,0.191040,512
29042807,9998,0.946411,-0.173706,0.191040,516
29052789,9982,0.953735,-0.177734,0.189819,513
29062795,10006,0.960815,-0.179199,0.192749,520
29072789,9994,0.958740,-0.178467,0.193481,516
29082787,9998,0.956665,-0.176025,0.194824,524
29092785,9998,0.951294,-0.170288,0.196655,523
29102800,10015,0.946411,-0.160889,0.197876,526
29112797,9997,0.942139,-0.143799,0.200439,528
29122799,10002,0.937256,-0.139038,0.201294,528
29132801,10002,0.936035,-0.135986,0.198608,527
29142785,9984,0.936035,-0.135010,0.196411,528
29152803,10018,0.935181,-0.136841,0.194336,526
29162794,9991,0.933594,-0.140381,0.195312,534
29172810,10016,0.930786,-0.151489,0.200439,533
29182792,9982,0.931885,-0.157471,0.201660,531
29192810,10018,0.932129,-0.162476,0.200806,529
29202783,9973,0.935547,-0.168457,0.200928,524
29212791,10008,0.939453,-0.173462,0.201782,521
29222796,10005,0.955933,-0.182129,0.205811,514
29232803,10007,0.961670,-0.185913,0.208374,509
29245260,12457,0.964600,-0.188232,0.210815,510
29252785,7525,0.962524,-0.190674,0.213623,509
29262792,10007,0.958740,-0.193848,0.216187,506
29272789,9997,0.955688,-0.196167,0.218384,500
29282808,10019,0.944336,-0.195557,0.221802,502
29292786,9978,0.939941,-0.193970,0.223877,504
29302801,10015,0.934204,-0.195679,0.225220,503
29312801,10000,0.931885,-0.195312,0.228271,509
29322802,10001,0.930786,-0.196655,0.229126,507
29332832,10030,0.940552,-0.195190,0.229492,509
29342789,9957,0.949951,-0.194580,0.231323,512
29352799,10010,0.961182,-0.193359,0.235107,520
29362822,10023,0.973511,-0.191162,0.239746,520
29372806,9984,0.992065,-0.192871,0.242676,523
29382796,9990,1.012695,-0.200073,0.244629,526
29392791,9995,1.057983,-0.217896,0.249268,525
29402803,10012,1.066406,-0.217651,0.251465,519
29412807,10004,1.062866,-0.212402,0.255127,524
29422790,9983,1.053101,-0.202515,0.260010,527
29432793,10003,1.041626,-0.190796,0.267456,528
29442804,10011,1.035156,-0.174438,0.286255,521
29452785,9981,1.042236,-0.171265,0.299683,521
29462783,9998,1.059204,-0.175415,0.310425,528
29472809,10026,1.083252,-0.181030,0.318237,529
29482795,9986,1.099487,-0.177490,0.320679,529
29492796,10001,1.097290,-0.148682,0.331055,529
29502809,10013,1.019043,-0.153687,0.350708,526
29512782,9973,0.974365,-0.166626,0.369629,518
29522807,10025,0.930054,-0.179565,0.385254,526
29532790,9983,0.895874,-0.192383,0.399658,516
29542790,10000,0.877197,-0.199219,0.404907,523
29552793,10003,0.893677,-0.205811,0.400513,524
29562797,10004,0.919678,-0.207153,0.391235,523
29572811,10014,0.952393,-0.225342,0.383423,526
29582784,9973,0.973755,-0.234253,0.367554,528
29592811,10027,0.987427,-0.238403,0.359863,526
29602805,9994,0.980591,-0.219604,0.351929,524
29612806,10001,0.958862,-0.214722,0.348145,526
29622796,9990,0.947998,-0.216797,0.350708,533
29632806,10010,0.932007,-0.222290,0.347290,540
29642796,9990,0.922852,-0.223511,0.341309,547
29652792,9996,0.921753,-0.215210,0.340454,554
29662800,10008,0.895508,-0.196899,0.342163,550
29709974,47174,0.839966,-0.212646,0.346191,553
29715389,5415,0.829224,-0.221924,0.348389,554
29720659,5270,0.000000,0.000000,0.000000,557
29724719,4060,0.828369,-0.229614,0.348999,554
29730090,5371,0.830933,-0.235352,0.348389,553
29735401,5311,0.000000,0.000000,0.000000,548
29739347,3946,0.838135,-0.234131,0.346069,554
29744593,5246,0.000000,0.000000,0.000000,548
29752801,8208,0.844971,-0.237793,0.343506,537
29762797,9996,0.847778,-0.240112,0.336548,532
29772810,10013,0.863647,-0.249634,0.326172,524
29782799,9989,0.871338,-0.253174,0.318604,509
29792801,10002,0.879639,-0.252197,0.311768,499
29805922,13121,0.896240,-0.253906,0.305664,502
29812787,6865,0.000000,0.000000,0.000000,497
29822795,10008,0.914551,-0.244507,0.312378,488
29832809,10014,0.924561,-0.241821,0.317871,494
29842786,9977,0.930054,-0.235474,0.320435,489
29852797,10011,0.931030,-0.230591,0.320923,485
29862828,10031,0.928711,-0.227539,0.318726,489
29872799,9971,0.927246,-0.235352,0.306030,491
29882807,10008,0.927734,-0.234741,0.294556,490
29892822,10015,0.933716,-0.232056,0.283325,504
29902786,9964,0.942139,-0.229248,0.276489,505
29912794,10008,0.946411,-0.227173,0.274292,502
29922795,10001,0.946167,-0.220093,0.275146,505
29932807,10012,0.942505,-0.200928,0.279175,509
29942783,9976,0.946411,-0.197632,0.278809,510
29952804,10021,0.952026,-0.198975,0.278687,509
29965453,12649,0.959961,-0.199097,0.277710,510
29972806,7353,0.975220,-0.198975,0.275146,506
29982793,9987,1.014526,-0.194214,0.271240,502
29992803,10010,1.033325,-0.194336,0.270752,508
30002784,9981,1.045288,-0.196533,0.273682,507
30012794,10010,1.046265,-0.195435,0.280151,505
30022802,10008,1.033691,-0.190430,0.283936,502
30032830,10028,1.016479,-0.185547,0.287476,510
30042803,9973,0.969482,-0.181030,0.295532,508
30052806,10003,0.945312,-0.184814,0.293457,511
30062789,9983,0.926758,-0.192871,0.288086,507
30072789,10000,0.913452,-0.202515,0.277954,512
30102974,30185,0.943359,-0.231689,0.232910,508
30108261,5287,0.000000,0.000000,0.000000,510
30112239,3978,0.966797,-0.236328,0.234131,508
30117492,5253,0.000000,0.000000,0.000000,501
30122789,5297,0.991089,-0.239258,0.238037,507
30132783,9994,1.008789,-0.244751,0.242920,505
30142806,10023,1.026611,-0.250000,0.244995,501
30152801,9995,1.056763,-0.260254,0.237305,498
30162787,9986,1.071289,-0.267334,0.228516,498
30172807,10020,1.075562,-0.269653,0.223389,498
30182783,9976,1.064697,-0.263306,0.219971,498
30192798,10015,1.040894,-0.251587,0.215820,504
30202801,10003,0.989624,-0.225708,0.214355,511
30212804,10003,0.958252,-0.216553,0.215454,517
30222793,9989,0.929199,-0.209229,0.214966,535
30232800,10007,0.905029,-0.202515,0.213867,540
30242811,10011,0.881226,-0.200073,0.215210,549
30252786,9975,0.861938,-0.199707,0.211548,550
30262797,10011,0.830200,-0.196533,0.209839,562
30272789,9992,0.820190,-0.195801,0.211792,564
30282783,9994,0.814575,-0.194946,0.213745,562
30292796,10013,0.814209,-0.198730,0.218506,555
30302783,9987,0.820923,-0.202393,0.222046,541
30312799,10016,0.837280,-0.217285,0.220947,535
30322796,9997,0.848633,-0.228882,0.216797,520
30366540,43744,0.876221,-0.254883,0.210571,464
30389971,23431,0.912109,-0.251831,0.219116,447
30395203,5232,0.000000,0.000000,0.000000,439
30399372,4169,0.920288,-0.249878,0.220337,440
30404679,5307,0.000000,0.000000,0.000000,446
30408875,4196,0.923828,-0.248291,0.223022,447
30414154,5279,0.925415,-0.245483,0.225830,450
30419401,5247,0.000000,0.000000,0.000000,456
30423482,4081,0.927002,-0.243164,0.227905,453
30428676,5194,0.000000,0.000000,0.000000,456
30432784,4108,0.928101,-0.238403,0.229980,461
30442807,10023,0.931519,-0.234253,0.232788,471
30452800,9993,0.937134,-0.229492,0.234619,476
30462800,10000,0.942017,-0.227051,0.236938,485
30472790,9990,0.944458,-0.227295,0.246948,497
30482794,10004,0.941895,-0.230225,0.252930,504
30492785,9991,0.933105,-0.233032,0.261108,516
30502785,10000,0.922241,-0.235962,0.268921,521
30512803,10018,0.910522,-0.238892,0.273071,520
30522807,10004,0.898560,-0.241943,0.273071,530
30532795,9988,0.879395,-0.243530,0.267090,527
30542800,10005,0.874146,-0.246704,0.264648,529
30552796,9996,0.872070,-0.249146,0.261597,528
30562801,10005,0.873535,-0.250977,0.256714,526
30572803,10002,0.884644,-0.255127,0.250366,525
30582793,9990,0.918701,-0.263306,0.246948,522
30592798,10005,0.932861,-0.261353,0.252441,518
30602811,10013,0.942627,-0.256470,0.261108,506
30612817,10006,0.948975,-0.252686,0.270508,508
30654386,41569,0.975586,-0.239136,0.284912,503
30660747,6361,0.975464,-0.234497,0.283691,500
30666251,5504,0.000000,0.000000,0.000000,500
30670388,4137,0.984619,-0.231934,0.276367,502
30675761,5373,0.000000,0.000000,0.000000,505
30680190,4429,1.001587,-0.232910,0.269775,506
30685503,5313,1.035400,-0.234741,0.262695,505
30692792,7289,1.079102,-0.238525,0.264038,515
30702786,9994,1.116943,-0.237915,0.276245,513
30712806,10020,1.128662,-0.233032,0.301514,519
30722784,9978,1.106812,-0.223389,0.332275,521
30732786,10002,1.066406,-0.205688,0.354736,523
30742839,10053,0.967041,-0.180542,0.354614,525
30752786,9947,0.935303,-0.181152,0.337891,529
30762799,10013,0.921143,-0.182861,0.322144,532
30772798,9999,0.917847,-0.175659,0.310425,539
30782797,9999,0.914795,-0.156616,0.302246,538
30792791,9994,0.914673,-0.135986,0.293945,538
30824796,32005,0.901855,-0.139038,0.261597,548
30830096,5300,0.913574,-0.145996,0.260986,549
30836100,6004,0.000000,0.000000,0.000000,547
30841308,5208,0.938477,-0.142700,0.260986,544
30847288,5980,0.967773,-0.134888,0.260376,542
30853469,6181,0.997070,-0.130981,0.260376,536
30862799,9330,1.024902,-0.126099,0.260010,525
30872805,10006,1.050049,-0.126099,0.259277,528
30882802,9997,1.071899,-0.127930,0.261475,521
30892801,9999,1.086060,-0.129028,0.265137,515
30902799,9998,1.086304,-0.129517,0.270508,512
30912836,10037,1.061279,-0.133789,0.278442,510
30922787,9951,1.040039,-0.134277,0.281738,506
30932808,10021,1.018555,-0.133911,0.284912,512
30942798,9990,0.998901,-0.134766,0.289307,513
30952796,9998,0.978271,-0.139648,0.292603,519
30962802,10006,0.937256,-0.154907,0.295044,517
30972808,10006,0.921875,-0.161255,0.293579,523
30982796,9988,0.906006,-0.168091,0.291992,521
30995477,12681,0.893188,-0.176025,0.288574,529
31002809,7332,0.883179,-0.181519,0.286255,528
31012808,9999,0.846680,-0.188843,0.284668,527
31022798,9990,0.871094,-0.193726,0.287842,526
31032798,10000,0.866577,-0.200073,0.291016,525
31042784,9986,0.857910,-0.204834,0.298340,524
31052806,10022,0.854492,-0.207031,0.306030,520
31062801,9995,0.855469,-0.210449,0.314453,518
31072802,10001,0.864868,-0.213745,0.329590,511
31084288,11486,0.867187,-0.211060,0.337769,505
31092807,8519,0.868164,-0.207520,0.341675,499
31102786,9979,0.870117,-0.202637,0.345581,500
31112783,9997,0.871460,-0.196289,0.349121,500
31122787,10004,0.864380,-0.180786,0.355957,498
31132806,10019,0.859497,-0.171631,0.360474,498
31142803,9997,0.852905,-0.163452,0.365967,500
31152810,10007,0.849609,-0.157959,0.371826,500
31162806,9996,0.846680,-0.155762,0.376465,502
31172795,9989,0.844238,-0.155151,0.380493,498
31182791,9996,0.836914,-0.159424,0.387451,498
31192786,9995,0.835449,-0.161499,0.391479,506
31257884,65098,0.825928,-0.170898,0.375732,506
31265174,7290,0.000000,0.000000,0.000000,504
31269841,4667,0.831421,-0.169312,0.374023,500
31275211,5370,0.000000,0.000000,0.000000,501
31279562,4351,0.833618,-0.167725,0.371948,494
31284825,5263,0.836304,-0.167603,0.366943,491
31290367,5542,0.000000,0.000000,0.000000,494
31294843,4476,0.837524,-0.167847,0.357422,486
31300316,5473,0.000000,0.000000,0.000000,491
31304496,4180,0.842041,-0.170654,0.348755,493
31333497,29001,0.942139,-0.171875,0.324829,490
31338925,5428,0.000000,0.000000,0.000000,495
31344433,5508,1.029175,-0.174194,0.325317,497
31351061,6628,0.000000,0.000000,0.000000,501
31355556,4495,1.067871,-0.176880,0.322754,496
31362063,6507,1.105591,-0.177124,0.319458,501
31369716,7653,1.131836,-0.173462,0.319702,506
31376620,6904,1.141357,-0.168823,0.315674,507
31383038,6418,0.000000,0.000000,0.000000,502
31392796,9758,1.105347,-0.156494,0.315918,512
31402802,10006,1.067749,-0.143555,0.309448,509
31435187,32385,0.988037,-0.103271,0.279419,532
31441023,5836,0.000000,0.000000,0.000000,529
31445584,4561,0.999390,-0.101318,0.274048,530
31450964,5380,0.000000,0.000000,0.000000,532
31455213,4249,1.010620,-0.107544,0.270264,527
31462788,7575,1.022949,-0.117432,0.265625,533
31472810,10022,1.034302,-0.124146,0.265015,532
31482794,9984,1.039795,-0.124634,0.265381,529
31492801,10007,1.042236,-0.126587,0.259644,522
31514463,21662,1.056030,-0.137329,0.238159,516
31519785,5322,0.000000,0.000000,0.000000,512
31524223,4438,1.058472,-0.129761,0.233887,507
31532788,8565,1.057739,-0.120117,0.230469,507
31542786,9998,1.046021,-0.110352,0.227783,500
31552787,10001,1.036621,-0.103271,0.226685,503
31562796,10009,1.001587,-0.094116,0.229492,501
31572785,9989,0.993530,-0.089355,0.230957,503
31582790,10005,0.987427,-0.084473,0.236084,513
31592821,10031,0.981445,-0.079712,0.242554,520
31602782,9961,0.978882,-0.076538,0.247437,519
31612808,10026,0.961426,-0.086548,0.243530,518
31622803,9995,0.952515,-0.094238,0.235352,522
31632810,10007,0.946167,-0.100098,0.228516,525
31642788,9978,0.942261,-0.107300,0.219238,533
31652787,9999,0.943237,-0.119629,0.213745,532
31662799,10012,0.942749,-0.131836,0.203003,523
31672799,10000,0.943604,-0.147461,0.198242,521
31682789,9990,0.945679,-0.154663,0.195312,523
31692783,9994,0.943970,-0.158447,0.193481,520
31702799,10016,0.944702,-0.163818,0.190796,516
31712803,10004,0.942139,-0.167114,0.190674,511
31722808,10005,0.941528,-0.165894,0.188965,507
31732792,9984,0.941162,-0.167847,0.186035,503
31761210,28418,0.941772,-0.162354,0.179565,500
31767254,6044,0.941895,-0.162598,0.178345,502
31773483,6229,0.945312,-0.164551,0.179443,496
31780088,6605,0.000000,0.000000,0.000000,501
31784579,4491,0.946899,-0.163574,0.179932,506
31792785,8206,0.946533,-0.159302,0.182739,507
31802786,10001,0.945557,-0.157593,0.183105,508
31812786,10000,0.943970,-0.157349,0.185547,504
31822793,10007,0.942627,-0.160889,0.182495,509
31832804,10011,0.944458,-0.164062,0.184082,507
31842799,9995,0.944824,-0.162109,0.185059,512
31852809,10010,0.945801,-0.160889,0.190308,509
31862787,9978,0.944336,-0.161499,0.192139,514
31872795,10008,0.942139,-0.163940,0.196167,517
31882802,10007,0.938110,-0.169922,0.211792,518
31892796,9994,0.932251,-0.172607,0.220581,517
31902786,9990,0.925293,-0.175415,0.229370,519
31912786,10000,0.918701,-0.175537,0.235352,540
31922789,10003,0.918091,-0.176880,0.239502,519
31932818,10029,0.919922,-0.178955,0.242676,527
31942794,9976,0.930298,-0.189575,0.250122,527
31985199,42405,0.987183,-0.204346,0.275024,532
31990691,5492,0.000000,0.000000,0.000000,530
31995551,4860,1.002563,-0.208984,0.277832,521
32002924,7373,1.021606,-0.209229,0.276489,519
32009315,6391,0.000000,0.000000,0.000000,517
32015423,6108,1.041870,-0.207397,0.277222,521
32020994,5571,1.058472,-0.203369,0.277832,520
32026483,5489,0.000000,0.000000,0.000000,513
32032798,6315,1.059570,-0.194824,0.278809,518
32042788,9990,1.049316,-0.178467,0.287842,515
32052808,10020,1.020874,-0.169922,0.289795,520
32062811,10003,1.010986,-0.166138,0.294922,515
32072782,9971,1.010742,-0.166504,0.303589,524
32082801,10019,1.003906,-0.166138,0.313843,528
32092808,10007,1.000610,-0.164917,0.329712,532
32107849,15041,0.969360,-0.166016,0.374878,530
32113555,5706,0.937256,-0.165894,0.401978,529
32122807,9252,0.908447,-0.162598,0.426025,531
32132803,9996,0.879761,-0.152466,0.443481,534
32142787,9984,0.865356,-0.143311,0.451904,542
32182851,40064,0.927490,-0.197266,0.411011,521
32188278,5427,0.934570,-0.209229,0.393066,517
32193634,5356,0.000000,0.000000,0.000000,521
32198346,4712,0.937256,-0.217896,0.378662,515
32203869,5523,0.000000,0.000000,0.000000,513
32208475,4606,0.940430,-0.224121,0.369263,511
32214192,5717,0.941895,-0.229614,0.363892,500
32222806,8614,0.936401,-0.233276,0.363770,501
32232797,9991,0.940308,-0.251709,0.363892,495
32242807,10010,0.946533,-0.259277,0.363892,486
32252787,9980,0.941772,-0.259888,0.360352,487
32262827,10040,0.932129,-0.238159,0.347656,494
32272789,9962,0.918213,-0.226196,0.338989,491
32282798,10009,0.910400,-0.209961,0.335693,500
32292819,10021,0.901611,-0.205566,0.331299,504
32302787,9968,0.893433,-0.190918,0.328857,508
32312785,9998,0.887573,-0.181763,0.331055,522
32322789,10004,0.894775,-0.170654,0.327515,520
32332787,9998,0.902710,-0.180908,0.323120,530
32342798,10011,0.898071,-0.195557,0.315063,529
32352785,9987,0.887085,-0.205322,0.307861,536
32362810,10025,0.879272,-0.204102,0.300293,532
32372803,9993,0.862305,-0.192749,0.298828,533
32382809,10006,0.858521,-0.189087,0.300903,529
32392791,9982,0.859985,-0.184448,0.303223,520
32402807,10016,0.864136,-0.181396,0.304443,527
32412810,10003,0.870239,-0.184814,0.307007,525
32422803,9993,0.874634,-0.208496,0.309570,524
32432823,10020,0.878418,-0.218140,0.310913,523
32442799,9976,0.881470,-0.221558,0.314331,516
32452785,9986,0.886230,-0.222290,0.317993,520
32462795,10010,0.891602,-0.225098,0.324097,519
32472783,9988,0.896362,-0.229736,0.329102,524
32482785,10002,0.901001,-0.227539,0.335327,518
32492803,10018,0.901611,-0.224731,0.335327,524
32502810,10007,0.904663,-0.216919,0.335327,526
32512787,9977,0.904175,-0.207031,0.333496,525
32522791,10004,0.894409,-0.205811,0.329468,523
32532784,9993,0.881470,-0.204468,0.318359,526
32589258,56474,0.938843,-0.222412,0.288574,511
32594824,5566,0.975830,-0.233521,0.289063,510
32604035,9211,1.009155,-0.241943,0.290405,501
32609326,5291,1.042603,-0.243164,0.290161,507
32614621,5295,0.000000,0.000000,0.000000,506
32619092,4471,1.077148,-0.240967,0.289307,499
32624421,5329,0.000000,0.000000,0.000000,504
32645041,20620,1.170898,-0.248901,0.279663,504
32650204,5163,0.000000,0.000000,0.000000,503
32654710,4506,1.184570,-0.247681,0.278687,500
32660174,5464,1.171631,-0.243286,0.277222,503
32665646,5472,0.000000,0.000000,0.000000,502
32670265,4619,1.130737,-0.234497,0.276489,504
32677498,7233,1.073120,-0.227051,0.276123,506
32684618,7120,0.000000,0.000000,0.000000,508
32692806,8188,1.014771,-0.225220,0.279297,509
32702796,9990,0.940430,-0.243530,0.279541,510
32712795,9999,0.923584,-0.258667,0.273560,509
32722805,10010,0.923340,-0.275391,0.260620,513
32732792,9987,0.939819,-0.288696,0.244629,509
32742793,10001,0.974487,-0.299194,0.229126,507
32752802,10009,1.035278,-0.328369,0.206055,504
32762795,9993,1.030029,-0.342651,0.198730,505
32772786,9991,1.004028,-0.354492,0.196289,499
32782836,10050,0.977051,-0.355347,0.198242,492
32792800,9964,0.950317,-0.348511,0.207520,486
32802803,10003,0.926758,-0.314819,0.227783,482
32812806,10003,0.908936,-0.292236,0.236206,488
32822822,10016,0.915039,-0.271606,0.241455,491
32832790,9968,0.929199,-0.255737,0.245239,496
32842800,10010,0.940552,-0.245850,0.246216,502
32852784,9984,0.946777,-0.244263,0.245117,501
32885618,32834,0.912598,-0.238281,0.236450,517
32890842,5224,0.898682,-0.231079,0.242798,522
32896205,5363,0.000000,0.000000,0.000000,517
32900409,4204,0.889038,-0.227051,0.249512,523
32905843,5434,0.882568,-0.223877,0.252930,523
32912800,6957,0.000000,0.000000,0.000000,523
32922796,9996,0.881226,-0.224243,0.253906,525
32932807,10011,0.882812,-0.232178,0.250610,525
32942806,9999,0.883545,-0.243408,0.244019,523
32952806,10000,0.883789,-0.250488,0.237183,513
32962837,10031,0.883301,-0.254395,0.231567,520
32972801,9964,0.879883,-0.265991,0.220337,518
32982808,10007,0.881836,-0.274048,0.216797,516
32992789,9981,0.884155,-0.282104,0.214233,514
33002782,9993,0.888550,-0.288452,0.214600,511
33012805,10023,0.890747,-0.288696,0.214478,513
33022782,9977,0.888672,-0.277710,0.216309,509
33032796,10014,0.884888,-0.263306,0.219482,511
33042807,10011,0.882690,-0.248047,0.222290,514
33076114,33307,0.873291,-0.216187,0.238770,515
33081709,5595,0.000000,0.000000,0.000000,514
33086772,5063,0.867798,-0.215088,0.243652,516
33093005,6233,0.863770,-0.216797,0.249023,516
33098653,5648,0.000000,0.000000,0.000000,514
33105701,7048,0.862549,-0.223877,0.253296,511
33112783,7082,0.863403,-0.231689,0.256104,513
33122818,10035,0.865112,-0.239990,0.256836,509
33132799,9981,0.872925,-0.246826,0.256836,510
33142797,9998,0.877808,-0.247437,0.257935,509
33152804,10007,0.882202,-0.247559,0.258911,499
33162806,10002,0.886230,-0.248169,0.263672,503
33172783,9977,0.890381,-0.250122,0.266968,493
33182787,10004,0.900635,-0.251221,0.271729,494
33192799,10012,0.908203,-0.253906,0.274902,489
33202791,9992,0.915405,-0.258057,0.278198,494
33212785,9994,0.925903,-0.263428,0.282227,489
33222788,10003,0.941406,-0.268677,0.282837,486
33232788,10000,0.953369,-0.274658,0.282471,493
33242812,10024,0.960571,-0.285400,0.278564,493
33252784,9972,0.949585,-0.282471,0.275757,495
33262788,10004,0.935425,-0.278076,0.268921,492
33272801,10013,0.930298,-0.274780,0.265747,496
33282804,10003,0.932617,-0.271606,0.263672,502
33292806,10002,0.968506,-0.262817,0.275269,500
33302786,9980,1.008911,-0.261353,0.283203,512
33312783,9997,1.062988,-0.259766,0.288452,514
33322810,10027,1.117065,-0.266846,0.287354,515
33332789,9979,1.151733,-0.278687,0.281250,514
33342789,10000,1.161011,-0.288940,0.258179,514
33352788,9999,1.088257,-0.284180,0.252686,518
33362783,9995,1.038696,-0.258667,0.249878,512
33372792,10009,0.990845,-0.226440,0.252441,514
33382792,10000,0.945312,-0.191895,0.259033,523
33392797,10005,0.911865,-0.161987,0.266968,525
33402802,10005,0.898560,-0.123291,0.278809,529
33412797,9995,0.906128,-0.119629,0.283081,538
33423407,10610,0.909180,-0.120850,0.280640,549
33432800,9393,0.911133,-0.125244,0.281128,546
33442805,10005,0.913818,-0.126953,0.279907,540
33452796,9991,0.917847,-0.135254,0.284302,535
33462791,9995,0.936890,-0.141968,0.286499,529
33472782,9991,0.947388,-0.148437,0.286621,529
33482786,10004,0.961426,-0.154663,0.282715,524
33492798,10012,0.973022,-0.158325,0.280151,520
33502793,9995,0.985962,-0.164673,0.281616,519
33512809,10016,1.002197,-0.180176,0.298340,516
33522787,9978,1.004639,-0.188721,0.309814,516
33532801,10014,1.000977,-0.196533,0.323242,513
33542789,9988,0.994629,-0.199707,0.336060,515
33552791,10002,0.981689,-0.201294,0.343506,518
33562791,10000,0.940796,-0.200684,0.343750,522
33572794,10003,0.916138,-0.196777,0.339722,526
33582806,10012,0.894531,-0.192261,0.336304,529
33592786,9980,0.873169,-0.186157,0.332275,532
33602791,10005,0.857178,-0.180786,0.327759,534
33612814,10023,0.848389,-0.178833,0.322632,536
33622795,9981,0.840820,-0.176147,0.311157,533
33632786,9991,0.839844,-0.175781,0.304565,532
33642793,10007,0.842041,-0.177979,0.299438,525
33652804,10011,0.846069,-0.183228,0.297485,524
33662791,9987,0.853394,-0.187988,0.297119,520
33672808,10017,0.874023,-0.198975,0.299316,515
33682790,9982,0.883179,-0.204590,0.304077,503
33692783,9993,0.891479,-0.208862,0.308716,501
33702794,10011,0.895386,-0.214233,0.314819,504
33712798,10004,0.899048,-0.216064,0.322388,501
33722809,10011,0.934204,-0.217773,0.335449,497
33732784,9975,0.908691,-0.217651,0.339478,497
33742799,10015,0.903198,-0.215210,0.342285,499
33752802,10003,0.891724,-0.211060,0.344727,503
33762783,9981,0.876465,-0.206421,0.348511,504
33772801,10018,0.860107,-0.204712,0.351563,508
33782782,9981,0.829346,-0.204956,0.358154,502
33792796,10014,0.819946,-0.207642,0.359497,514
33802789,9993,0.808594,-0.211792,0.359619,516
33812783,9994,0.802124,-0.218140,0.360962,512
33822810,10027,0.796265,-0.222778,0.363647,510
33832811,10001,0.794189,-0.227051,0.364136,509
33878666,45855,0.841919,-0.232056,0.355469,498
33883950,5284,0.000000,0.000000,0.000000,498
33888361,4411,0.871460,-0.229248,0.352295,498
33894282,5921,0.926636,-0.227661,0.348511,495
33900332,6050,0.000000,0.000000,0.000000,494
33905409,5077,0.997437,-0.226807,0.348633,493
33911332,5923,1.076660,-0.228394,0.351196,491
33916974,5642,0.000000,0.000000,0.000000,491
33922805,5831,1.161255,-0.232910,0.353271,489
33932793,9988,1.233521,-0.238159,0.355469,486
33944924,12131,1.278564,-0.232422,0.342773,476
33952793,7869,1.230469,-0.212402,0.318848,467
33970502,17709,1.092773,-0.166748,0.276367,461
33976306,5804,0.000000,0.000000,0.000000,467
33982797,6491,1.047974,-0.144409,0.261597,466
33992789,9992,1.016357,-0.122925,0.254028,478
34002801,10012,0.983032,-0.088745,0.260742,485
34012796,9995,0.972046,-0.071289,0.267578,494
34022801,10005,0.964600,-0.058350,0.270508,508
34032785,9984,0.954834,-0.055298,0.269653,521
34042788,10003,0.953613,-0.065796,0.265625,532
34052801,10013,0.979370,-0.113037,0.251953,546
34062787,9986,1.002808,-0.132690,0.244995,549
34072796,10009,1.029541,-0.145874,0.238159,549
34082783,9987,1.050049,-0.145630,0.230225,554
34092798,10015,1.067261,-0.135864,0.225586,552
34102811,10013,1.074829,-0.105713,0.225586,560
34112826,10015,1.068115,-0.097900,0.229492,555
34122805,9979,1.058716,-0.095215,0.231567,549
34132797,9992,1.042969,-0.094482,0.230835,549
34142797,10000,1.027344,-0.093140,0.230225,544
34152812,10015,1.009521,-0.089722,0.227173,537
34181479,28667,0.942505,-0.069580,0.232544,530
34186803,5324,0.000000,0.000000,0.000000,527
34191201,4398,0.929321,-0.073853,0.231323,522
34197365,6164,0.921021,-0.086548,0.226562,526
34203857,6492,0.000000,0.000000,0.000000,522
34212796,8939,0.912354,-0.121826,0.211670,523
34222800,10004,0.913330,-0.139038,0.204956,522
34232792,9992,0.917725,-0.154541,0.198608,512
34242809,10017,0.924561,-0.167969,0.193726,510
34252788,9979,0.932617,-0.177490,0.190918,510
34262791,10003,0.941528,-0.182129,0.187866,503
34272806,10015,0.946899,-0.189453,0.186401,495
34282791,9985,0.949341,-0.192749,0.186157,490
34292792,10001,0.959229,-0.191650,0.185913,493
34302807,10015,0.973267,-0.185913,0.185303,495
34312786,9979,0.984009,-0.180542,0.184814,493
34322799,10013,0.998413,-0.171143,0.182739,495
34332793,9994,0.999878,-0.168701,0.180908,501
34393318,60525,0.969604,-0.172485,0.165039,524
34398914,5596,0.000000,0.000000,0.000000,524
34403606,4692,0.957886,-0.170898,0.165771,527
34409281,5675,0.940918,-0.167603,0.166138,531
34415258,5977,0.000000,0.000000,0.000000,524
34420421,5163,0.922852,-0.166016,0.167358,529
34426498,6077,0.909302,-0.165283,0.167236,531
34432228,5730,0.000000,0.000000,0.000000,534
34436478,4250,0.899292,-0.166626,0.167847,532
34441775,5297,0.896484,-0.166504,0.166260,529
34453468,11693,0.897583,-0.167358,0.166260,530
34458695,5227,0.901245,-0.167969,0.166870,527
34463993,5298,0.000000,0.000000,0.000000,526
34472798,8805,0.910522,-0.170654,0.168823,525
34482809,10011,0.929199,-0.177368,0.177368,515
34492808,9999,0.936157,-0.183716,0.183594,508
34502789,9981,0.942627,-0.187500,0.189209,509
34512807,10018,0.945190,-0.192139,0.198853,505
34522807,10000,0.947021,-0.197144,0.206665,501
34538312,15505,0.941162,-0.209229,0.218384,493
34543771,5459,0.936157,-0.215698,0.220093,492
34552811,9040,0.931641,-0.219971,0.217285,492
34625278,72467,0.956299,-0.215088,0.281128,507
34631598,6320,1.022949,-0.228638,0.285034,514
34636924,5326,1.096436,-0.247803,0.285034,514
34642181,5257,0.000000,0.000000,0.000000,522
34646438,4257,1.169434,-0.269653,0.279907,520
34651592,5154,0.000000,0.000000,0.000000,524
34655934,4342,1.228149,-0.287842,0.276489,528
34661525,5591,1.262817,-0.298340,0.274048,529
34666682,5157,0.000000,0.000000,0.000000,532
34670851,4169,1.267456,-0.295410,0.278564,532
34676372,5521,0.000000,0.000000,0.000000,533
34680667,4295,1.245361,-0.277710,0.290161,527
34686113,5446,1.182373,-0.251221,0.320068,529
34692783,6670,0.000000,0.000000,0.000000,537
34702787,10004,0.988770,-0.187012,0.380981,539
34712792,10005,0.892822,-0.155396,0.412231,542
34722805,10013,0.816406,-0.136353,0.430298,546
34732791,9986,0.764526,-0.125488,0.428711,554
34742799,10008,0.728638,-0.129883,0.416992,558
34752797,9998,0.743530,-0.147583,0.395508,558
34762803,10006,0.733398,-0.146118,0.390625,559
34772789,9986,0.760132,-0.133911,0.384033,555
34782814,10025,0.798218,-0.133423,0.376343,551
34792784,9970,0.848389,-0.140869,0.382446,544
34802785,10001,0.894165,-0.166016,0.392578,529
34812825,10040,0.974121,-0.223022,0.415161,521
34822797,9972,1.006714,-0.256104,0.414551,504
34832785,9988,1.040894,-0.295898,0.413574,487
34842786,10001,1.059937,-0.328491,0.397705,480
34852811,10025,1.066284,-0.355469,0.382080,467
34862793,9982,1.075439,-0.367798,0.357178,465
34872784,9991,1.058472,-0.349854,0.351929,462
34882800,10016,1.029541,-0.314575,0.353149,467
34892810,10010,1.007080,-0.281372,0.358032,468
34902808,9998,0.993774,-0.250854,0.369995,474
34912810,10002,0.983398,-0.215454,0.379150,488
34922786,9976,0.972778,-0.137207,0.395142,508
34932783,9997,0.955444,-0.110107,0.403076,524
34942835,10052,0.939087,-0.100586,0.412720,539
34952811,9976,0.917358,-0.100464,0.418335,557
34962801,9990,0.904175,-0.122314,0.421753,566
34972782,9981,0.854736,-0.199463,0.415039,571
34982809,10027,0.838135,-0.215820,0.410278,569
34992812,10003,0.824463,-0.229004,0.400391,568
35002785,9973,0.809937,-0.229370,0.384155,559
35012792,10007,0.795898,-0.235840,0.372803,557
35022808,10016,0.787109,-0.244385,0.346802,546
35032793,9985,0.783203,-0.258911,0.337402,534
35042797,10004,0.784668,-0.254395,0.328125,522
35052807,10010,0.793579,-0.245483,0.324097,502
35062810,10003,0.808838,-0.221436,0.322388,496
35072789,9979,0.835205,-0.214600,0.331177,479
35108823,36034,0.902710,-0.201904,0.298828,459
35116111,7288,0.000000,0.000000,0.000000,459
35121259,5148,0.908691,-0.186035,0.297485,455
35129186,7927,0.908081,-0.173828,0.298340,460
35136264,7078,0.905396,-0.163452,0.296997,459
35142247,5983,0.893555,-0.156250,0.293335,464
35153293,11046,0.881470,-0.145630,0.289673,460
35159127,5834,0.866821,-0.135864,0.284302,470
35166216,7089,0.000000,0.000000,0.000000,474
35172782,6566,0.842651,-0.124634,0.279297,476
35182795,10013,0.822632,-0.117310,0.280396,486
35192789,9994,0.830688,-0.122559,0.260132,491
35202793,10004,0.854248,-0.127441,0.247559,496
35212794,10001,0.876709,-0.132080,0.232422,495
35222809,10015,0.891968,-0.135010,0.220459,499
35232806,9997,0.895508,-0.131226,0.214233,510
35242803,9997,0.886475,-0.097046,0.210693,512
35252803,10000,0.893188,-0.081177,0.207153,514
35262784,9981,0.908447,-0.073853,0.203125,521
35272782,9998,0.932739,-0.072876,0.201782,530
35282785,10003,0.956665,-0.074585,0.202759,526
35292799,10014,0.982666,-0.078857,0.210815,529
35302801,10002,1.034424,-0.104248,0.214844,529
35312800,9999,1.066284,-0.120605,0.218628,527
35322784,9984,1.086548,-0.135132,0.223511,529
35332806,10022,1.091675,-0.143921,0.227051,529
35342810,10004,1.080811,-0.147705,0.229004,523
35352798,9988,1.050781,-0.144653,0.223755,530
35362805,10007,1.044800,-0.140503,0.220703,530
35372796,9991,1.046265,-0.138184,0.219849,529
35382810,10014,1.049438,-0.137695,0.220947,528
35392784,9974,1.053955,-0.142212,0.219849,529
35402811,10027,1.061523,-0.160522,0.213501,526
35412792,9981,1.078735,-0.170532,0.206909,519
35422788,9996,1.089966,-0.177612,0.202148,521
35432783,9995,1.100952,-0.180176,0.201782,517
35442800,10017,1.104736,-0.177979,0.202637,518
35455257,12457,1.080322,-0.165527,0.208496,518
35462787,7530,1.059692,-0.160645,0.208252,515
35472797,10010,1.035400,-0.156738,0.206055,518
35482803,10006,1.009277,-0.154053,0.205200,516
35492803,10000,0.987671,-0.152832,0.205322,518
35502806,10003,0.965942,-0.151123,0.205566,526
35512795,9989,0.931274,-0.151001,0.202515,528
35522790,9995,0.925659,-0.154175,0.197632,530
35532811,10021,0.923584,-0.159180,0.193481,532
35542788,9977,0.929077,-0.165161,0.187988,531
35552794,10006,0.934937,-0.172852,0.185425,528
35562799,10005,0.938110,-0.180054,0.186401,522
35572801,10002,0.938354,-0.193604,0.188599,524
35582788,9987,0.942383,-0.199707,0.188965,517
35592793,10005,0.953003,-0.205933,0.190308,504
35602800,10007,0.964233,-0.211548,0.192627,501
35612789,9989,0.974976,-0.214600,0.194458,503
35622793,10004,0.991333,-0.213379,0.198730,496
35632798,10005,1.000244,-0.212158,0.198975,494
35642790,9992,1.010132,-0.214722,0.195312,488
35652793,10003,1.017944,-0.215332,0.193604,491
35662827,10034,1.019775,-0.211670,0.189453,487
35672782,9955,1.013550,-0.203247,0.183960,491
35682809,10027,1.000122,-0.178345,0.177246,493
35692783,9974,0.992554,-0.169922,0.175781,496
35702801,10018,0.992432,-0.165161,0.177856,506
35712786,9985,0.984741,-0.164917,0.180176,505
35722802,10016,0.974609,-0.168091,0.183838,512
35732785,9983,0.952881,-0.161987,0.185913,520
35742782,9997,0.941162,-0.159546,0.182861,519
35752799,10017,0.927734,-0.157471,0.180054,528
35762809,10010,0.917358,-0.158203,0.177002,530
35772798,9989,0.907349,-0.157837,0.174927,531
35782807,10009,0.902100,-0.161621,0.177979,536
35792797,9990,0.903564,-0.166382,0.181763,534
35802797,10000,0.903564,-0.172241,0.185425,535
35812805,10008,0.902344,-0.175781,0.190796,533
35822800,9995,0.904907,-0.179565,0.196899,534
35832802,10002,0.909912,-0.182983,0.203857,533
35842789,9987,0.916382,-0.196045,0.211914,532
35852809,10020,0.920044,-0.206055,0.217773,524
35862785,9976,0.925537,-0.214966,0.219482,525
35872791,10006,0.926636,-0.221802,0.221191,521
35882801,10010,0.922852,-0.224365,0.220215,516
35892797,9996,0.921387,-0.222290,0.217651,510
35902793,9996,0.932251,-0.220581,0.221069,509
35912807,10014,0.949097,-0.218994,0.227661,509
35922811,10004,0.964966,-0.216797,0.235962,498
35932801,9990,0.978516,-0.215088,0.245728,502
35942807,10006,0.988647,-0.217407,0.253662,500
35952792,9985,0.992798,-0.223877,0.265015,505
35962784,9992,0.990723,-0.227051,0.267822,505
35972799,10015,0.987915,-0.228638,0.270264,504
35982792,9993,0.987549,-0.230713,0.272339,511
35992793,10001,0.987915,-0.231812,0.274902,516
36002795,10002,0.985107,-0.234375,0.284424,514
36012782,9987,0.978027,-0.235229,0.286743,518
36022792,10010,0.966064,-0.234863,0.285278,520
36032792,10000,0.951782,-0.232666,0.283936,519
36042790,9998,0.937988,-0.224854,0.282349,519
36052784,9994,0.924561,-0.216919,0.287231,521
36062782,9998,0.911621,-0.205444,0.287842,522
36072795,10013,0.920410,-0.205933,0.288574,522
36082812,10017,0.939331,-0.210083,0.289429,519
36092801,9989,0.969116,-0.216919,0.289551,518
36102789,9988,1.001587,-0.225708,0.288940,517
36112782,9993,1.052979,-0.237183,0.285278,514
36122788,10006,1.070435,-0.239380,0.286621,522
36132793,10005,1.078247,-0.239014,0.290039,521
36142791,9998,1.069946,-0.236572,0.295776,519
36152808,10017,1.042236,-0.230957,0.303711,519
36162805,9997,0.965942,-0.211670,0.320679,519
36172791,9986,0.924561,-0.199219,0.329224,521
36182786,9995,0.890015,-0.192261,0.340088,523
36192790,10004,0.865112,-0.189941,0.344238,522
36202807,10017,0.853638,-0.192505,0.343628,523
36212784,9977,0.847656,-0.195923,0.344238,525
36222795,10011,0.844482,-0.183472,0.343384,525
36232803,10008,0.847900,-0.182495,0.342285,522
36242809,10006,0.857788,-0.182373,0.335327,516
36252800,9991,0.866455,-0.183105,0.326050,505
36270120,17320,0.886597,-0.189819,0.310425,492
36275717,5597,0.909546,-0.193848,0.307617,482
36282806,7089,0.935791,-0.193604,0.314453,487
36292785,9979,0.959106,-0.189697,0.324951,482
36302797,10012,0.974609,-0.184692,0.336182,468
36312804,10007,0.983032,-0.182495,0.345215,470
36322814,10010,0.983887,-0.182495,0.353149,468
36332803,9989,0.965454,-0.183838,0.370605,470
36342796,9993,0.960571,-0.183838,0.372559,475
36352786,9990,0.963501,-0.187256,0.371948,478
36362815,10029,0.969238,-0.192383,0.369385,493
36372806,9991,0.969727,-0.197876,0.364990,493
36383409,10603,0.958496,-0.197021,0.354370,511
36392810,9401,0.945435,-0.188599,0.348022,519
36402793,9983,0.922607,-0.177979,0.343018,529
36412805,10012,0.899536,-0.167603,0.338867,535
36422795,9990,0.881836,-0.159302,0.337402,540
36432808,10013,0.872192,-0.154541,0.337891,544
36442784,9976,0.867310,-0.164062,0.341919,539
36452805,10021,0.871094,-0.169922,0.341064,545
36462798,9993,0.876953,-0.173584,0.340210,544
36472805,10007,0.877808,-0.176147,0.336914,534
36482790,9985,0.875488,-0.178345,0.335083,530
36492796,10006,0.854492,-0.171021,0.330566,521
36502823,10027,0.841919,-0.164062,0.328491,520
36512801,9978,0.834595,-0.158569,0.326294,514
36522788,9987,0.823608,-0.154541,0.326294,514
36532811,10023,0.810791,-0.150513,0.324707,506
36542794,9983,0.801392,-0.151489,0.326416,509
36552798,10004,0.790894,-0.156738,0.328003,503
36562808,10010,0.792358,-0.165405,0.326050,496
36572799,9991,0.794312,-0.174316,0.325684,498
36582799,10000,0.799194,-0.180420,0.322632,493
36592792,9993,0.808838,-0.187866,0.322754,490
36602787,9995,0.823364,-0.193848,0.326172,483
36612788,10001,0.819458,-0.194092,0.327637,485
36622789,10001,0.814941,-0.191406,0.328857,485
36632784,9995,0.820068,-0.189209,0.327271,484
36642786,10002,0.840820,-0.190308,0.325806,486
36652805,10019,0.925537,-0.200073,0.326904,466
36662811,10006,0.976318,-0.205322,0.332886,487
36672800,9989,1.021362,-0.207520,0.343750,486
36682819,10019,1.054443,-0.208008,0.353271,498
36692811,9992,1.067627,-0.204346,0.359375,495
36702784,9973,1.055664,-0.200073,0.355835,505
36712796,10012,1.016357,-0.200195,0.324707,509
36722788,9992,1.016724,-0.202881,0.306885,505
36732802,10014,1.023071,-0.208862,0.289673,516
36742790,9988,1.036377,-0.210571,0.274414,510
36752791,10001,1.053223,-0.208984,0.263550,516
36762810,10019,1.070801,-0.216064,0.257080,522
36772788,9978,1.071533,-0.226318,0.256348,521
36782797,10009,1.066895,-0.239990,0.252930,517
36792805,10008,1.061401,-0.251099,0.251343,527
36802796,9991,1.050903,-0.255005,0.250000,527
36812811,10015,1.035522,-0.251709,0.246826,524
36822784,9973,1.001221,-0.231934,0.245972,523
36832792,10008,0.978271,-0.216797,0.249268,524
36842788,9996,0.950317,-0.201050,0.252808,525
36852793,10005,0.920288,-0.185791,0.257568,521
36862836,10043,0.897705,-0.176270,0.260132,524
36872787,9951,0.869263,-0.169800,0.263916,520
36882806,10019,0.863892,-0.173950,0.261475,527
36892796,9990,0.864136,-0.184448,0.260376,525
36902787,9991,0.865234,-0.195557,0.258423,525
36912793,10006,0.862793,-0.203857,0.255981,522
36922809,10016,0.858276,-0.207397,0.245239,519
36932803,9994,0.858521,-0.210083,0.236938,520
36942794,9991,0.863647,-0.213379,0.229004,513
36952808,10014,0.869019,-0.215088,0.222290,517
36962806,9998,0.879272,-0.216675,0.218262,516
36972787,9981,0.888062,-0.216919,0.216675,509
36982794,10007,0.929565,-0.223633,0.215332,513
37043237,60443,0.977417,-0.185669,0.201172,511
37048725,5488,0.000000,0.000000,0.000000,517
37052971,4246,0.970581,-0.175537,0.201538,517
37058356,5385,0.000000,0.000000,0.000000,521
37062636,4280,0.969849,-0.167114,0.199097,522
37068557,5921,0.974121,-0.161377,0.197632,525
37074741,6184,0.000000,0.000000,0.000000,521
37080001,5260,0.973511,-0.157959,0.195435,531
37085311,5310,0.974976,-0.157837,0.192261,526
37090633,5322,0.000000,0.000000,0.000000,536
37094723,4090,0.976440,-0.161865,0.188965,536
37102808,8085,0.973511,-0.166138,0.188354,538
37112811,10003,0.969238,-0.169434,0.188110,539
37122789,9978,0.964966,-0.168701,0.190186,543
37132806,10017,0.960937,-0.165283,0.192871,533
37142800,9994,0.950195,-0.150757,0.196655,541
37152807,10007,0.947021,-0.147461,0.201050,541
37162797,9990,0.946411,-0.146118,0.205444,539
37172799,10002,0.945312,-0.151123,0.207764,537
37182791,9992,0.945923,-0.157227,0.207886,532
37192784,9993,0.949707,-0.161377,0.211792,529
37202796,10012,0.962524,-0.161377,0.220581,525
37212784,9988,0.967163,-0.161987,0.223511,524
37222799,10015,0.967651,-0.161133,0.226562,522
37232804,10005,0.967529,-0.158081,0.228760,518
37242790,9986,0.965820,-0.156372,0.233154,514
37252806,10016,0.959229,-0.155640,0.240112,515
37262784,9978,0.955444,-0.155640,0.246704,517
37272798,10014,0.953003,-0.155151,0.255005,495
37282902,10104,0.957764,-0.151855,0.265503,515
37292786,9884,0.973755,-0.151001,0.275391,511
37302790,10004,0.999878,-0.156372,0.284180,514
37312801,10011,1.069458,-0.186401,0.280762,514
37322800,9999,1.101929,-0.203613,0.273804,511
37332782,9982,1.122314,-0.217651,0.263062,509
37342801,10019,1.119507,-0.220825,0.258057,517
37352800,9999,1.103638,-0.211914,0.256714,508
37362784,9984,1.044189,-0.178711,0.268433,510
37372794,10010,1.007690,-0.161621,0.283203,507
37382798,10004,0.972534,-0.151123,0.307495,518
37392805,10007,0.939453,-0.142700,0.334961,524
37402786,9981,0.919922,-0.140503,0.365967,524
37412790,10004,0.927490,-0.140259,0.415527,534
37422797,10007,0.950439,-0.143433,0.433105,540
37432799,10002,0.968506,-0.150879,0.449341,544
37442793,9994,0.981445,-0.161255,0.465332,548
37452799,10006,0.984131,-0.172119,0.475220,548
37462783,9984,0.974243,-0.186279,0.478394,539
37472784,10001,0.912476,-0.211060,0.458252,547
37482802,10018,0.874268,-0.221802,0.440674,545
37492796,9994,0.851685,-0.231323,0.420898,538
37502802,10006,0.836182,-0.238892,0.401489,543
37512801,9999,0.828735,-0.244385,0.385132,540
37522812,10011,0.824951,-0.252930,0.355835,546
37532788,9976,0.827393,-0.255737,0.348633,545
37542802,10014,0.833740,-0.258301,0.341309,538
37552800,9998,0.843262,-0.262085,0.338257,543
37562796,9996,0.853027,-0.263916,0.335938,535
37572798,10002,0.862549,-0.260986,0.334595,531
37582801,10003,0.880371,-0.252686,0.332642,519
37592799,9998,0.890259,-0.252930,0.332642,520
37602793,9994,0.890259,-0.246948,0.333252,517
37612813,10020,0.888672,-0.232544,0.330078,510
37622796,9983,0.887451,-0.218750,0.332886,508
37632807,10011,0.898315,-0.192505,0.339722,506
37642810,10003,0.899902,-0.184570,0.342407,511
37652801,9991,0.903687,-0.180176,0.345703,507
37662784,9983,0.904053,-0.177490,0.348267,512
37672804,10020,0.904663,-0.178589,0.348633,517
37682799,9995,0.901733,-0.182617,0.345703,517
37692800,10001,0.895386,-0.200562,0.343262,519
37702789,9989,0.895264,-0.212158,0.340088,516
37712790,10001,0.893677,-0.221191,0.337402,513
37722799,10009,0.892212,-0.225220,0.332397,506
37732788,9989,0.890015,-0.227051,0.325317,509
37742806,10018,0.881470,-0.223511,0.319580,500
37752823,10017,0.877930,-0.220337,0.318115,504
37762810,9987,0.878662,-0.218140,0.318237,497
37772810,10000,0.881714,-0.216919,0.321289,502
37782786,9976,0.892456,-0.218994,0.323242,496
37792782,9996,0.936035,-0.224976,0.328125,497
37802801,10019,0.941772,-0.222900,0.328979,489
37812791,9990,0.966187,-0.215820,0.330444,493
37822785,9994,0.992920,-0.208984,0.329590,492
37832803,10018,1.017212,-0.202515,0.329956,488
37842788,9985,1.042114,-0.199463,0.328369,488
37852805,10017,1.081787,-0.201782,0.322876,493
37862800,9995,1.103394,-0.197144,0.326050,486
37872792,9992,1.116211,-0.212891,0.323608,496
37882804,10012,1.123901,-0.221802,0.324829,489
37892790,9986,1.135620,-0.216675,0.329102,494
37902793,10003,1.115723,-0.216797,0.315796,486
37912783,9990,1.089478,-0.262451,0.313354,490
37922799,10016,1.094604,-0.278931,0.320313,489
37932818,10019,1.053833,-0.254150,0.308472,489
37942796,9978,0.989502,-0.230469,0.299194,487
37952786,9990,0.916382,-0.202515,0.314087,490
37962810,10024,0.791504,-0.192505,0.318970,492
37972824,10014,0.780151,-0.223877,0.306274,491
37982803,9979,0.799683,-0.253662,0.291992,493
37992783,9980,0.839966,-0.276367,0.271240,502
38002784,10001,0.890747,-0.292480,0.253296,505
38012797,10013,0.971069,-0.328247,0.225586,508
38022811,10014,0.994629,-0.334961,0.216064,505
38032800,9989,1.006592,-0.333130,0.213135,499
38042804,10004,1.010254,-0.323975,0.208984,507
38052797,9993,1.004272,-0.312988,0.211426,512
38062786,9989,0.992065,-0.311035,0.226440,512
38072797,10011,0.966675,-0.293579,0.231445,519
38082801,10004,0.951782,-0.278198,0.236694,525
38092793,9992,0.946289,-0.264893,0.241455,538
38102832,10039,0.937622,-0.260376,0.242554,547
38112813,9981,0.927856,-0.263062,0.241333,561
38122782,9969,0.905518,-0.261597,0.232300,575
38132782,10000,0.888062,-0.257690,0.227173,584
38142802,10020,0.868408,-0.258057,0.223022,588
38152809,10007,0.848022,-0.264526,0.218506,589
38162802,9993,0.825806,-0.276978,0.219849,585
38172799,9997,0.803467,-0.298340,0.238037,577
38182796,9997,0.781006,-0.304810,0.244019,570
38192812,10016,0.780884,-0.309448,0.246948,554
38202786,9974,0.782349,-0.312622,0.247192,540
38212802,10016,0.784180,-0.313965,0.244385,525
38222795,9993,0.784058,-0.316895,0.238647,510
38232801,10006,0.791992,-0.312378,0.221436,493
38285709,52908,0.883667,-0.290527,0.225708,446
38290939,5230,0.000000,0.000000,0.000000,443
38295211,4272,0.899048,-0.293701,0.232300,446
38310530,15319,0.912964,-0.298462,0.240479,451
38315716,5186,0.000000,0.000000,0.000000,458
38319764,4048,0.915039,-0.298828,0.242676,462
38325102,5338,0.000000,0.000000,0.000000,465
38329166,4064,0.915771,-0.300903,0.244751,464
38334554,5388,0.911499,-0.300537,0.245117,474
38339744,5190,0.000000,0.000000,0.000000,475
38344073,4329,0.907349,-0.297729,0.247070,486
38352791,8718,0.902100,-0.292236,0.248779,494
38362792,10001,0.898193,-0.280640,0.250977,505
38372807,10015,0.896240,-0.268799,0.252686,515
38382790,9983,0.896484,-0.260010,0.253906,525
38392799,10009,0.887939,-0.252930,0.250610,528
38402801,10002,0.885254,-0.253418,0.250366,534
38412799,9998,0.885132,-0.256592,0.248657,535
38422809,10010,0.890747,-0.255249,0.250122,535
38432794,9985,0.895386,-0.253174,0.251587,532
38442795,10001,0.894165,-0.220093,0.263916,521
38452801,10006,0.900391,-0.248779,0.271729,523
38462806,10005,0.900146,-0.249756,0.276733,522
38472802,9996,0.910889,-0.252319,0.282349,516
38482792,9990,0.925049,-0.258423,0.286865,510
38492814,10022,0.936157,-0.264160,0.291504,504
38502807,9993,0.957275,-0.274902,0.299316,502
38512804,9997,0.967407,-0.274414,0.306885,500
38522809,10005,0.976807,-0.273804,0.316406,503
38532798,9989,0.992187,-0.271851,0.325195,504
38542801,10003,1.010254,-0.272339,0.330322,499
38552795,9994,1.116577,-0.295044,0.316528,508
38562788,9993,1.151489,-0.312256,0.310181,511
38572799,10011,1.142822,-0.325928,0.306030,507
38582797,9998,1.099854,-0.326660,0.306030,512
38592790,9993,1.046509,-0.316528,0.311157,515
38602788,9998,0.994385,-0.301025,0.318237,515
38612784,9996,0.904053,-0.268921,0.340942,522
38622812,10028,0.880493,-0.253540,0.349609,527
38632782,9970,0.877686,-0.237671,0.351685,530
38642792,10010,0.887085,-0.223145,0.347046,541
38652811,10019,0.896606,-0.210083,0.337402,547
38662790,9979,0.923950,-0.176270,0.321655,550
38672793,10003,0.941040,-0.158447,0.312988,550
38682800,10007,0.956177,-0.150024,0.302612,543
38692804,10004,0.973755,-0.153320,0.292725,543
38702808,10004,0.981445,-0.163330,0.283325,532
38712789,9981,0.990112,-0.170898,0.275513,527
38722808,10019,1.017822,-0.169434,0.273926,513
38732811,10003,1.037354,-0.164795,0.273193,506
38742788,9977,1.049072,-0.162109,0.275391,496
38752803,10015,1.052124,-0.158447,0.277100,493
38762800,9997,1.051270,-0.155884,0.282227,482
38772782,9982,1.026733,-0.150513,0.296143,481
38782801,10019,1.013916,-0.147827,0.302856,486
38792813,10012,1.000610,-0.146729,0.308594,486
38802799,9986,0.988281,-0.147583,0.309204,487
38812801,10002,0.971802,-0.149170,0.309448,502
38822807,10006,0.951294,-0.149536,0.301636,506
38832825,10018,0.905151,-0.152588,0.296021,508
38842798,9973,0.883789,-0.157349,0.290527,509
38852785,9987,0.867432,-0.164917,0.285522,518
38862790,10005,0.852295,-0.172974,0.281006,515
38872801,10011,0.843018,-0.181274,0.279297,523
38882807,10006,0.841064,-0.194702,0.282715,523
38892792,9985,0.848267,-0.202271,0.287109,518
38902790,9998,0.855225,-0.210693,0.294434,514
38912804,10014,0.861084,-0.216919,0.300781,508
38922807,10003,0.867065,-0.225464,0.307129,500
38932786,9979,0.880737,-0.237305,0.318115,497
38942808,10022,0.886353,-0.238037,0.324097,489
38952786,9978,0.889648,-0.235352,0.332642,486
38962814,10028,0.887573,-0.229858,0.339600,485
38972805,9991,0.883301,-0.224365,0.345947,486
38982811,10006,0.876953,-0.216309,0.352661,482
38992807,9996,0.857178,-0.197998,0.361938,490
39002788,9981,0.848267,-0.188965,0.366821,486
39012785,9997,0.837402,-0.177490,0.372925,498
39022802,10017,0.832886,-0.165894,0.378296,499
39032785,9983,0.831421,-0.161133,0.383911,504
39042800,10015,0.841431,-0.165649,0.391846,508
39052804,10004,0.844849,-0.168945,0.395630,508
