t_us,dt_us,ax,ay,az,ppg
23694193,10020,-0.413574,0.610474,-0.631226,524
23704176,9983,-0.416138,0.599731,-0.624023,527
23714188,10012,-0.420776,0.614380,-0.624878,540
23724192,10004,-0.417358,0.611694,-0.622192,543
23734189,9997,-0.417603,0.610107,-0.623047,542
23744175,9986,-0.414062,0.616089,-0.622803,550
23754202,10027,-0.410767,0.637329,-0.623535,544
23764184,9982,-0.409912,0.648071,-0.622314,537
23774190,10006,-0.409302,0.658936,-0.618652,542
23784183,9993,-0.410034,0.666382,-0.616943,537
23794188,10005,-0.412720,0.670776,-0.616211,529
23804183,9995,-0.413086,0.670044,-0.616333,526
23814235,10052,-0.413452,0.667725,-0.616455,529
23824206,9971,-0.415405,0.668213,-0.618164,524
23834177,9971,-0.415161,0.664673,-0.619629,525
23844193,10016,-0.416016,0.663696,-0.619873,519
23854195,10002,-0.415894,0.664185,-0.618286,513
23864199,10004,-0.412109,0.661621,-0.621216,520
23874190,9991,-0.412598,0.660889,-0.623047,516
23884176,9986,-0.411499,0.658569,-0.624756,514
23894187,10011,-0.410156,0.656860,-0.625977,512
23904178,9991,-0.408569,0.654175,-0.627075,514
23914189,10011,-0.407227,0.653931,-0.629517,506
23924179,9990,-0.406860,0.652100,-0.632935,510
23934187,10008,-0.406494,0.650269,-0.634644,506
23944180,9993,-0.405273,0.647949,-0.635254,508
23954200,10020,-0.405273,0.644165,-0.636353,507
23964190,9990,-0.406250,0.641113,-0.635986,510
23974200,10010,-0.408691,0.637085,-0.636841,511
23984196,9996,-0.410522,0.636597,-0.636841,512
23994194,9998,-0.410278,0.634766,-0.635986,503
24004185,9991,-0.409668,0.635010,-0.635132,512
24014183,9998,-0.409180,0.634888,-0.635010,502
24024185,10002,-0.407959,0.637085,-0.635254,511
24034200,10015,-0.407593,0.635864,-0.636230,509
24044384,10184,-0.406494,0.635864,-0.635498,503
24054179,9795,-0.406128,0.635254,-0.635376,510
24064191,10012,-0.408813,0.637085,-0.634521,508
24074185,9994,-0.409546,0.637695,-0.635620,508
24084192,10007,-0.411621,0.640625,-0.636719,506
24094177,9985,-0.412109,0.641602,-0.637329,505
24104178,10001,-0.411865,0.641479,-0.636841,503
24114189,10011,-0.411499,0.641357,-0.637207,499
24124403,10214,-0.410767,0.644043,-0.637085,499
24134180,9777,-0.408936,0.642944,-0.639526,492
24144201,10021,-0.409424,0.642212,-0.639771,489
24154195,9994,-0.408936,0.640259,-0.640381,499
24164197,10002,-0.406128,0.639771,-0.640869,487
24174185,9988,-0.406006,0.639282,-0.639771,495
24184184,9999,-0.406006,0.636963,-0.640381,493
24194196,10012,-0.410034,0.637695,-0.642578,486
24204176,9980,-0.411133,0.638672,-0.643188,491
24214176,10000,-0.410156,0.638428,-0.641846,485
24224203,10027,-0.411011,0.640503,-0.640991,492
24234186,9983,-0.409912,0.640137,-0.642090,492
24244195,10009,-0.409424,0.640015,-0.642578,492
24254175,9980,-0.409546,0.639771,-0.640625,488
24264196,10021,-0.411011,0.637817,-0.639282,485
24274186,9990,-0.412476,0.635376,-0.638428,495
24284178,9992,-0.415161,0.632690,-0.636719,497
24294178,10000,-0.415894,0.628906,-0.636597,500
24304193,10015,-0.417725,0.626465,-0.635010,501
24314199,10006,-0.417236,0.626709,-0.634033,503
24324201,10002,-0.417847,0.626587,-0.633667,515
24334175,9974,-0.417114,0.626465,-0.635620,516
24344185,10010,-0.418823,0.626099,-0.635254,527
24354185,10000,-0.417480,0.622559,-0.634766,525
24364179,9994,-0.416504,0.622437,-0.635620,537
24374206,10027,-0.416382,0.623169,-0.637939,540
24384193,9987,-0.416748,0.624756,-0.638184,536
24394175,9982,-0.416748,0.626221,-0.637695,547
24404179,10004,-0.415527,0.627686,-0.637329,542
24414197,10018,-0.414551,0.633179,-0.643799,548
24424174,9977,-0.425293,0.636230,-0.653809,541
24434188,10014,-0.425903,0.631470,-0.651489,547
24444187,9999,-0.413940,0.630737,-0.639282,546
24454174,9987,-0.405029,0.631104,-0.635010,543
24464179,10005,-0.418579,0.633179,-0.645508,542
24474193,10014,-0.419922,0.626343,-0.644653,538
24484186,9993,-0.415527,0.621826,-0.640747,537
24494196,10010,-0.413818,0.620728,-0.640259,529
24504181,9985,-0.414307,0.626587,-0.639160,531
24514179,9998,-0.419922,0.636719,-0.642212,529
24524201,10022,-0.417725,0.639160,-0.638428,520
24534189,9988,-0.412476,0.634277,-0.636108,522
24544189,10000,-0.410156,0.625854,-0.636841,511
24554209,10020,-0.414429,0.624023,-0.641113,516
24564196,9987,-0.421143,0.625244,-0.645264,510
24574186,9990,-0.418335,0.629883,-0.643066,503
24584196,10010,-0.415405,0.633301,-0.642212,511
24594185,9989,-0.414551,0.635376,-0.641479,503
24604173,9988,-0.414917,0.637085,-0.642822,503
24614181,10008,-0.414673,0.634644,-0.644897,505
24624185,10004,-0.415894,0.625122,-0.646240,507
24634178,9993,-0.415771,0.623169,-0.646240,501
24644193,10015,-0.414307,0.623047,-0.644897,505
24654188,9995,-0.417480,0.625610,-0.643677,503
24664179,9991,-0.419312,0.627441,-0.642090,502
24674193,10014,-0.418823,0.626343,-0.641113,494
24684179,9986,-0.415283,0.616577,-0.636475,503
24694176,9997,-0.416138,0.614258,-0.635376,504
24704184,10008,-0.420898,0.611816,-0.635498,496
24714181,9997,-0.424194,0.613281,-0.633789,495
24724197,10016,-0.420532,0.616089,-0.633911,503
24734196,9999,-0.418701,0.626709,-0.634155,503
24744214,10018,-0.417847,0.630493,-0.636230,502
24754183,9969,-0.416382,0.633911,-0.639771,503
24764192,10009,-0.415283,0.637939,-0.643677,500
24774198,10006,-0.414551,0.640869,-0.645508,497
24784186,9988,-0.413940,0.642822,-0.645020,500
24794175,9989,-0.413818,0.651489,-0.649414,498
24804201,10026,-0.411987,0.654175,-0.651245,498
24814190,9989,-0.410645,0.657349,-0.650879,494
24824184,9994,-0.407959,0.655762,-0.650391,493
24836618,12434,-0.407837,0.644653,-0.650269,490
24844187,7569,0.000000,0.000000,0.000000,493
24854189,10002,-0.411499,0.634644,-0.651001,492
24864192,10003,-0.414062,0.629883,-0.649414,489
24874201,10009,-0.415283,0.627563,-0.647583,492
24884182,9981,-0.415283,0.624634,-0.646973,492
24894183,10001,-0.416016,0.619995,-0.645020,483
24904190,10007,-0.418823,0.613281,-0.644165,490
24914178,9988,-0.420288,0.611206,-0.643188,484
24924223,10045,-0.420044,0.610840,-0.643921,488
24934204,9981,-0.420410,0.610229,-0.643677,491
24944178,9974,-0.420898,0.609497,-0.645508,485
24954184,10006,-0.419556,0.611450,-0.648560,489
24964201,10017,-0.419312,0.611572,-0.649170,490
24974192,9991,-0.418457,0.611328,-0.648315,490
24984191,9999,-0.419556,0.611694,-0.648804,484
24994174,9983,-0.417725,0.613525,-0.649902,486
25004175,10001,-0.416138,0.616577,-0.650024,500
25014195,10020,-0.415161,0.621948,-0.649658,499
25024193,9998,-0.414673,0.624146,-0.651123,506
25034182,9989,-0.414795,0.625000,-0.651367,504
25044198,10016,-0.416748,0.625732,-0.651611,513
25054185,9987,-0.418213,0.625488,-0.649536,524
25066555,12370,-0.417725,0.627563,-0.647095,523
25074191,7636,-0.418213,0.627808,-0.646362,534
25084187,9996,-0.419556,0.628296,-0.645752,535
25094194,10007,-0.419189,0.628052,-0.645630,540
25104186,9992,-0.421265,0.627808,-0.645752,544
25114217,10031,-0.422241,0.622803,-0.645752,528
25124173,9956,-0.422852,0.619873,-0.644653,538
25134194,10021,-0.421021,0.618164,-0.643066,543
25144200,10006,-0.419434,0.616333,-0.642700,541
25154174,9974,-0.421021,0.615112,-0.642578,536
25165129,10955,-0.419556,0.614868,-0.641724,539
25174173,9044,-0.420288,0.615967,-0.644531,536
25184183,10010,-0.421387,0.617798,-0.645386,535
25194194,10011,-0.420532,0.618530,-0.646118,528
25204185,9991,-0.419556,0.619507,-0.648315,529
25214190,10005,-0.418945,0.620361,-0.651123,519
25224178,9988,-0.418579,0.619629,-0.654175,526
25235201,11023,-0.417358,0.619263,-0.653320,524
25244180,8979,-0.416016,0.619385,-0.654053,517
25255839,11659,-0.415649,0.619385,-0.653687,521
25264174,8335,-0.416626,0.619629,-0.651978,517
25274197,10023,-0.417603,0.620850,-0.651978,516
25284178,9981,-0.419067,0.621826,-0.650391,507
25294194,10016,-0.419434,0.621704,-0.648071,513
25304201,10007,-0.420532,0.622559,-0.647217,512
25314189,9988,-0.420654,0.622437,-0.648437,505
25324194,10005,-0.420532,0.621460,-0.648193,504
25334178,9984,-0.417969,0.620728,-0.646973,510
25344190,10012,-0.417847,0.620483,-0.646729,508
25355132,10942,-0.417969,0.621460,-0.645996,509
25364189,9057,-0.418213,0.622314,-0.646240,508
25374195,10006,-0.417847,0.623413,-0.645386,508
25384198,10003,-0.420288,0.623047,-0.645386,507
25394194,9996,-0.421631,0.621704,-0.646606,507
25404187,9993,-0.420654,0.621094,-0.646606,506
25414196,10009,-0.417847,0.620361,-0.647827,506
25424198,10002,-0.418213,0.620483,-0.648926,506
25434185,9987,-0.418945,0.619385,-0.648437,506
25444182,9997,-0.418457,0.622192,-0.649780,497
25454180,9998,-0.418579,0.623169,-0.650513,500
25464229,10049,-0.417480,0.624390,-0.648315,505
25474178,9949,-0.417480,0.624390,-0.649780,494
25484198,10020,-0.417725,0.624023,-0.648071,503
25494173,9975,-0.417480,0.621216,-0.648437,500
25504194,10021,-0.418091,0.619995,-0.647949,500
25514196,10002,-0.419189,0.621460,-0.646240,492
25524186,9990,-0.417969,0.623047,-0.644897,500
25534197,10011,-0.419434,0.625366,-0.644897,494
25544197,10000,-0.419922,0.626099,-0.646362,498
25554480,10283,-0.421143,0.624634,-0.646240,497
25564180,9700,-0.419800,0.624634,-0.645874,495
25574177,9997,-0.419678,0.622803,-0.645874,494
25584188,10011,-0.418823,0.623657,-0.645264,494
25594191,10003,-0.419189,0.624390,-0.645508,489
25604193,10002,-0.419312,0.624756,-0.646362,487
25614199,10006,-0.419678,0.623291,-0.647583,489
25624199,10000,-0.418091,0.620483,-0.647461,481
25634174,9975,-0.417603,0.619995,-0.648682,488
25644173,9999,-0.418091,0.620239,-0.648437,489
25654188,10015,-0.417480,0.621582,-0.646851,487
25664190,10002,-0.419678,0.628662,-0.646484,487
25674177,9987,-0.420654,0.629517,-0.646606,489
25684182,10005,-0.420166,0.627075,-0.649292,487
25694200,10018,-0.419556,0.623901,-0.649292,479
25704189,9989,-0.418335,0.620483,-0.649048,487
25714190,10001,-0.417969,0.616455,-0.646851,483
25724180,9990,-0.418945,0.617065,-0.646729,488
25734185,10005,-0.419067,0.617920,-0.645142,489
25744197,10012,-0.419556,0.620483,-0.645874,483
25755140,10943,-0.419922,0.621460,-0.645874,487
25764196,9056,-0.419800,0.620361,-0.647949,485
25774189,9993,-0.420410,0.615723,-0.647461,490
25784200,10011,-0.421021,0.615967,-0.647583,485
25794200,10000,-0.418701,0.617676,-0.647827,479
25804184,9984,-0.418823,0.621460,-0.647583,488
25814181,9997,-0.417725,0.625000,-0.647461,479
25824197,10016,-0.418091,0.628052,-0.647949,481
25834182,9985,-0.418457,0.627686,-0.649414,489
25845203,11021,-0.418579,0.626953,-0.648926,487
25863396,18193,-0.420288,0.624512,-0.647461,480
25869861,6465,-0.420532,0.625000,-0.646362,489
25877049,7188,-0.419067,0.625122,-0.645386,480
25884180,7131,-0.419312,0.624146,-0.645020,486
25894201,10021,-0.420044,0.622070,-0.646118,486
25904181,9980,-0.421387,0.620239,-0.647949,487
25914176,9995,-0.421265,0.618896,-0.648071,478
25924185,10009,-0.420410,0.617798,-0.648315,488
25934177,9992,-0.417725,0.618896,-0.648071,482
25944180,10003,-0.416992,0.620483,-0.647827,489
25954948,10768,-0.418701,0.622192,-0.649536,488
25964174,9226,-0.419800,0.621826,-0.648682,488
25976636,12462,-0.420776,0.621094,-0.649170,489
25984190,7554,0.000000,0.000000,0.000000,487
25994240,10050,-0.416260,0.621826,-0.649658,485
26004187,9947,-0.417114,0.622070,-0.649170,483
26014193,10006,-0.419067,0.620483,-0.647217,487
26024183,9990,-0.421875,0.618896,-0.645386,486
26034180,9997,-0.424438,0.618286,-0.644653,492
26044175,9995,-0.420532,0.619263,-0.645142,493
26054197,10022,-0.419922,0.620117,-0.646240,489
26064179,9982,-0.419189,0.621704,-0.646606,504
26074179,10000,-0.418457,0.622559,-0.648437,508
26084178,9999,-0.416992,0.623047,-0.649658,507
26094198,10020,-0.419189,0.625122,-0.649902,519
26104173,9975,-0.419067,0.625000,-0.649414,524
26114181,10008,-0.418701,0.625000,-0.649048,528
26124185,10004,-0.417725,0.623901,-0.649780,535
26134190,10005,-0.416748,0.621460,-0.649414,533
26144175,9985,-0.416748,0.619019,-0.648926,537
26154202,10027,-0.417969,0.619141,-0.648926,542
26164182,9980,-0.418091,0.620850,-0.648071,545
26174212,10030,-0.418335,0.621216,-0.647949,542
26184187,9975,-0.418823,0.619995,-0.647095,546
26194175,9988,-0.420776,0.618774,-0.647827,544
26204197,10022,-0.422119,0.618164,-0.649536,544
26214193,9996,-0.421265,0.616821,-0.648560,541
26224189,9996,-0.418823,0.615234,-0.650513,538
26234201,10012,-0.418213,0.614868,-0.651001,538
26244196,9995,-0.419434,0.615234,-0.649780,527
26254203,10007,-0.418335,0.614014,-0.652710,535
26264193,9990,-0.417969,0.616333,-0.653076,531
26274190,9997,-0.418701,0.620361,-0.653320,530
26284176,9986,-0.419678,0.622681,-0.652954,531
26294196,10020,-0.419067,0.621460,-0.652344,526
26304188,9992,-0.417969,0.618408,-0.651489,522
26314180,9992,-0.413940,0.615601,-0.652588,514
26324187,10007,-0.414062,0.615601,-0.649902,509
26334197,10010,-0.417358,0.618652,-0.647949,518
26344191,9994,-0.420044,0.620972,-0.646851,518
26354229,10038,-0.420898,0.621704,-0.644775,515
26364193,9964,-0.419067,0.622192,-0.643921,514
26374180,9987,-0.419067,0.623657,-0.643677,513
26384176,9996,-0.420654,0.625854,-0.642822,515
26394258,10082,-0.420044,0.627563,-0.642822,515
26404174,9916,-0.419678,0.627930,-0.641968,515
26414175,10001,-0.420166,0.628418,-0.644165,518
26424181,10006,-0.422241,0.625732,-0.645508,509
26434190,10009,-0.421753,0.622437,-0.646851,516
26444201,10011,-0.418945,0.621460,-0.649780,513
26454189,9988,-0.419067,0.619507,-0.652466,510
26464173,9984,-0.417480,0.619995,-0.652588,505
26474177,10004,-0.415039,0.620850,-0.652222,513
26484195,10018,-0.413330,0.619263,-0.651978,511
26494176,9981,-0.415161,0.619507,-0.651489,509
26504201,10025,-0.415283,0.620605,-0.652344,516
26514196,9995,-0.416504,0.620605,-0.652588,505
26524186,9990,-0.417480,0.618652,-0.652466,495
26534191,10005,-0.418091,0.616943,-0.652954,503
26544187,9996,-0.417480,0.615723,-0.651855,501
26554202,10015,-0.416016,0.614380,-0.650024,499
26566262,12060,-0.413086,0.617310,-0.647827,497
26579591,13329,-0.420044,0.624023,-0.657471,489
26589561,9970,-0.421875,0.624878,-0.656006,495
26595363,5802,-0.417358,0.622681,-0.653564,493
26604199,8836,-0.416748,0.622314,-0.654785,494
26614186,9987,-0.418091,0.620361,-0.655029,491
26624180,9994,-0.417969,0.617310,-0.652344,486
26634198,10018,-0.414429,0.614258,-0.651733,493
26644182,9984,-0.417969,0.614136,-0.651489,492
26654185,10003,-0.418701,0.616211,-0.650024,493
26664193,10008,-0.420776,0.620483,-0.649048,491
26680850,16657,-0.420410,0.622314,-0.646851,495
26688605,7755,-0.419556,0.617798,-0.645752,492
26694560,5955,-0.419189,0.613525,-0.645020,492
26704178,9618,-0.419678,0.611938,-0.645996,494
26714181,10003,-0.422607,0.610962,-0.646484,491
26724181,10000,-0.422729,0.614014,-0.646851,492
26734190,10009,-0.421875,0.618774,-0.647583,486
26744208,10018,-0.419434,0.625488,-0.647949,490
26754185,9977,-0.418213,0.627686,-0.647949,493
26765979,11794,-0.415894,0.626587,-0.648926,483
26774194,8215,-0.415771,0.623169,-0.649170,491
26784196,10002,-0.416138,0.620361,-0.651367,492
26794174,9978,-0.417603,0.619751,-0.652588,489
26804191,10017,-0.417969,0.620483,-0.653198,489
26814175,9984,-0.418091,0.622559,-0.652588,489
26824177,10002,-0.418335,0.623169,-0.651855,488
26834187,10010,-0.418945,0.622437,-0.649536,486
26844175,9988,-0.418701,0.621216,-0.648560,491
26854200,10025,-0.421021,0.614868,-0.649048,489
26864177,9977,-0.419189,0.611084,-0.646362,489
26874200,10023,-0.415894,0.605103,-0.639038,482
26884188,9988,-0.409668,0.604736,-0.635376,490
26894173,9985,-0.417236,0.616577,-0.649658,488
26904187,10014,-0.440186,0.622559,-0.667480,489
26914175,9988,-0.423218,0.614502,-0.647095,483
26924188,10013,-0.406128,0.615356,-0.640381,491
26934212,10024,-0.408691,0.621216,-0.648193,490
26944201,9989,-0.418213,0.619873,-0.652466,490
26954186,9985,-0.416992,0.611084,-0.649170,491
26964192,10006,-0.413940,0.599121,-0.649658,484
26974186,9994,-0.418945,0.606934,-0.654053,490
26984177,9991,-0.424927,0.619507,-0.659424,491
26994182,10005,-0.426147,0.627075,-0.660645,490
27004180,9998,-0.417603,0.628784,-0.655151,490
27014189,10009,-0.407593,0.622437,-0.649414,490
27024181,9992,-0.414795,0.614990,-0.652710,486
27034185,10004,-0.428101,0.612793,-0.658936,486
27044183,9998,-0.428345,0.617920,-0.656006,493
27054191,10008,-0.419922,0.625000,-0.652466,486
27064192,10001,-0.415039,0.632690,-0.650024,487
27074185,9993,-0.416016,0.634888,-0.644653,489
27084201,10016,-0.417969,0.629150,-0.644897,501
27094173,9972,-0.420288,0.621826,-0.642456,505
27104183,10010,-0.417480,0.617920,-0.640137,506
27114174,9991,-0.414673,0.621704,-0.641479,503
27124181,10007,-0.417358,0.628418,-0.648682,512
27134201,10020,-0.423218,0.637817,-0.649170,519
27144178,9977,-0.419556,0.633179,-0.647095,526
27154211,10033,-0.416260,0.628784,-0.647583,532
27164204,9993,-0.416992,0.624390,-0.650024,531
27174182,9978,-0.417480,0.620117,-0.654175,530
27184188,10006,-0.419922,0.618286,-0.658936,542
27194193,10005,-0.418579,0.618042,-0.655273,544
27204173,9980,-0.414551,0.618286,-0.653076,537
27214187,10014,-0.410034,0.615234,-0.648926,544
27224189,10002,-0.407349,0.611938,-0.645996,544
27234186,9997,-0.410400,0.606079,-0.647217,544
27244194,10008,-0.419312,0.607910,-0.646851,542
27254190,9996,-0.421997,0.614014,-0.647217,542
27264185,9995,-0.427979,0.618164,-0.650757,538
27274200,10015,-0.431030,0.621216,-0.653320,533
27284178,9978,-0.430054,0.622070,-0.650635,536
27294183,10005,-0.419556,0.619873,-0.649048,526
27304195,10012,-0.419189,0.615967,-0.651978,534
27314190,9995,-0.417603,0.614258,-0.654175,529
27324183,9993,-0.413452,0.612061,-0.652710,525
27334180,9997,-0.410034,0.613892,-0.650513,525
27344182,10002,-0.412842,0.618164,-0.649048,513
27354187,10005,-0.413574,0.617798,-0.646851,518
27364173,9986,-0.414917,0.617920,-0.645020,520
27374178,10005,-0.417358,0.616333,-0.643433,515
27384178,10000,-0.420898,0.617432,-0.647217,515
27394189,10011,-0.423828,0.615356,-0.647949,512
27404192,10003,-0.419922,0.616943,-0.646606,516
27414200,10008,-0.420654,0.620117,-0.647217,507
27424176,9976,-0.420410,0.620972,-0.639771,509
27434190,10014,-0.413086,0.627930,-0.636963,512
27444176,9986,-0.413330,0.635010,-0.637329,513
27454193,10017,-0.417603,0.639160,-0.640625,515
27464195,10002,-0.420288,0.640259,-0.640259,505
27474174,9979,-0.420288,0.642334,-0.641113,501
27484182,10008,-0.422485,0.642334,-0.641113,508
27494200,10018,-0.420532,0.640381,-0.640747,509
27504176,9976,-0.415649,0.631348,-0.641235,509
27514201,10025,-0.415405,0.630005,-0.642700,508
27524195,9994,-0.416138,0.633057,-0.642456,500
27534194,9999,-0.417603,0.629761,-0.642700,509
27544236,10042,-0.419434,0.625366,-0.644531,502
27554215,9979,-0.419312,0.621216,-0.643433,499
27564175,9960,-0.417725,0.619873,-0.645386,509
27574188,10013,-0.417725,0.622070,-0.645508,509
27584189,10001,-0.416504,0.625854,-0.644531,505
27594188,9999,-0.416504,0.627930,-0.645020,508
27604184,9996,-0.415039,0.628784,-0.643311,506
27614198,10014,-0.411377,0.629517,-0.643921,506
27624181,9983,-0.413208,0.626343,-0.644653,501
27634202,10021,-0.413086,0.624512,-0.643677,502
27644196,9994,-0.413696,0.622070,-0.646851,500
27654194,9998,-0.415771,0.620850,-0.647461,498
27664193,9999,-0.416260,0.620117,-0.648926,502
27674195,10002,-0.410522,0.623901,-0.648560,505
27684184,9989,-0.408936,0.628296,-0.647461,502
27694197,10013,-0.410767,0.628906,-0.650024,492
27704180,9983,-0.412476,0.629883,-0.653076,498
27714179,9999,-0.411987,0.629517,-0.653687,502
27724190,10011,-0.411377,0.635010,-0.651733,501
27734200,10010,-0.411377,0.635864,-0.651001,491
27744181,9981,-0.413330,0.636597,-0.651001,501
27754181,10000,-0.413940,0.632202,-0.650513,496
27764185,10004,-0.412842,0.624634,-0.647949,493
27774198,10013,-0.411987,0.617798,-0.644043,497
27784203,10005,-0.410400,0.614014,-0.638550,498
27794202,9999,-0.412720,0.616089,-0.636963,488
27804199,9997,-0.413452,0.621094,-0.636719,493
27814191,9992,-0.414185,0.626831,-0.634277,486
27824183,9992,-0.416504,0.632080,-0.635254,485
27834202,10019,-0.423096,0.638306,-0.640137,491
27844190,9988,-0.423218,0.639282,-0.641602,493
27854190,10000,-0.419434,0.638184,-0.644043,494
27864199,10009,-0.416870,0.637695,-0.644531,495
27874175,9976,-0.412231,0.637939,-0.645630,494
27884190,10015,-0.408813,0.636597,-0.645142,494
27894178,9988,-0.409424,0.627319,-0.644653,486
27904195,10017,-0.412720,0.624634,-0.647339,490
27914231,10036,-0.415039,0.626221,-0.649902,492
27924177,9946,-0.415039,0.629395,-0.650269,484
27934179,10002,-0.416260,0.631714,-0.649048,491
27944197,10018,-0.413208,0.626221,-0.647339,494
27954177,9980,-0.410400,0.622681,-0.647461,490
27964175,9998,-0.408569,0.620850,-0.647461,493
27974201,10026,-0.408936,0.619507,-0.646362,493
27984196,9995,-0.409424,0.619263,-0.645020,491
27994191,9995,-0.410645,0.619629,-0.641968,491
28004196,10005,-0.414673,0.624634,-0.643311,487
28014202,10006,-0.416260,0.628906,-0.644775,491
28024181,9979,-0.417114,0.632080,-0.644531,494
28034185,10004,-0.416382,0.632812,-0.644165,495
28044196,10011,-0.414307,0.630737,-0.642212,493
28054186,9990,-0.415161,0.625366,-0.644165,485
28064190,10004,-0.415039,0.627319,-0.648193,493
28074200,10010,-0.414062,0.629272,-0.647949,496
28084237,10037,-0.413452,0.631836,-0.645874,493
28094192,9955,-0.414185,0.632080,-0.645752,496
28104182,9990,-0.413452,0.625000,-0.648804,500
28114187,10005,-0.413452,0.623047,-0.651367,503
28124176,9989,-0.413208,0.622314,-0.653931,507
28134202,10026,-0.413818,0.620728,-0.654785,513
28144175,9973,-0.412598,0.618530,-0.655640,514
28154176,10001,-0.410400,0.616455,-0.655029,515
28164203,10027,-0.406860,0.620850,-0.654419,523
28174185,9982,-0.407227,0.625244,-0.655151,529
28184196,10011,-0.409180,0.626709,-0.655273,533
28194195,9999,-0.410889,0.626709,-0.654053,536
28204198,10003,-0.413208,0.628418,-0.653076,535
28214173,9975,-0.411987,0.625610,-0.646118,543
28224190,10017,-0.413940,0.625000,-0.644165,545
28234179,9989,-0.415161,0.622437,-0.642212,546
28244181,10002,-0.416382,0.621460,-0.640625,546
28254177,9996,-0.416382,0.619263,-0.639893,541
28264173,9996,-0.417603,0.619019,-0.641602,535
28274180,10007,-0.417603,0.619873,-0.640381,540
28284190,10010,-0.416382,0.622314,-0.642212,532
28294173,9983,-0.415649,0.626099,-0.644653,539
28304180,10007,-0.417114,0.627930,-0.645874,537
28314192,10012,-0.414795,0.630127,-0.647583,534
28324174,9982,-0.410645,0.629761,-0.651489,532
28334194,10020,-0.411621,0.630005,-0.653564,534
28344200,10006,-0.411377,0.629395,-0.654053,528
28354201,10001,-0.411133,0.627563,-0.654297,520
28364186,9985,-0.411743,0.626343,-0.653076,516
28374193,10007,-0.412109,0.624390,-0.651611,516
28384184,9991,-0.411255,0.621460,-0.651611,518
28394191,10007,-0.412720,0.621338,-0.650391,520
28404195,10004,-0.413452,0.620361,-0.649414,515
28414214,10019,-0.414795,0.621216,-0.648560,516
28424197,9983,-0.415527,0.621460,-0.646729,517
28434198,10001,-0.416016,0.623657,-0.646240,510
28444198,10000,-0.415161,0.626221,-0.645874,518
28454173,9975,-0.414185,0.626343,-0.646118,516
28464190,10017,-0.415039,0.626953,-0.645996,517
28474198,10008,-0.412842,0.626099,-0.646484,511
28484182,9984,-0.411743,0.625122,-0.644531,518
28494188,10006,-0.411377,0.625610,-0.644043,519
28504197,10009,-0.413696,0.626709,-0.643311,520
28514200,10003,-0.416870,0.627075,-0.642456,518
28524195,9995,-0.418457,0.626709,-0.644043,518
28534186,9991,-0.417969,0.627563,-0.641724,508
28544192,10006,-0.417358,0.627563,-0.642090,517
28554185,9993,-0.415771,0.626465,-0.643555,516
28564202,10017,-0.414429,0.627686,-0.643066,511
28574176,9974,-0.414551,0.628052,-0.645508,515
28584182,10006,-0.413696,0.627319,-0.647705,514
28594174,9992,-0.413940,0.624268,-0.651245,514
28604173,9999,-0.413330,0.623535,-0.651123,512
28614196,10023,-0.411377,0.621826,-0.651855,507
28624200,10004,-0.412354,0.621216,-0.652710,510
28634175,9975,-0.412842,0.619141,-0.651611,500
28644185,10010,-0.413208,0.617065,-0.651855,509
28654180,9995,-0.414307,0.616211,-0.650879,506
28664176,9996,-0.413818,0.617187,-0.649780,505
28674175,9999,-0.412598,0.619385,-0.649048,505
28684194,10019,-0.415039,0.620728,-0.648437,504
28695622,11428,-0.414673,0.620239,-0.649048,497
28704176,8554,0.000000,0.000000,0.000000,500
28714178,10002,-0.413696,0.619507,-0.648682,503
28724189,10011,-0.413818,0.620972,-0.648560,500
28734197,10008,-0.415161,0.622314,-0.647949,502
28744224,10027,-0.414917,0.624390,-0.646606,495
28754197,9973,-0.416260,0.626465,-0.646851,497
28764183,9986,-0.415894,0.625977,-0.646484,491
28774192,10009,-0.414551,0.626099,-0.646240,497
28784198,10006,-0.413940,0.627808,-0.646240,501
28794180,9982,-0.413574,0.628906,-0.645264,498
28804197,10017,-0.413086,0.629761,-0.645142,499
28814193,9996,-0.414551,0.629395,-0.644653,500
28824381,10188,-0.416138,0.628784,-0.645508,501
28834195,9814,-0.416260,0.628784,-0.645630,498
28844181,9986,-0.413696,0.627930,-0.644897,499
28854201,10020,-0.412720,0.627686,-0.645142,497
28864200,9999,-0.413940,0.627686,-0.645264,494
28874184,9984,-0.414551,0.627563,-0.647583,497
28884189,10005,-0.413696,0.625610,-0.648315,499
28894191,10002,-0.412720,0.625244,-0.647461,499
28904201,10010,-0.413574,0.625488,-0.646729,498
28914232,10031,-0.413696,0.626343,-0.645752,497
28924193,9961,-0.412964,0.626587,-0.647339,502
28934196,10003,-0.412598,0.624268,-0.647461,498
28944176,9980,-0.412598,0.623291,-0.647949,496
28954181,10005,-0.412720,0.623047,-0.646973,497
28964182,10001,-0.413086,0.626221,-0.647461,495
28974180,9998,-0.409912,0.629150,-0.646240,495
28984191,10011,-0.413696,0.627686,-0.648560,496
28994186,9995,-0.416504,0.629395,-0.648437,492
29004193,10007,-0.415771,0.629028,-0.647339,498
29014191,9998,-0.413940,0.630615,-0.646362,491
29024191,10000,-0.413452,0.629517,-0.644287,492
29034173,9982,-0.414429,0.624512,-0.644409,498
29044191,10018,-0.415283,0.619629,-0.643921,502
29054189,9998,-0.414307,0.618042,-0.642456,506
29064189,10000,-0.415039,0.618652,-0.644165,505
29074197,10008,-0.414917,0.623169,-0.645264,502
29084186,9989,-0.413574,0.625244,-0.645630,514
29094220,10034,-0.407959,0.625732,-0.644409,518
29104181,9961,-0.410645,0.625122,-0.650269,523
29114201,10020,-0.416870,0.624878,-0.653687,524
29124195,9994,-0.417358,0.624634,-0.652832,520
29134176,9981,-0.411011,0.629517,-0.649536,523
29144192,10016,-0.409790,0.630981,-0.648560,535
29154186,9994,-0.408325,0.632202,-0.646118,531
29164181,9995,-0.409424,0.629272,-0.647827,540
29174201,10020,-0.411255,0.626099,-0.648682,536
29184174,9973,-0.411743,0.623901,-0.648682,539
29194179,10005,-0.413330,0.626099,-0.647705,540
29204186,10007,-0.413818,0.626221,-0.647583,542
29214187,10001,-0.413330,0.626953,-0.645508,538
29224183,9996,-0.414429,0.625366,-0.644775,533
29234188,10005,-0.413696,0.625488,-0.645386,526
29244178,9990,-0.414062,0.624512,-0.645996,532
29254187,10009,-0.410400,0.624146,-0.645996,533
29264198,10011,-0.408936,0.622925,-0.645996,529
29274217,10019,-0.408203,0.623169,-0.645630,523
29284201,9984,-0.410767,0.624146,-0.644165,524
29294175,9974,-0.411865,0.622559,-0.640381,517
29304181,10006,-0.413574,0.613892,-0.635864,513
29314191,10010,-0.416016,0.609619,-0.636353,520
29324196,10005,-0.417725,0.606934,-0.636963,517
29334191,9995,-0.416504,0.606445,-0.637939,516
29344173,9982,-0.415039,0.608154,-0.638306,515
29354177,10004,-0.412842,0.610596,-0.636841,513
29364176,9999,-0.414917,0.604248,-0.628784,513
29374191,10015,-0.412354,0.605957,-0.630127,509
29384179,9988,-0.410767,0.610107,-0.638550,512
29394179,10000,-0.409058,0.616577,-0.640747,510
29404197,10018,-0.404907,0.618774,-0.639771,510
29414196,9999,-0.401245,0.622314,-0.639893,510
29424198,10002,-0.399658,0.623169,-0.639893,509
29434222,10024,-0.398804,0.627808,-0.643433,512
29444198,9976,-0.398804,0.630371,-0.645020,509
29454183,9985,-0.397217,0.630981,-0.645996,510
29464194,10011,-0.394287,0.631226,-0.651001,501
29474181,9987,-0.393433,0.632935,-0.651733,508
29484197,10016,-0.391968,0.635620,-0.652100,509
29494182,9985,-0.388550,0.639648,-0.651001,508
29504198,10016,-0.388916,0.646851,-0.649658,508
29514193,9995,-0.387573,0.653931,-0.654175,501
29524188,9995,-0.385376,0.654053,-0.653809,509
29534187,9999,-0.381592,0.653320,-0.654297,505
29544202,10015,-0.378418,0.654053,-0.652832,506
29554174,9972,-0.375488,0.655396,-0.651489,505
29564181,10007,-0.373291,0.660400,-0.648682,500
29574186,10005,-0.372559,0.673218,-0.644531,497
29584191,10005,-0.372314,0.672974,-0.642822,496
29594230,10039,-0.373657,0.669556,-0.639526,493
29604190,9960,-0.376953,0.667114,-0.637207,495
29614199,10009,-0.378174,0.663696,-0.633057,493
29624199,10000,-0.379761,0.663086,-0.627319,495
29634188,9989,-0.381348,0.664307,-0.625000,504
29644190,10002,-0.381470,0.667847,-0.620605,501
29654187,9997,-0.381348,0.669067,-0.616943,501
29664199,10012,-0.380615,0.669556,-0.616699,499
29674189,9990,-0.380615,0.668701,-0.616333,500
29684192,10003,-0.379761,0.675293,-0.616577,502
29694173,9981,-0.377686,0.676392,-0.617065,495
29704193,10020,-0.376343,0.676514,-0.616821,500
29714195,10002,-0.373779,0.677124,-0.618774,493
29724195,10000,-0.373047,0.676880,-0.617920,495
29734182,9987,-0.370117,0.673096,-0.621704,498
29744176,9994,-0.369141,0.670654,-0.626099,491
29754215,10039,-0.366943,0.660767,-0.625610,498
29764212,9997,-0.368896,0.663818,-0.627197,497
29774184,9972,-0.368896,0.672241,-0.627197,496
29784181,9997,-0.367676,0.674683,-0.626221,490
29794180,9999,-0.364868,0.683105,-0.626221,496
29804173,9993,-0.365356,0.686890,-0.627808,497
29814192,10019,-0.364502,0.680420,-0.628784,498
29824175,9983,-0.363037,0.674805,-0.628418,502
29834191,10016,-0.361816,0.669800,-0.628296,504
29844195,10004,-0.359863,0.669067,-0.623657,507
29854184,9989,-0.359619,0.671143,-0.623901,501
29864173,9989,-0.360596,0.677124,-0.623413,510
29874176,10003,-0.359253,0.680908,-0.622314,515
29884197,10021,-0.357178,0.685059,-0.622803,522
29894191,9994,-0.356567,0.691162,-0.617065,524
29904184,9993,-0.356812,0.698364,-0.615234,522
29914176,9992,-0.358521,0.698120,-0.614868,530
29924242,10066,-0.356934,0.695679,-0.614136,539
29934194,9952,-0.357178,0.695068,-0.613647,541
29944193,9999,-0.359253,0.693604,-0.612793,540
29954192,9999,-0.356567,0.693359,-0.608887,538
29964177,9985,-0.356201,0.694092,-0.609375,538
29974177,10000,-0.357178,0.695435,-0.610107,541
29984185,10008,-0.357788,0.694458,-0.609863,543
29994179,9994,-0.357788,0.691895,-0.608276,539
30004194,10015,-0.354736,0.695312,-0.609619,530
30014190,9996,-0.355103,0.696533,-0.609009,530
30024174,9984,-0.355469,0.695435,-0.607178,524
30034185,10011,-0.354980,0.693970,-0.607788,532
30044187,10002,-0.354370,0.694092,-0.608032,527
30054181,9994,-0.354614,0.692261,-0.608887,529
30064197,10016,-0.353394,0.688354,-0.606934,525
30074195,9998,-0.342896,0.684692,-0.595215,517
30084200,10005,-0.342773,0.696045,-0.606567,521
30094233,10033,-0.365845,0.701538,-0.620728,510
30104176,9943,-0.372559,0.694946,-0.614258,519
30114182,10006,-0.347168,0.700562,-0.606567,516
30124194,10012,-0.348389,0.706055,-0.609863,514
30134177,9983,-0.354126,0.703125,-0.611816,507
30144178,10001,-0.348022,0.698730,-0.606445,516
30154194,10016,-0.342773,0.693726,-0.607300,514
30164201,10007,-0.345825,0.696289,-0.609131,512
30174180,9979,-0.349976,0.699219,-0.613281,505
30184194,10014,-0.348511,0.703491,-0.611816,504
30194192,9998,-0.345703,0.706787,-0.611572,505
30204185,9993,-0.344849,0.705322,-0.608765,507
30214184,9999,-0.343750,0.702148,-0.606812,509
30224202,10018,-0.350708,0.701416,-0.609741,516
30234178,9976,-0.350098,0.702271,-0.607788,510
30244173,9995,-0.343140,0.705566,-0.605469,516
30254188,10015,-0.343018,0.705078,-0.603638,513
30264211,10023,-0.344238,0.705933,-0.603760,514
30274197,9986,-0.351685,0.705078,-0.605957,514
30284178,9981,-0.348999,0.703735,-0.603760,506
30294176,9998,-0.344727,0.703613,-0.603760,512
30304176,10000,-0.343872,0.706055,-0.603638,512
30314186,10010,-0.344971,0.707031,-0.605591,507
30324184,9998,-0.346680,0.704468,-0.604126,511
30340867,16683,-0.344604,0.697754,-0.604980,508
30346830,5963,-0.344971,0.698242,-0.606323,501
30354175,7345,-0.345581,0.699097,-0.606812,499
30364192,10017,-0.347046,0.700562,-0.609009,504
30374175,9983,-0.347900,0.703003,-0.609131,504
30384186,10011,-0.348877,0.704834,-0.609375,505
30394176,9990,-0.347778,0.701172,-0.609619,503
30404175,9999,-0.344360,0.696777,-0.608521,502
30414179,10004,-0.342773,0.692749,-0.609619,503
30424205,10026,-0.343506,0.692505,-0.610840,504
30434188,9983,-0.343994,0.689453,-0.608276,496
30444203,10015,-0.346069,0.693604,-0.609009,502
30457526,13323,-0.349121,0.698242,-0.608887,502
30464181,6655,-0.351318,0.702148,-0.607422,496
30474185,10004,-0.350464,0.704224,-0.606323,501
30484200,10015,-0.350830,0.701538,-0.606934,499
30494198,9998,-0.348999,0.697998,-0.606567,501
30504199,10001,-0.348022,0.696289,-0.604370,499
30514185,9986,-0.346069,0.698120,-0.601440,504
30524201,10016,-0.346924,0.700317,-0.602051,498
30534193,9992,-0.350342,0.703613,-0.603271,500
30544198,10005,-0.349365,0.700806,-0.607178,501
30554196,9998,-0.349121,0.699585,-0.609131,500
30564175,9979,-0.348145,0.697388,-0.608765,496
30574194,10019,-0.347290,0.696411,-0.607666,494
30584177,9983,-0.348022,0.696411,-0.606689,501
30594203,10026,-0.348999,0.695312,-0.607056,496
30604190,9987,-0.354614,0.695679,-0.605347,506
30614197,10007,-0.354980,0.695557,-0.606201,499
30624196,9999,-0.355347,0.693115,-0.606689,505
30634191,9995,-0.353882,0.693726,-0.607056,514
30644180,9989,-0.352539,0.693237,-0.608398,519
30654180,10000,-0.351196,0.692993,-0.609375,525
30664182,10002,-0.350464,0.692017,-0.609375,519
30674188,10006,-0.350098,0.692139,-0.609741,533
30684191,10003,-0.348022,0.691162,-0.611328,538
30694173,9982,-0.347900,0.688232,-0.613281,534
30704179,10006,-0.347900,0.685547,-0.614380,548
30714182,10003,-0.349243,0.687134,-0.614014,549
30724185,10003,-0.347900,0.689453,-0.613403,551
30734196,10011,-0.350830,0.691895,-0.611816,549
30744177,9981,-0.351318,0.694702,-0.610596,550
30754189,10012,-0.352051,0.696655,-0.609497,548
30764194,10005,-0.351685,0.692749,-0.607422,547
30774201,10007,-0.351563,0.692749,-0.606567,539
30784194,9993,-0.352173,0.694458,-0.605957,543
30794197,10003,-0.352661,0.695557,-0.606689,533
30804192,9995,-0.354126,0.696289,-0.605957,530
30814177,9985,-0.353271,0.700195,-0.606567,536
30824177,10000,-0.351563,0.701172,-0.608887,533
30834182,10005,-0.350708,0.700439,-0.609375,533
30844187,10005,-0.351318,0.699829,-0.609985,530
30854184,9997,-0.350464,0.696899,-0.610352,525
30864179,9995,-0.348755,0.693604,-0.610352,526
30874185,10006,-0.349731,0.690430,-0.610596,526
30884179,9994,-0.351074,0.689941,-0.609253,514
30894198,10019,-0.351318,0.691284,-0.609253,520
30904181,9983,-0.351685,0.691650,-0.609009,513
30914215,10034,-0.353760,0.690674,-0.610229,518
30924187,9972,-0.355103,0.687134,-0.610840,513
30934173,9986,-0.352661,0.688232,-0.610596,516
30944190,10017,-0.352417,0.688721,-0.610840,514
30954174,9984,-0.352905,0.690308,-0.610352,517
30964178,10004,-0.352173,0.692261,-0.609253,514
30974193,10015,-0.350708,0.692871,-0.609497,507
30984199,10006,-0.353882,0.693115,-0.610840,514
30994173,9974,-0.354980,0.692749,-0.612305,514
31004198,10025,-0.355713,0.692261,-0.612549,514
31014186,9988,-0.355469,0.692139,-0.613281,508
31024181,9995,-0.355225,0.692017,-0.612915,514
31034191,10010,-0.352417,0.694458,-0.609741,507
31044195,10004,-0.351440,0.692627,-0.610962,517
31054954,10759,-0.351929,0.689087,-0.610596,506
31064186,9232,-0.351685,0.687988,-0.610840,511
31074198,10012,-0.351440,0.685547,-0.611328,510
31084175,9977,-0.355225,0.687988,-0.612671,511
31094185,10010,-0.355347,0.691772,-0.611084,507
31104179,9994,-0.354004,0.693481,-0.611206,510
31114200,10021,-0.353882,0.694702,-0.610840,502
31124199,9999,-0.356567,0.693481,-0.610352,509
31134188,9989,-0.355225,0.692871,-0.609985,509
31144200,10012,-0.352539,0.691162,-0.609741,509
31154198,9998,-0.352417,0.691162,-0.608643,505
31164385,10187,-0.351685,0.692261,-0.610107,501
31174191,9806,-0.353027,0.691162,-0.609619,508
31184174,9983,-0.352539,0.689087,-0.609253,505
31194180,10006,-0.354980,0.688843,-0.611816,504
31204177,9997,-0.354858,0.688965,-0.613037,505
31214185,10008,-0.355591,0.688354,-0.614380,494
31224196,10011,-0.355713,0.691284,-0.612549,503
31234242,10046,-0.355103,0.692505,-0.612671,502
31244182,9940,-0.353516,0.692383,-0.612549,503
31254199,10017,-0.351563,0.690674,-0.612671,504
31264173,9974,-0.351563,0.689209,-0.612671,505
31274194,10021,-0.351440,0.687988,-0.612671,502
31284183,9989,-0.351196,0.687622,-0.612915,503
31294180,9997,-0.352051,0.687500,-0.611084,501
31304182,10002,-0.355713,0.692261,-0.614014,495
31314186,10004,-0.356934,0.691895,-0.613525,502
31324188,10002,-0.355347,0.690552,-0.611450,490
31334189,10001,-0.354248,0.689941,-0.609741,500
31344182,9993,-0.354858,0.690796,-0.610474,499
31359828,15646,-0.352173,0.692261,-0.609985,497
31372273,12445,-0.354858,0.696167,-0.610229,497
31377570,5297,0.000000,0.000000,0.000000,495
31384177,6607,-0.354736,0.695312,-0.610962,495
31394181,10004,-0.353638,0.692749,-0.610229,496
31404220,10039,-0.353516,0.691406,-0.610840,496
31414201,9981,-0.351563,0.686646,-0.611938,493
31424183,9982,-0.352905,0.686890,-0.613159,495
31434183,10000,-0.353760,0.688965,-0.614502,497
31444178,9995,-0.354858,0.688721,-0.615356,496
31457364,13186,-0.349976,0.688599,-0.613403,496
31464201,6837,0.000000,0.000000,0.000000,489
31474188,9987,-0.353516,0.687866,-0.613159,495
31484195,10007,-0.354492,0.690186,-0.612183,499
31494180,9985,-0.354980,0.691284,-0.613770,482
31504192,10012,-0.354126,0.692383,-0.613159,497
31514200,10008,-0.353760,0.692261,-0.612183,491
31524187,9987,-0.351807,0.695679,-0.613281,497
31534183,9996,-0.352661,0.693604,-0.612915,496
31544174,9991,-0.352295,0.691284,-0.611572,498
31554205,10031,-0.353638,0.688110,-0.611816,498
31564196,9991,-0.354126,0.685547,-0.611938,500
31574201,10005,-0.357422,0.683472,-0.612183,492
31584197,9996,-0.356079,0.683960,-0.611328,495
31594197,10000,-0.353271,0.684937,-0.611328,502
31604179,9982,-0.353027,0.687866,-0.612427,511
31614193,10014,-0.354492,0.689087,-0.611816,516
31624187,9994,-0.354492,0.692261,-0.613403,519
31634183,9996,-0.353394,0.693359,-0.613281,529
31644181,9998,-0.352905,0.692627,-0.614014,534
31654200,10019,-0.350464,0.693970,-0.612793,531
31664195,9995,-0.348145,0.692749,-0.613281,543
31674202,10007,-0.348511,0.692261,-0.614136,546
31684181,9979,-0.353516,0.692627,-0.614502,542
31694181,10000,-0.355347,0.693481,-0.615356,555
31704200,10019,-0.354858,0.696411,-0.614014,544
31714184,9984,-0.354614,0.699585,-0.613770,548
31724199,10015,-0.354492,0.698975,-0.611572,546
31734193,9994,-0.352417,0.693115,-0.609741,549
31744176,9983,-0.355469,0.689819,-0.609253,550
31754191,10015,-0.355713,0.688477,-0.609375,549
31764193,10002,-0.354858,0.688599,-0.610840,548
31774185,9992,-0.355469,0.689819,-0.609497,544
31784201,10016,-0.354858,0.692505,-0.608032,544
31794199,9998,-0.355713,0.691406,-0.610107,540
31804189,9990,-0.354858,0.688232,-0.612061,537
31814192,10003,-0.356323,0.685669,-0.612305,531
31824200,10008,-0.353516,0.684082,-0.612549,527
31834187,9987,-0.353516,0.685181,-0.613281,528
31844178,9991,-0.351929,0.685913,-0.613403,530
31854190,10012,-0.354126,0.684814,-0.613892,528
31864199,10009,-0.353516,0.685303,-0.613159,527
31874185,9986,-0.353516,0.687378,-0.613647,524
31884194,10009,-0.355347,0.687866,-0.614136,528
31894188,9994,-0.355591,0.686279,-0.615479,518
31904180,9992,-0.355103,0.686035,-0.615723,524
31914188,10008,-0.353882,0.687866,-0.614746,519
31924182,9994,-0.353394,0.691162,-0.613525,523
31934175,9993,-0.354370,0.693604,-0.613892,521
31944198,10023,-0.353760,0.695557,-0.613403,524
31954200,10002,-0.354370,0.695679,-0.612915,517
31964196,9996,-0.354492,0.693848,-0.612793,516
31974189,9993,-0.355591,0.691895,-0.611328,519
31984194,10005,-0.354370,0.689941,-0.609985,518
31994195,10001,-0.354492,0.689453,-0.608765,515
32004200,10005,-0.356567,0.688232,-0.609497,517
32014186,9986,-0.356201,0.687622,-0.610474,517
32024174,9988,-0.355957,0.685181,-0.610962,518
32034176,10002,-0.356689,0.686646,-0.611206,512
32044200,10024,-0.357300,0.686768,-0.611694,516
32054215,10015,-0.358032,0.688843,-0.611572,519
32064220,10005,-0.355225,0.690186,-0.611694,511
32074188,9968,-0.353149,0.688721,-0.612305,512
32084201,10013,-0.353638,0.686890,-0.613647,514
32094194,9993,-0.353149,0.687134,-0.615845,506
32104194,10000,-0.352905,0.687988,-0.616211,506
32114202,10008,-0.353394,0.690063,-0.615723,510
32124183,9981,-0.354492,0.692139,-0.615234,509
32134196,10013,-0.355103,0.691895,-0.615356,508
32144186,9990,-0.353882,0.691040,-0.614624,512
32154185,9999,-0.353638,0.688599,-0.614502,499
32164181,9996,-0.354492,0.687622,-0.611328,499
32174198,10017,-0.356445,0.689209,-0.612061,506
32184201,10003,-0.357178,0.690796,-0.611694,505
32194183,9982,-0.356079,0.691650,-0.610474,504
32204187,10004,-0.356445,0.692017,-0.609741,501
32214199,10012,-0.355835,0.692017,-0.610596,502
32224197,9998,-0.355469,0.687256,-0.610596,500
32234194,9997,-0.355347,0.686768,-0.610596,503
32244196,10002,-0.355591,0.685669,-0.612427,497
32254193,9997,-0.355469,0.687744,-0.612061,492
32264191,9998,-0.355469,0.689209,-0.612671,492
32274200,10009,-0.353638,0.691040,-0.611938,502
32284198,9998,-0.357544,0.692749,-0.618286,513
32294202,10004,-0.361694,0.688477,-0.618896,500
32304187,9985,-0.359009,0.686035,-0.616943,495
32314183,9996,-0.354858,0.684326,-0.614624,503
32324196,10013,-0.352173,0.687622,-0.614136,497
32334198,10002,-0.349854,0.687500,-0.613525,504
32344176,9978,-0.354614,0.685913,-0.614380,493
32354181,10005,-0.355347,0.685669,-0.612305,496
32369347,15166,-0.355713,0.691284,-0.611816,496
32375777,6430,0.000000,0.000000,0.000000,496
32384180,8403,-0.357910,0.692261,-0.613770,487
32394220,10040,-0.357544,0.691895,-0.612915,496
32404184,9964,-0.356934,0.690674,-0.612671,495
32414195,10011,-0.357422,0.691162,-0.611328,489
32424191,9996,-0.358643,0.689819,-0.613403,496
32434191,10000,-0.359497,0.688354,-0.612305,498
32444183,9992,-0.357178,0.688354,-0.609863,501
32454201,10018,-0.355713,0.685303,-0.609375,494
32464198,9997,-0.356812,0.686523,-0.609619,501
32474180,9982,-0.359131,0.688110,-0.610718,510
32484181,10001,-0.356567,0.687500,-0.608276,511
32494183,10002,-0.359863,0.687378,-0.617432,520
32504191,10008,-0.359253,0.684448,-0.619019,526
32514202,10011,-0.354980,0.683716,-0.617187,532
32524182,9980,-0.353149,0.683960,-0.618774,536
32534186,10004,-0.351807,0.683716,-0.617065,542
32544183,9997,-0.351196,0.681763,-0.618896,545
32554200,10017,-0.352295,0.679077,-0.619019,549
32564201,10001,-0.355469,0.680298,-0.620605,549
32574176,9975,-0.356079,0.682129,-0.619873,550
32584185,10009,-0.355835,0.685303,-0.619751,544
32594193,10008,-0.356567,0.687866,-0.617310,548
32604184,9991,-0.358276,0.692505,-0.614258,547
32614183,9999,-0.359741,0.689087,-0.611572,544
32624177,9994,-0.360107,0.686523,-0.611450,534
32634192,10015,-0.359741,0.684570,-0.611206,541
32644179,9987,-0.360352,0.686401,-0.613403,530
32654198,10019,-0.360962,0.689087,-0.611328,537
32664187,9989,-0.360107,0.690918,-0.611572,529
32674186,9999,-0.359009,0.691650,-0.612793,527
32684186,10000,-0.359009,0.691040,-0.613892,521
32694201,10015,-0.358398,0.688477,-0.614258,527
32704191,9990,-0.356201,0.688110,-0.614746,525
32714191,10000,-0.356567,0.682739,-0.615601,526
32724182,9991,-0.355225,0.682861,-0.616699,524
32734218,10036,-0.354248,0.682129,-0.615845,516
32744208,9990,-0.355225,0.682861,-0.615479,510
32754174,9966,-0.356201,0.682129,-0.615845,520
32764186,10012,-0.357178,0.680908,-0.616577,518
32774177,9991,-0.358154,0.681885,-0.616943,518
32784202,10025,-0.359009,0.683594,-0.617187,519
32797207,13005,-0.359131,0.684814,-0.619507,517
32804176,6969,-0.358765,0.685059,-0.619385,516
32814177,10001,-0.358154,0.684937,-0.617676,520
32824178,10001,-0.356445,0.687012,-0.617065,520
32834181,10003,-0.357056,0.686157,-0.615234,518
32844178,9997,-0.357788,0.686157,-0.616211,514
32854192,10014,-0.356689,0.683350,-0.615723,509
32864189,9997,-0.357666,0.680664,-0.615234,514
32874188,9999,-0.357544,0.680786,-0.614502,514
32886283,12095,-0.357544,0.683105,-0.615356,511
32894228,7945,-0.359131,0.685791,-0.614502,514
32904188,9960,-0.359009,0.687500,-0.614258,514
32914179,9991,-0.359009,0.688232,-0.613892,505
32924198,10019,-0.358276,0.689209,-0.614868,503
32934201,10003,-0.357544,0.689697,-0.614258,511
32944180,9979,-0.357056,0.689575,-0.615479,502
32954194,10014,-0.357788,0.690186,-0.613403,507
32964181,9987,-0.356079,0.688599,-0.615479,508
32974182,10001,-0.357666,0.686890,-0.616455,505
32984180,9998,-0.357300,0.680542,-0.617554,505
32994178,9998,-0.356812,0.679565,-0.618164,507
33004193,10015,-0.356323,0.681519,-0.617676,499
33014191,9998,-0.356323,0.683716,-0.617554,502
33024203,10012,-0.357300,0.684448,-0.616211,500
33034192,9989,-0.357666,0.685181,-0.617065,501
33044194,10002,-0.358154,0.682861,-0.616821,492
33054179,9985,-0.358398,0.684082,-0.616089,499
33064229,10050,-0.359375,0.684814,-0.614502,499
33074204,9975,-0.358154,0.686890,-0.614380,499
33084185,9981,-0.358643,0.685303,-0.614258,502
33094197,10012,-0.358032,0.683838,-0.614868,501
33104200,10003,-0.356812,0.682617,-0.613647,498
33114193,9993,-0.357178,0.683105,-0.614746,501
33124188,9995,-0.357178,0.682983,-0.615723,500
33134182,9994,-0.358276,0.685059,-0.616943,499
33144178,9996,-0.359131,0.686768,-0.617187,500
33154173,9995,-0.358154,0.687012,-0.616455,495
33164174,10001,-0.358276,0.687622,-0.616455,498
33174187,10013,-0.355957,0.686279,-0.615723,498
33184185,9998,-0.354858,0.684937,-0.615967,497
33194201,10016,-0.355225,0.685791,-0.614746,502
33204187,9986,-0.359131,0.686523,-0.614746,498
33214190,10003,-0.359863,0.686646,-0.615479,487
33224175,9985,-0.358643,0.684814,-0.614624,496
33234203,10028,-0.360352,0.683716,-0.614746,494
33244195,9992,-0.359741,0.685425,-0.614014,487
33254185,9990,-0.360596,0.687256,-0.613403,494
33264177,9992,-0.359741,0.686035,-0.613892,483
33274188,10011,-0.358032,0.684937,-0.614258,486
33284185,9997,-0.356812,0.684082,-0.614136,492
33294193,10008,-0.355591,0.683594,-0.614624,491
33304174,9981,-0.355713,0.687378,-0.616089,492
33314198,10024,-0.356445,0.688354,-0.616333,485
33324202,10004,-0.355957,0.687622,-0.617310,492
33334173,9971,-0.356079,0.688477,-0.618652,491
33344173,10000,-0.356445,0.688354,-0.618408,488
33354184,10011,-0.357178,0.689331,-0.619385,487
33364195,10011,-0.357300,0.686768,-0.617676,493
33374198,10003,-0.358154,0.684082,-0.614990,497
33384194,9996,-0.360229,0.682495,-0.613037,493
33394185,9991,-0.359497,0.679199,-0.611938,496
33404187,10002,-0.359619,0.678833,-0.612793,501
33414183,9996,-0.357544,0.679565,-0.614624,507
33424196,10013,-0.358276,0.679932,-0.614502,506
33434177,9981,-0.357910,0.681519,-0.616699,515
33444185,10008,-0.357178,0.682983,-0.617432,523
33454186,10001,-0.355591,0.683716,-0.618164,519
33464201,10015,-0.355347,0.685669,-0.618896,534
33474197,9996,-0.354248,0.688477,-0.617920,537
33484229,10032,-0.353760,0.690430,-0.619019,538
33496060,11831,-0.354980,0.690063,-0.618530,541
33504179,8119,-0.356201,0.691284,-0.618652,549
33514175,9996,-0.357056,0.691162,-0.616821,543
33524189,10014,-0.357056,0.691528,-0.614746,552
33534200,10011,-0.357056,0.689087,-0.614258,553
33544199,9999,-0.356812,0.686890,-0.613525,548
33554218,10019,-0.356079,0.683228,-0.615112,551
33564186,9968,-0.357422,0.682129,-0.614624,548
33574194,10008,-0.358643,0.681763,-0.612427,547
33584199,10005,-0.357544,0.683838,-0.613770,545
33594179,9980,-0.358398,0.685181,-0.613403,538
33604173,9994,-0.358276,0.685669,-0.615112,535
33614174,10001,-0.356812,0.685181,-0.615601,535
33624194,10020,-0.356445,0.684937,-0.616455,536
33634186,9992,-0.356079,0.688354,-0.616333,532
33644181,9995,-0.355957,0.687866,-0.614990,530
33654174,9993,-0.355103,0.687500,-0.613525,530
33664178,10004,-0.355103,0.685303,-0.614990,528
33674201,10023,-0.356079,0.683350,-0.613525,525
33684201,10000,-0.354248,0.684937,-0.613525,519
33694188,9987,-0.355591,0.688354,-0.611572,522
33704202,10014,-0.358276,0.692261,-0.613892,522
33714191,9989,-0.361572,0.691528,-0.614868,522
33724183,9992,-0.359009,0.690796,-0.613770,519
33734175,9992,-0.355835,0.689087,-0.614868,524
33744177,10002,-0.354370,0.687988,-0.616821,520
33754188,10011,-0.352661,0.688721,-0.616455,520
33764189,10001,-0.353638,0.688843,-0.617065,511
33774194,10005,-0.353394,0.690186,-0.617065,519
33784187,9993,-0.353149,0.691406,-0.618286,520
33794184,9997,-0.353638,0.688477,-0.617432,520
33804186,10002,-0.355957,0.686890,-0.616943,517
33814186,10000,-0.357422,0.685059,-0.617676,512
33824195,10009,-0.356323,0.683228,-0.616211,512
33834180,9985,-0.356201,0.681396,-0.615356,517
33844197,10017,-0.356812,0.682983,-0.613892,509
33854179,9982,-0.356567,0.683472,-0.614624,516
33864176,9997,-0.355957,0.683594,-0.614258,516
33874196,10020,-0.358032,0.683105,-0.614502,518
33884203,10007,-0.356934,0.683594,-0.615356,513
33894213,10010,-0.356445,0.684326,-0.615356,512
33904203,9990,-0.356812,0.687866,-0.614502,512
33914192,9989,-0.355347,0.687988,-0.614624,512
33924202,10010,-0.355469,0.687134,-0.615967,509
33934199,9997,-0.357300,0.686035,-0.614990,502
33944191,9992,-0.356201,0.684692,-0.618042,504
33954195,10004,-0.355713,0.689453,-0.615967,504
33964198,10003,-0.354248,0.690063,-0.615234,504
33974193,9995,-0.355957,0.691528,-0.614624,498
33984195,10002,-0.356445,0.692017,-0.614990,498
33994199,10004,-0.358154,0.689697,-0.615601,502
34004194,9995,-0.357788,0.687744,-0.615234,503
34014184,9990,-0.357056,0.684692,-0.615723,494
34024178,9994,-0.358521,0.684814,-0.614014,502
34034182,10004,-0.356934,0.684570,-0.613770,494
34044196,10014,-0.354614,0.684570,-0.614990,494
34054227,10031,-0.355957,0.682739,-0.613403,501
34064174,9947,-0.358521,0.682617,-0.614502,495
34074190,10016,-0.358276,0.681519,-0.615356,499
34084177,9987,-0.357544,0.683960,-0.614990,496
34094173,9996,-0.356934,0.686890,-0.615234,498
34104200,10027,-0.357056,0.688965,-0.617432,500
34114177,9977,-0.356201,0.691650,-0.617310,495
34124180,10003,-0.357544,0.688721,-0.617310,493
34134196,10016,-0.357666,0.686768,-0.615601,494
34144179,9983,-0.357666,0.684448,-0.613770,498
34154203,10024,-0.360107,0.682739,-0.613281,498
34164180,9977,-0.359985,0.681274,-0.613403,502
34174198,10018,-0.359863,0.680664,-0.615112,501
34184185,9987,-0.360352,0.682617,-0.614746,499
34194190,10005,-0.359009,0.682373,-0.616455,502
34204175,9985,-0.357666,0.683960,-0.614502,517
34214193,10018,-0.355591,0.685547,-0.616089,510
34224196,10003,-0.356201,0.689697,-0.616577,523
34234185,9989,-0.356079,0.690918,-0.617432,528
34244178,9993,-0.356201,0.688354,-0.617310,531
34254177,9999,-0.356689,0.687012,-0.616943,534
34264191,10014,-0.357666,0.686035,-0.616211,539
34274181,9990,-0.358521,0.685913,-0.616455,537
34284202,10021,-0.358154,0.685425,-0.614868,533
34294201,9999,-0.358765,0.686523,-0.614136,543
34304185,9984,-0.359375,0.686523,-0.614258,537
34314178,9993,-0.358521,0.685547,-0.615601,537
34324178,10000,-0.358521,0.683105,-0.612915,536
34334195,10017,-0.356812,0.683105,-0.612305,537
34344196,10001,-0.359009,0.682251,-0.615112,536
34354189,9993,-0.360107,0.682373,-0.615845,533
34364179,9990,-0.360229,0.681763,-0.616333,531
34374190,10011,-0.358154,0.681763,-0.617187,527
34384214,10024,-0.356079,0.682129,-0.619385,530
34394215,10001,-0.357300,0.685425,-0.620483,522
34404189,9974,-0.358276,0.684692,-0.619629,525
34414190,10001,-0.358521,0.684692,-0.618530,521
34424193,10003,-0.357910,0.683594,-0.616577,523
34434175,9982,-0.357788,0.683716,-0.615967,514
34444186,10011,-0.357300,0.683838,-0.613403,515
34454177,9991,-0.356934,0.684082,-0.613647,510
34464187,10010,-0.357300,0.682861,-0.614380,510
34474184,9997,-0.357788,0.683472,-0.614136,517
34484176,9992,-0.359741,0.684814,-0.613403,515
34494201,10025,-0.359375,0.688721,-0.613159,516
34504176,9975,-0.358765,0.689331,-0.614380,514
34514175,9999,-0.359253,0.689697,-0.614746,509
34524200,10025,-0.359619,0.689697,-0.615112,517
34534193,9993,-0.359131,0.687134,-0.615723,510
34544221,10028,-0.357544,0.687500,-0.615234,516
34554197,9976,-0.359009,0.683838,-0.617065,516
34564207,10010,-0.356689,0.683472,-0.616821,506
34574194,9987,-0.357178,0.681763,-0.617798,510
34584191,9997,-0.359131,0.680542,-0.617798,516
34594181,9990,-0.357178,0.678589,-0.617432,517
34604189,10008,-0.357544,0.676514,-0.619019,515
34614183,9994,-0.356812,0.676636,-0.619141,515
34624193,10010,-0.357422,0.677979,-0.617065,510
34634175,9982,-0.358643,0.678223,-0.618652,505
34644199,10024,-0.358887,0.682129,-0.617920,511
34654196,9997,-0.358643,0.684082,-0.616211,504
34664199,10003,-0.358643,0.684814,-0.615234,512
34674194,9995,-0.357788,0.686035,-0.614258,504
34684191,9997,-0.358276,0.686523,-0.613770,513
34694186,9995,-0.358643,0.687988,-0.611816,511
34704186,10000,-0.357056,0.692139,-0.611084,506
34714174,9988,-0.359497,0.694824,-0.609741,498
34724182,10008,-0.360840,0.693481,-0.610229,505
34734188,10006,-0.360962,0.691040,-0.611694,499
34744175,9987,-0.359619,0.690308,-0.610352,503
34754198,10023,-0.357422,0.689453,-0.611328,499
34764188,9990,-0.357422,0.689819,-0.613037,501
34774187,9999,-0.357666,0.689331,-0.613770,503
34784196,10009,-0.357056,0.688721,-0.614624,499
34794188,9992,-0.357544,0.687256,-0.616455,500
34804175,9987,-0.357788,0.684692,-0.616943,502
34816197,12022,-0.358154,0.683716,-0.616699,500
34825714,9517,-0.357788,0.683105,-0.617065,501
34834176,8462,-0.356812,0.683472,-0.616699,502
34844201,10025,-0.356079,0.684448,-0.616699,498
34854193,9992,-0.355957,0.685669,-0.615601,494
34864202,10009,-0.356323,0.686646,-0.614258,491
34874181,9979,-0.358887,0.688354,-0.613770,499
34884213,10032,-0.357300,0.687134,-0.612305,499
34894178,9965,-0.356934,0.688110,-0.612915,496
34904197,10019,-0.357056,0.690186,-0.611694,497
34914196,9999,-0.356689,0.690430,-0.610596,496
34924202,10006,-0.356934,0.691406,-0.610718,494
34934183,9981,-0.357422,0.690918,-0.613525,494
34944197,10014,-0.361206,0.689209,-0.616455,489
34954197,10000,-0.364990,0.685425,-0.618408,495
34964199,10002,-0.368286,0.683105,-0.618652,495
34974203,10004,-0.367554,0.682373,-0.619507,492
34984200,9997,-0.360840,0.689697,-0.625000,492
34994189,9989,-0.357422,0.691528,-0.627563,494
35004189,10000,-0.355103,0.691528,-0.630615,494
35014177,9988,-0.355103,0.684937,-0.633057,493
35024201,10024,-0.354004,0.684448,-0.630493,484
35034179,9978,-0.348999,0.686157,-0.629639,488
35044175,9996,-0.350464,0.693359,-0.625732,494
35054221,10046,-0.358521,0.693115,-0.622925,491
35064184,9963,-0.364746,0.687500,-0.621582,494
35074191,10007,-0.371094,0.677368,-0.614868,497
35084192,10001,-0.372803,0.664307,-0.611084,496
35094188,9996,-0.369751,0.655029,-0.608887,493
35104176,9988,-0.369629,0.654663,-0.604004,502
35114188,10012,-0.370605,0.654053,-0.599609,507
35124195,10007,-0.369385,0.657593,-0.607300,510
35134173,9978,-0.369873,0.654175,-0.608398,511
35144181,10008,-0.367920,0.660522,-0.612427,520
35154200,10019,-0.364624,0.669189,-0.613525,518
35164185,9985,-0.363159,0.677124,-0.614136,531
35174200,10015,-0.360718,0.687134,-0.614990,531
35184201,10001,-0.361206,0.691650,-0.617798,540
35194185,9984,-0.361572,0.696411,-0.622314,543
35204180,9995,-0.361572,0.700317,-0.627686,546
35214176,9996,-0.362549,0.701904,-0.630005,540
35224179,10003,-0.362549,0.702759,-0.630249,546
35234196,10017,-0.360962,0.702881,-0.628662,550
35244201,10005,-0.361206,0.702393,-0.627197,548
35254185,9984,-0.362915,0.694946,-0.625244,548
35264187,10002,-0.363281,0.690063,-0.623535,546
35274189,10002,-0.363647,0.683228,-0.620605,545
35284177,9988,-0.364136,0.677856,-0.616211,544
35294192,10015,-0.365479,0.674683,-0.614136,543
35304199,10007,-0.368896,0.671631,-0.611328,542
35314179,9980,-0.376953,0.665894,-0.606201,537
35324179,10000,-0.379272,0.664429,-0.605103,531
35334199,10020,-0.380493,0.664917,-0.604004,539
35344188,9989,-0.380615,0.666016,-0.604492,534
35354193,10005,-0.379028,0.667480,-0.604614,532
35364187,9994,-0.375610,0.667114,-0.605347,536
35374189,10002,-0.373413,0.667603,-0.607666,528
35384183,9994,-0.371704,0.668579,-0.607788,529
35394188,10005,-0.369263,0.669312,-0.611694,532
35404206,10018,-0.370728,0.671753,-0.615723,530
35414710,10504,-0.372681,0.678467,-0.624146,526
35424174,9464,-0.370361,0.682495,-0.627319,525
35436524,12350,-0.368164,0.683594,-0.629150,523
35444177,7653,-0.365234,0.684082,-0.630005,520
35454193,10016,-0.361572,0.682617,-0.630005,512
35464176,9983,-0.360474,0.681641,-0.631348,517
35474175,9999,-0.359985,0.675659,-0.626099,517
35484198,10023,-0.361206,0.675537,-0.625366,509
35494192,9994,-0.362793,0.676025,-0.622437,518
35504184,9992,-0.365479,0.677246,-0.620728,510
35514197,10013,-0.367676,0.677979,-0.618652,516
35524200,10003,-0.369507,0.671631,-0.615234,517
35534197,9997,-0.374268,0.669556,-0.614502,506
35544175,9978,-0.375488,0.665283,-0.613281,511
35554186,10011,-0.375732,0.664551,-0.613403,513
35564173,9987,-0.375244,0.666260,-0.613403,508
35574176,10003,-0.375977,0.667725,-0.614380,506
35584215,10039,-0.370728,0.671387,-0.617432,512
35594185,9970,-0.369385,0.674316,-0.618774,503
35604178,9993,-0.369751,0.676270,-0.621094,510
35614189,10011,-0.368164,0.678345,-0.622803,508
35624179,9990,-0.368530,0.679810,-0.624268,507
35634195,10016,-0.367188,0.683594,-0.624756,499
35644179,9984,-0.368774,0.685059,-0.624268,503
35654175,9996,-0.368164,0.685913,-0.623901,502
35664191,10016,-0.367188,0.686279,-0.620972,503
35674176,9985,-0.367065,0.684570,-0.620728,499
35684194,10018,-0.367432,0.682983,-0.619263,493
35694202,10008,-0.371338,0.675049,-0.615601,494
35704183,9981,-0.371338,0.672363,-0.614380,502
35714198,10015,-0.371704,0.671143,-0.612305,499
35724192,9994,-0.373291,0.671265,-0.611328,500
35734178,9986,-0.372681,0.672485,-0.611694,502
35744200,10022,-0.372681,0.672363,-0.614014,502
35754181,9981,-0.371704,0.669312,-0.614746,502
35764188,10007,-0.371704,0.668091,-0.617065,501
35774203,10015,-0.370605,0.668091,-0.617554,494
35784194,9991,-0.371948,0.669312,-0.620850,501
35794193,9999,-0.373535,0.672363,-0.623413,499
35804173,9980,-0.371094,0.683105,-0.625244,495
35814201,10028,-0.365845,0.686157,-0.624512,491
35824175,9974,-0.364258,0.686523,-0.624146,492
35834180,10005,-0.364136,0.684448,-0.624390,494
35844193,10013,-0.365234,0.677979,-0.624390,498
35854182,9989,-0.369263,0.662720,-0.619873,499
35864183,10001,-0.371582,0.658813,-0.617554,501
35874195,10012,-0.373169,0.654541,-0.616577,495
35884200,10005,-0.375244,0.654419,-0.617065,488
35894201,10001,-0.374634,0.656250,-0.617187,498
35904190,9989,-0.374146,0.665039,-0.620361,488
35914199,10009,-0.373047,0.671387,-0.621704,488
35924201,10002,-0.370117,0.676758,-0.621704,494
35934177,9976,-0.368286,0.680908,-0.622681,489
35944187,10010,-0.366089,0.683594,-0.622192,496
35954176,9989,-0.365601,0.683960,-0.622803,496
35964196,10020,-0.362793,0.685425,-0.621826,495
35974202,10006,-0.363647,0.685669,-0.617676,487
35984176,9974,-0.363159,0.683838,-0.614502,492
35994192,10016,-0.364258,0.682129,-0.611816,486
36004191,9999,-0.366821,0.681396,-0.612183,492
36014179,9988,-0.368774,0.691650,-0.609985,490
36024182,10003,-0.369019,0.684814,-0.606323,492
36034193,10011,-0.370117,0.677612,-0.602417,491
36044191,9998,-0.370728,0.670654,-0.603638,494
36054190,9999,-0.372681,0.668579,-0.604004,495
36064175,9985,-0.374268,0.669678,-0.602051,492
36074180,10005,-0.373413,0.677856,-0.594116,504
36084181,10001,-0.375000,0.682129,-0.593994,498
36094203,10022,-0.374512,0.683960,-0.596436,512
36104199,9996,-0.371094,0.687134,-0.600342,510
36114174,9975,-0.367188,0.692017,-0.602905,523
36124189,10015,-0.361572,0.706909,-0.607056,517
36134202,10013,-0.360474,0.715088,-0.611450,534
36144179,9977,-0.358887,0.719971,-0.613281,532
36154197,10018,-0.357910,0.719482,-0.615967,541
36164196,9999,-0.357422,0.717163,-0.618774,546
36174195,9999,-0.357178,0.712891,-0.622192,547
36184191,9996,-0.358521,0.702026,-0.626465,548
36194195,10004,-0.358154,0.698242,-0.628174,547
36204202,10007,-0.357910,0.694702,-0.626099,550
36214202,10000,-0.358276,0.691284,-0.624512,547
36224184,9982,-0.358765,0.688110,-0.624512,547
36234200,10016,-0.367432,0.679443,-0.622192,543
36244201,10001,-0.367920,0.676147,-0.620239,545
36254184,9983,-0.367676,0.674438,-0.618164,544
36264183,9999,-0.368652,0.672485,-0.615356,539
36274186,10003,-0.366455,0.669678,-0.612671,538
36284192,10006,-0.365723,0.661865,-0.611450,537
36294187,9995,-0.369385,0.661377,-0.611450,534
36304200,10013,-0.372681,0.658325,-0.610718,528
36314195,9995,-0.376709,0.657227,-0.609619,531
36324198,10003,-0.378296,0.657715,-0.610840,527
36334198,10000,-0.378906,0.661621,-0.610596,528
36344200,10002,-0.371216,0.674438,-0.611816,523
36354202,10002,-0.366455,0.680908,-0.613037,517
36364199,9997,-0.364258,0.687622,-0.614746,519
36374182,9983,-0.363770,0.690430,-0.615112,521
36384184,10002,-0.362671,0.692139,-0.616699,513
36394201,10017,-0.362427,0.688965,-0.618896,512
36404176,9975,-0.363159,0.687988,-0.619263,518
36414187,10011,-0.363525,0.687988,-0.620117,519
36424196,10009,-0.364258,0.687256,-0.620361,518
36434189,9993,-0.364746,0.687134,-0.619873,516
36444198,10009,-0.366821,0.682739,-0.620117,511
36454187,9989,-0.370728,0.669312,-0.617798,516
36464186,9999,-0.367676,0.663574,-0.615112,507
36474224,10038,-0.366089,0.660645,-0.615112,509
36484200,9976,-0.364868,0.660400,-0.615601,506
36494188,9988,-0.366089,0.661377,-0.614868,513
36504185,9997,-0.367798,0.664795,-0.616211,512
36514183,9998,-0.367798,0.667358,-0.615479,510
36524183,10000,-0.367310,0.670410,-0.615234,509
36534199,10016,-0.365112,0.676270,-0.615234,508
36544181,9982,-0.365601,0.682739,-0.617310,504
36554193,10012,-0.365234,0.686890,-0.617310,505
36564191,9998,-0.361816,0.691650,-0.616455,505
36574188,9997,-0.362671,0.692871,-0.616455,503
36584197,10009,-0.364380,0.693726,-0.616699,499
36594194,9997,-0.367310,0.694092,-0.618164,496
36604189,9995,-0.367676,0.695068,-0.618286,492
36614198,10009,-0.362671,0.695435,-0.613770,500
36624184,9986,-0.364258,0.694458,-0.613525,496
36634190,10006,-0.364258,0.692749,-0.613647,490
36644229,10039,-0.364258,0.690918,-0.614868,493
36654203,9974,-0.365234,0.686646,-0.613159,493
36664186,9983,-0.365112,0.683594,-0.612915,499
36674182,9996,-0.369507,0.683594,-0.611328,492
36684197,10015,-0.369995,0.682129,-0.611816,501
36694186,9989,-0.367798,0.681030,-0.609131,499
36704181,9995,-0.366577,0.678711,-0.610229,498
36714184,10003,-0.367188,0.678101,-0.610107,496
36724202,10018,-0.369995,0.676880,-0.613647,491
36734196,9994,-0.368652,0.678589,-0.613037,500
36744194,9998,-0.367920,0.678711,-0.613403,500
36754200,10006,-0.365723,0.679321,-0.613525,500
36764183,9983,-0.364136,0.680542,-0.612427,491
36774191,10008,-0.362549,0.679687,-0.616577,499
36784182,9991,-0.364380,0.677979,-0.617065,496
36794177,9995,-0.364990,0.677856,-0.617554,498
36804189,10012,-0.364868,0.679810,-0.618408,498
36814186,9997,-0.364502,0.682129,-0.618164,491
36824194,10008,-0.364136,0.687012,-0.618042,493
36834215,10021,-0.364990,0.691284,-0.617065,498
36844174,9959,-0.365845,0.689941,-0.615967,497
36854197,10023,-0.366455,0.690063,-0.615234,497
36864195,9998,-0.367188,0.688721,-0.614014,495
36874174,9979,-0.369019,0.688354,-0.612915,488
36884189,10015,-0.368286,0.683472,-0.609497,499
36894183,9994,-0.368530,0.681763,-0.608765,500
36904181,9998,-0.367432,0.679199,-0.608887,503
36914200,10019,-0.368530,0.677979,-0.610352,505
36924175,9975,-0.369385,0.677002,-0.612549,499
36934186,10011,-0.368530,0.676147,-0.616089,510
36944187,10001,-0.365723,0.677734,-0.616821,518
36954477,10290,-0.363037,0.678955,-0.616577,526
36964182,9705,-0.360229,0.680054,-0.616821,525
36974188,10006,-0.361206,0.680542,-0.619141,534
36984191,10003,-0.364624,0.680664,-0.619507,538
36994188,9997,-0.369751,0.683472,-0.622437,536
37004184,9996,-0.370972,0.685425,-0.621704,545
37014187,10003,-0.369019,0.684937,-0.620850,548
37024189,10002,-0.370728,0.684692,-0.621338,545
37034177,9988,-0.371582,0.680542,-0.619995,549
37044184,10007,-0.368408,0.670410,-0.613403,553
37054186,10002,-0.359131,0.668091,-0.609253,554
37064177,9991,-0.358521,0.666382,-0.606079,551
37074192,10015,-0.360596,0.664062,-0.604248,549
37084200,10008,-0.362915,0.667114,-0.605103,542
37094181,9981,-0.370728,0.673218,-0.612305,533
37104179,9998,-0.393433,0.686035,-0.627930,542
37114187,10008,-0.382690,0.689453,-0.618652,543
37124199,10012,-0.367188,0.698242,-0.615112,529
37134190,9991,-0.362915,0.699219,-0.615234,530
37144177,9987,-0.361206,0.694458,-0.613159,529
37154201,10024,-0.355347,0.673218,-0.608765,533
37164197,9996,-0.362183,0.670898,-0.612183,528
37174192,9995,-0.368164,0.676758,-0.616211,525
37184177,9985,-0.371704,0.685303,-0.616455,524
37194182,10005,-0.372437,0.690796,-0.617798,516
37204196,10014,-0.372437,0.689087,-0.613403,521
37214202,10006,-0.371826,0.672607,-0.610229,518
37224193,9991,-0.369141,0.666992,-0.610718,509
37234189,9996,-0.369141,0.666382,-0.616943,519
37244188,9999,-0.368652,0.669800,-0.616821,519
37254181,9993,-0.364624,0.677490,-0.617798,509
37264190,10009,-0.366699,0.690430,-0.616211,513
37274177,9987,-0.368408,0.691040,-0.615356,520
37284182,10005,-0.368164,0.687622,-0.614502,519
37294180,9998,-0.366943,0.682007,-0.614746,516
37304179,9999,-0.365356,0.676147,-0.614502,510
37314190,10011,-0.365234,0.674194,-0.617676,518
37324182,9992,-0.370605,0.675293,-0.616333,512
37334220,10038,-0.369385,0.675293,-0.614868,512
37344196,9976,-0.367188,0.676880,-0.613281,513
37354177,9981,-0.367798,0.677246,-0.614014,514
37364189,10012,-0.369263,0.677734,-0.614868,513
37374197,10008,-0.371216,0.679810,-0.619141,506
37384181,9984,-0.371582,0.680420,-0.618652,511
37394187,10006,-0.367310,0.681274,-0.616577,505
37404191,10004,-0.364990,0.684204,-0.614990,512
37414192,10001,-0.363892,0.685791,-0.612915,503
37424201,10009,-0.365967,0.686890,-0.614136,510
37434178,9977,-0.369751,0.685181,-0.614014,506
37444198,10020,-0.369507,0.683716,-0.614380,506
37454199,10001,-0.368164,0.684326,-0.613281,506
37464193,9994,-0.368774,0.683838,-0.612061,497
37474198,10005,-0.369385,0.683716,-0.613403,503
37484200,10002,-0.370361,0.675537,-0.614746,504
37494199,9999,-0.371216,0.672607,-0.616211,503
37504204,10005,-0.368774,0.671387,-0.616455,504
37514192,9988,-0.366821,0.671631,-0.617432,498
37524174,9982,-0.364136,0.675781,-0.618652,502
37534184,10010,-0.365845,0.679565,-0.618530,502
37544186,10002,-0.367920,0.679321,-0.617676,494
37554185,9999,-0.366333,0.679565,-0.616821,494
37564192,10007,-0.365234,0.681641,-0.617798,491
37574193,10001,-0.366455,0.683960,-0.617554,499
37584190,9997,-0.369995,0.686279,-0.617065,493
37594179,9989,-0.368408,0.684692,-0.615112,494
37604189,10010,-0.369263,0.682983,-0.614258,494
37614181,9992,-0.370117,0.678833,-0.613525,501
37624176,9995,-0.369019,0.675659,-0.611084,503
37634173,9997,-0.368042,0.674927,-0.610962,502
37644174,10001,-0.370239,0.677246,-0.614014,495
37654193,10019,-0.370972,0.680298,-0.614868,507
37664195,10002,-0.368774,0.682373,-0.615356,505
37674211,10016,-0.368408,0.683960,-0.615723,506
37687985,13774,-0.365112,0.684326,-0.616211,520
37694205,6220,0.000000,0.000000,0.000000,512
37704174,9969,-0.365356,0.681763,-0.617676,525
37714186,10012,-0.367432,0.681152,-0.617554,532
37724184,9998,-0.367920,0.682861,-0.616699,537
37734182,9998,-0.367676,0.684082,-0.617554,543
37744178,9996,-0.366943,0.683350,-0.615601,548
37754192,10014,-0.367920,0.678467,-0.614502,544
37764182,9990,-0.366943,0.677612,-0.613281,541
37774190,10008,-0.367798,0.676147,-0.614380,551
37784183,9993,-0.367310,0.676758,-0.614746,549
37794197,10014,-0.367310,0.678223,-0.613647,554
37804193,9996,-0.369995,0.681641,-0.613525,552
37814202,10009,-0.369995,0.680786,-0.612427,552
37824175,9973,-0.370117,0.682251,-0.612793,550
37834177,10002,-0.370361,0.682251,-0.613281,544
37844187,10010,-0.369385,0.683105,-0.614136,545
37854194,10007,-0.368286,0.682495,-0.613403,546
37864191,9997,-0.367798,0.682617,-0.614258,541
37874197,10006,-0.366089,0.681641,-0.615723,538
37884202,10005,-0.366821,0.681641,-0.616943,538
37894187,9985,-0.367310,0.679443,-0.616821,529
37904188,10001,-0.366943,0.678955,-0.616333,533
37914182,9994,-0.368042,0.678711,-0.615723,524
37924198,10016,-0.367676,0.678589,-0.616211,520
37934201,10003,-0.368530,0.678101,-0.615601,526
37944179,9978,-0.367798,0.678955,-0.614380,523
37954180,10001,-0.367310,0.679321,-0.613281,520
37964196,10016,-0.367798,0.679443,-0.614014,520
37974180,9984,-0.369995,0.680786,-0.614380,513
37984197,10017,-0.369629,0.681519,-0.613892,512
37994186,9989,-0.369873,0.681763,-0.614380,513
38004186,10000,-0.368042,0.681030,-0.614258,518
38014181,9995,-0.366211,0.681763,-0.614990,511
38024188,10007,-0.367188,0.682007,-0.616455,512
38034201,10013,-0.367188,0.681519,-0.618530,517
38044192,9991,-0.369873,0.681641,-0.619629,517
38054215,10023,-0.369629,0.680054,-0.618652,516
38064173,9958,-0.368408,0.680298,-0.618896,516
38074176,10003,-0.367188,0.682129,-0.616211,516
38084188,10012,-0.370728,0.684326,-0.618164,513
38094184,9996,-0.372070,0.681519,-0.617432,507
38104183,9999,-0.369751,0.679810,-0.617065,505
38114200,10017,-0.370239,0.676147,-0.613892,512
38124189,9989,-0.365479,0.672363,-0.609009,507
38134199,10010,-0.342041,0.680542,-0.600952,507
38144179,9980,-0.385132,0.680176,-0.628784,507
38154201,10022,-0.401001,0.671509,-0.625977,503
38164194,9993,-0.373047,0.674316,-0.610962,507
38174201,10007,-0.364990,0.688721,-0.625122,499
38184176,9975,-0.372803,0.699829,-0.624146,505
38194191,10015,-0.357666,0.684082,-0.608521,504
38204190,9999,-0.353271,0.676880,-0.616821,501
38214229,10039,-0.359497,0.658936,-0.610840,503
38224201,9972,-0.360962,0.668945,-0.618164,500
38234174,9973,-0.371338,0.667969,-0.620239,502
38244198,10024,-0.374756,0.695435,-0.624268,503
38254197,9999,-0.374023,0.695679,-0.615845,499
38264193,9996,-0.365479,0.687378,-0.608643,502
38274201,10008,-0.361938,0.676025,-0.604858,501
38284179,9978,-0.368774,0.674072,-0.612305,496
38294182,10003,-0.367798,0.675659,-0.611938,500
38304201,10019,-0.367065,0.679810,-0.616211,502
38314199,9998,-0.364502,0.685425,-0.610718,493
38324187,9988,-0.367065,0.691406,-0.614136,496
38334175,9988,-0.375122,0.683472,-0.614868,494
38344200,10025,-0.370972,0.677856,-0.613770,499
38354200,10000,-0.367065,0.676025,-0.615967,502
38364179,9979,-0.370728,0.679932,-0.620239,500
38374183,10004,-0.366211,0.683228,-0.616455,499
38384175,9992,-0.361938,0.687500,-0.615356,499
38394203,10028,-0.363525,0.682739,-0.614990,493
38404224,10021,-0.370605,0.678833,-0.615112,498
38414180,9956,-0.367676,0.679687,-0.616089,499
38424179,9999,-0.365479,0.679932,-0.614868,499
38434181,10002,-0.367310,0.683594,-0.615234,493
38444178,9997,-0.371338,0.685059,-0.616333,499
38454185,10007,-0.369995,0.684204,-0.609375,494
38464191,10006,-0.365601,0.677612,-0.611938,497
38474199,10008,-0.367065,0.677246,-0.611450,500
38484195,9996,-0.370972,0.679443,-0.613770,500
38494184,9989,-0.368652,0.681030,-0.611572,498
38504197,10013,-0.369385,0.684692,-0.613403,494
38514191,9994,-0.369019,0.687256,-0.613892,494
38524201,10010,-0.365234,0.682739,-0.613892,500
38534189,9988,-0.362671,0.679077,-0.614868,498
38544188,9999,-0.364624,0.678833,-0.617432,495
38554199,10011,-0.366333,0.678711,-0.618408,487
38564180,9981,-0.365967,0.677856,-0.610962,497
38574185,10005,-0.367432,0.681885,-0.612915,496
38584227,10042,-0.373047,0.681885,-0.617432,496
38594201,9974,-0.371582,0.683228,-0.616699,497
38604173,9972,-0.370728,0.680054,-0.617065,497
38614198,10025,-0.368530,0.672241,-0.617554,491
38624174,9976,-0.371216,0.671143,-0.617432,492
38634176,10002,-0.367432,0.674194,-0.617065,500
38644185,10009,-0.366699,0.680908,-0.618286,501
38654189,10004,-0.367676,0.683228,-0.617310,496
38664187,9998,-0.369873,0.685059,-0.620361,503
38674175,9988,-0.364380,0.684448,-0.620117,512
38684203,10028,-0.362183,0.686768,-0.622681,517
38694181,9978,-0.363403,0.690552,-0.625488,526
38704178,9997,-0.365479,0.688843,-0.625732,525
38714196,10018,-0.364258,0.689087,-0.624878,538
38724186,9990,-0.363281,0.686646,-0.625854,542
38734186,10000,-0.350708,0.684204,-0.618896,549
38744201,10015,-0.365356,0.691895,-0.637451,546
38754180,9979,-0.388672,0.688843,-0.645508,553
38764175,9995,-0.382568,0.686890,-0.632935,562
38774176,10001,-0.365967,0.680664,-0.619507,560
38784179,10003,-0.350952,0.678955,-0.606567,555
38794199,10020,-0.360229,0.670654,-0.610474,562
38804174,9975,-0.368164,0.663696,-0.614746,554
38814184,10010,-0.373291,0.653687,-0.614136,558
38824191,10007,-0.375854,0.654419,-0.605957,559
38834201,10010,-0.379028,0.666138,-0.606445,549
38844194,9993,-0.383423,0.685791,-0.606934,555
38854192,9998,-0.381714,0.677734,-0.604858,543
38864199,10007,-0.376099,0.665894,-0.598633,551
38874190,9991,-0.370605,0.657471,-0.599121,547
38884194,10004,-0.372192,0.658569,-0.608032,546
38894200,10006,-0.376221,0.674438,-0.622681,536
38904196,9996,-0.370605,0.681396,-0.622070,536
38914176,9980,-0.367676,0.685181,-0.619873,536
38924199,10023,-0.369751,0.689209,-0.624756,529
38934193,9994,-0.376099,0.687256,-0.629883,531
38944206,10013,-0.364380,0.677979,-0.624634,530
38954200,9994,-0.353271,0.676147,-0.618774,527
38964180,9980,-0.352051,0.681030,-0.616699,526
38974187,10007,-0.361816,0.686768,-0.619019,517
38984193,10006,-0.374390,0.687500,-0.619507,525
38994201,10008,-0.376099,0.685181,-0.614990,527
39004190,9989,-0.373169,0.676025,-0.609863,520
39014480,10290,-0.376831,0.675781,-0.613525,525
39024200,9720,-0.382202,0.673828,-0.618042,526
39034202,10002,-0.382813,0.668457,-0.618286,523
39044182,9980,-0.377808,0.664062,-0.615479,523
39054178,9996,-0.368896,0.667725,-0.615112,518
39064200,10022,-0.367065,0.673096,-0.619507,522
39074195,9995,-0.367188,0.677612,-0.622070,523
39087649,13454,-0.366455,0.678467,-0.625977,522
39094187,6538,0.000000,0.000000,0.000000,522
39104206,10019,-0.369019,0.675537,-0.632568,522
39114197,9991,-0.374756,0.670288,-0.633423,520
39124192,9995,-0.371826,0.668945,-0.631226,518
39134200,10008,-0.369873,0.668701,-0.630127,517
39144195,9995,-0.367310,0.669067,-0.629761,508
39154189,9994,-0.365967,0.669678,-0.628784,514
39164181,9992,-0.370605,0.669556,-0.627075,512
39174195,10014,-0.373169,0.666992,-0.623901,511
39184194,9999,-0.372681,0.667969,-0.622681,510
39194181,9987,-0.373047,0.667236,-0.619629,509
39204191,10010,-0.372314,0.668579,-0.616455,501
39214197,10006,-0.373901,0.669312,-0.615356,511
39224182,9985,-0.375610,0.668701,-0.615845,504
39234194,10012,-0.374023,0.669434,-0.616089,508
39244229,10035,-0.374756,0.673218,-0.617310,508
39254177,9948,-0.374512,0.676880,-0.619873,506
39264177,10000,-0.373047,0.680054,-0.618164,506
39274195,10018,-0.371094,0.683472,-0.618042,506
39284178,9983,-0.371826,0.683716,-0.619385,505
39294176,9998,-0.370361,0.684204,-0.619141,499
39304182,10006,-0.370605,0.684814,-0.620117,500
39314196,10014,-0.372437,0.682617,-0.620728,495
39324201,10005,-0.374390,0.678345,-0.619141,504
39334200,9999,-0.374512,0.675537,-0.619263,496
39344197,9997,-0.377319,0.669800,-0.618774,501
39354189,9992,-0.378174,0.666138,-0.617676,504
39364202,10013,-0.377808,0.664429,-0.621216,503
39374194,9992,-0.375977,0.665039,-0.622070,504
39384182,9988,-0.373901,0.668823,-0.624756,504
39394198,10016,-0.371704,0.669067,-0.624878,494
39404211,10013,-0.370239,0.668335,-0.624756,502
39414197,9986,-0.371582,0.667847,-0.626221,497
39424186,9989,-0.374756,0.666016,-0.625977,496
39434193,10007,-0.376099,0.669678,-0.624390,502
39444197,10004,-0.377319,0.671631,-0.626099,503
39454176,9979,-0.378540,0.673340,-0.626465,502
39464183,10007,-0.376953,0.671387,-0.623413,499
39474184,10001,-0.375000,0.669189,-0.620850,502
39484176,9992,-0.375366,0.661133,-0.615479,490
39494178,10002,-0.379883,0.658081,-0.616089,496
39504183,10005,-0.382202,0.656372,-0.615479,508
39514198,10015,-0.382324,0.656372,-0.615356,504
39524195,9997,-0.380127,0.659668,-0.616211,513
39534176,9981,-0.380615,0.659424,-0.619995,521
39544190,10014,-0.378662,0.657227,-0.616943,525
39554173,9983,-0.376221,0.655762,-0.616943,524
39564215,10042,-0.374390,0.658569,-0.618408,533
39574199,9984,-0.372437,0.661499,-0.619873,538
39584213,10014,-0.370728,0.666992,-0.619751,535
39594190,9977,-0.372070,0.673706,-0.616211,548
39604181,9991,-0.372192,0.677124,-0.614380,551
39614189,10008,-0.369995,0.681152,-0.612671,545
39624189,10000,-0.371094,0.686646,-0.613525,552
39634184,9995,-0.373779,0.689209,-0.613281,553
39644202,10018,-0.377075,0.693237,-0.613892,554
39654191,9989,-0.382202,0.697388,-0.613892,546
39664190,9999,-0.383667,0.695679,-0.612671,545
39674177,9987,-0.381714,0.694946,-0.613403,552
39684187,10010,-0.379761,0.694946,-0.614746,544
39694186,9999,-0.375732,0.692871,-0.617065,547
39704196,10010,-0.369385,0.690063,-0.613525,544
39714180,9984,-0.366211,0.686768,-0.612061,541
39724191,10011,-0.366699,0.682983,-0.610474,541
39734178,9987,-0.367432,0.678101,-0.607788,537
39744174,9996,-0.369629,0.672974,-0.607910,536
39754196,10022,-0.371216,0.668945,-0.606689,523
39764181,9985,-0.375366,0.667236,-0.608887,526
39774197,10016,-0.374390,0.669800,-0.610840,528
39784179,9982,-0.373901,0.671753,-0.612305,526
39794178,9999,-0.372925,0.672485,-0.616333,520
39804176,9998,-0.373657,0.672363,-0.620361,524
39814178,10002,-0.373413,0.669922,-0.624390,524
39824179,10001,-0.371460,0.671875,-0.625000,524
39834191,10012,-0.371460,0.673584,-0.628052,520
39844178,9987,-0.367920,0.676147,-0.628662,521
39854174,9996,-0.366211,0.677246,-0.628174,520
39864174,10000,-0.362671,0.681274,-0.625488,519
39874179,10005,-0.364868,0.681152,-0.622925,512
39884176,9997,-0.367676,0.681519,-0.621338,518
39894203,10027,-0.374756,0.680054,-0.617920,511
39904202,9999,-0.377075,0.680542,-0.614746,512
39914188,9986,-0.379272,0.679199,-0.612793,516
39924185,9997,-0.375732,0.683716,-0.605469,509
39934190,10005,-0.371582,0.686279,-0.604614,514
39944182,9992,-0.371460,0.687866,-0.604492,514
39954185,10003,-0.374390,0.683960,-0.605347,505
39964193,10008,-0.379028,0.677856,-0.604370,511
39974185,9992,-0.376953,0.665771,-0.606201,511
39984177,9992,-0.375366,0.662354,-0.609131,511
39994196,10019,-0.373779,0.660889,-0.613159,509
40004202,10006,-0.370850,0.656982,-0.616211,508
40014175,9973,-0.366333,0.655151,-0.618896,500
40024183,10008,-0.363770,0.658569,-0.617554,498
40034199,10016,-0.357422,0.666016,-0.617187,507
40044192,9993,-0.357544,0.671143,-0.615112,493
40054202,10010,-0.359375,0.675537,-0.613647,504
40064181,9979,-0.363281,0.680054,-0.614014,495
40074181,10000,-0.368408,0.683228,-0.614624,500
40084179,9998,-0.371216,0.685791,-0.613647,500
40094194,10015,-0.371338,0.686035,-0.613525,503
40104194,10000,-0.369873,0.686890,-0.613403,500
40114184,9990,-0.368042,0.690918,-0.611206,497
40124189,10005,-0.366943,0.697266,-0.610596,501
40134201,10012,-0.364990,0.708740,-0.606201,497
40144203,10002,-0.361206,0.710815,-0.604858,500
40154193,9990,-0.364502,0.713501,-0.608765,500
40164193,10000,-0.370239,0.712891,-0.613892,499
40174194,10001,-0.374756,0.711426,-0.616089,501
40184174,9980,-0.372437,0.707275,-0.613281,502
40194174,10000,-0.350098,0.702637,-0.605225,503
40204183,10009,-0.348999,0.700928,-0.606445,505
40214208,10025,-0.354614,0.694824,-0.611572,499
40224181,9973,-0.360229,0.686279,-0.614624,509
40234214,10033,-0.365112,0.679077,-0.619385,504
40244189,9975,-0.372437,0.679199,-0.627319,515
40254194,10005,-0.377075,0.682739,-0.632446,512
40264195,10001,-0.373291,0.682251,-0.633057,530
40274178,9983,-0.362549,0.676758,-0.629272,534
40284192,10014,-0.353760,0.666870,-0.626465,532
40294176,9984,-0.352295,0.656494,-0.626343,539
40304185,10009,-0.355957,0.648682,-0.630859,543
40314175,9990,-0.357056,0.648926,-0.631104,561
40324195,10020,-0.354492,0.656006,-0.629517,537
40334183,9988,-0.356323,0.662598,-0.625610,542
40344173,9990,-0.356567,0.668335,-0.623047,544
40354177,10004,-0.355469,0.661377,-0.608398,546
40364202,10025,-0.349854,0.671265,-0.609497,542
40374173,9971,-0.367676,0.675171,-0.621216,537
40384184,10011,-0.383423,0.676025,-0.625610,545
40394214,10030,-0.370483,0.680420,-0.611572,536
40404199,9985,-0.361450,0.700195,-0.612793,544
40414196,9997,-0.371460,0.704590,-0.615234,540
40424181,9985,-0.366211,0.697754,-0.606934,537
40434176,9995,-0.358032,0.693115,-0.606567,529
40444186,10010,-0.357300,0.689453,-0.605347,532
40454174,9988,-0.360840,0.695923,-0.610962,521
40464193,10019,-0.365601,0.702881,-0.613647,525
40474194,10001,-0.360840,0.704956,-0.612427,526
40484192,9998,-0.357544,0.702881,-0.608154,521
40494186,9994,-0.359009,0.699341,-0.607422,513
40504197,10011,-0.360596,0.695190,-0.606934,518
40514198,10001,-0.369141,0.691162,-0.610474,516
40524189,9991,-0.363281,0.693848,-0.606445,516
40534177,9988,-0.362793,0.696289,-0.607666,515
40544200,10023,-0.363892,0.697510,-0.606201,511
40554183,9983,-0.366577,0.694214,-0.606201,509
40564199,10016,-0.367676,0.687378,-0.605835,506
40574174,9975,-0.365723,0.678467,-0.608032,510
40584199,10025,-0.364868,0.679321,-0.610840,515
40594173,9974,-0.367554,0.681763,-0.613770,511
40604180,10007,-0.366089,0.681641,-0.612061,513
40614198,10018,-0.363159,0.683105,-0.612549,515
40624186,9988,-0.363647,0.678101,-0.615845,516
40634186,10000,-0.365112,0.675781,-0.616577,515
40644202,10016,-0.362793,0.676636,-0.617187,514
40654193,9991,-0.361328,0.677246,-0.616699,511
40664178,9985,-0.361816,0.681030,-0.617554,514
40674189,10011,-0.364990,0.684326,-0.618042,510
40684173,9984,-0.363770,0.682739,-0.616211,514
40694207,10034,-0.362549,0.681396,-0.615234,513
40704186,9979,-0.365601,0.681396,-0.616699,510
40714194,10008,-0.369141,0.679687,-0.615845,510
40724194,10000,-0.367920,0.676880,-0.612549,508
40734189,9995,-0.368408,0.677246,-0.610107,506
40744182,9993,-0.370605,0.676636,-0.610352,506
40754199,10017,-0.370605,0.677002,-0.610962,497
40764188,9989,-0.370117,0.676270,-0.609985,500
40774194,10006,-0.371094,0.676147,-0.610229,501
40784180,9986,-0.367920,0.676147,-0.609741,493
40794182,10002,-0.365356,0.676270,-0.608643,500
40804191,10009,-0.363770,0.678101,-0.609497,498
40814174,9983,-0.364624,0.679687,-0.611816,502
40824190,10016,-0.364502,0.679565,-0.613159,499
40834188,9998,-0.362915,0.679565,-0.613892,495
40844184,9996,-0.363403,0.685425,-0.618042,492
40854219,10035,-0.361694,0.687378,-0.616943,496
40864183,9964,-0.360352,0.691650,-0.614502,496
40874183,10000,-0.360962,0.695068,-0.614624,496
40884199,10016,-0.363892,0.696777,-0.615601,497
40894179,9980,-0.365601,0.695801,-0.613159,489
40904180,10001,-0.363281,0.694214,-0.610962,499
40914202,10022,-0.365601,0.691284,-0.609619,489
40924194,9992,-0.366699,0.688477,-0.608276,501
40934182,9988,-0.366211,0.685059,-0.607300,497
40944179,9997,-0.365479,0.683838,-0.607056,496
40954178,9999,-0.367432,0.680786,-0.606934,505
40964194,10016,-0.365967,0.679321,-0.607422,508
40974185,9991,-0.363525,0.678223,-0.608521,513
40984198,10013,-0.362427,0.677002,-0.607666,522
40994192,9994,-0.360107,0.679565,-0.607056,519
41004191,9999,-0.367310,0.690796,-0.618530,533
41014225,10034,-0.375854,0.694702,-0.625977,538
41026027,11802,-0.373291,0.693726,-0.624390,545
41034195,8168,-0.362549,0.693359,-0.617676,543
41044188,9993,-0.354858,0.693237,-0.613037,544
41054181,9993,-0.352539,0.678101,-0.606689,554
41064178,9997,-0.354004,0.668457,-0.607300,549
41074180,10002,-0.357300,0.663330,-0.609375,550
41084197,10017,-0.363770,0.668457,-0.612427,552
41094202,10005,-0.368774,0.678101,-0.614868,551
41104195,9993,-0.370239,0.688354,-0.614624,552
41114194,9999,-0.361206,0.695435,-0.608521,548
41124190,9996,-0.357544,0.687378,-0.604980,550
41134189,9999,-0.353027,0.678833,-0.602783,547
41144184,9995,-0.353882,0.673096,-0.608032,545
41154201,10017,-0.360107,0.674438,-0.611816,540
41164177,9976,-0.364624,0.692993,-0.613159,532
41174192,10015,-0.363037,0.699707,-0.610229,533
41184218,10026,-0.361572,0.703125,-0.609985,534
41194178,9960,-0.361938,0.704102,-0.612183,529
41204178,10000,-0.362183,0.700562,-0.613892,526
41214185,10007,-0.354492,0.688477,-0.609741,523
41224185,10000,-0.364258,0.699341,-0.621704,521
41234185,10000,-0.375854,0.695801,-0.621094,514
41244184,9999,-0.358765,0.693359,-0.604126,517
41254193,10009,-0.348389,0.696045,-0.601196,509
41264188,9995,-0.353638,0.700317,-0.604370,513
41274180,9992,-0.359375,0.695190,-0.600952,508
41284201,10021,-0.353760,0.691650,-0.603638,511
41294189,9988,-0.355103,0.691406,-0.602783,514
41304194,10005,-0.357910,0.696777,-0.607056,507
41314173,9979,-0.363770,0.701172,-0.608398,511
41324180,10007,-0.360474,0.705200,-0.606079,514
41334194,10014,-0.356201,0.699829,-0.602417,516
41344173,9979,-0.357056,0.693115,-0.605347,513
41354207,10034,-0.359863,0.687622,-0.606323,509
41364173,9966,-0.364258,0.684204,-0.612183,514
41374176,10003,-0.366821,0.684937,-0.613892,514
41384198,10022,-0.358887,0.690186,-0.611816,515
41394199,10001,-0.358154,0.691528,-0.611084,515
41404189,9990,-0.358276,0.687744,-0.612061,512
41414200,10011,-0.360474,0.683472,-0.613037,502
41424178,9978,-0.360474,0.681396,-0.612793,507
41434173,9995,-0.357056,0.686279,-0.613525,508
41444181,10008,-0.359375,0.689209,-0.614014,507
41454191,10010,-0.358887,0.688721,-0.611938,500
41464190,9999,-0.357666,0.687012,-0.609253,508
41474199,10009,-0.359131,0.684204,-0.609985,506
41484183,9984,-0.361938,0.683228,-0.611206,505
41494185,10002,-0.359863,0.683350,-0.609985,505
41504189,10004,-0.356934,0.685303,-0.607910,505
41514184,9995,-0.359009,0.689331,-0.609863,505
41524179,9995,-0.363403,0.689697,-0.610596,502
41534211,10032,-0.364746,0.689331,-0.610352,501
41544187,9976,-0.360474,0.690674,-0.608643,501
41554190,10003,-0.360962,0.692749,-0.611206,501
41564192,10002,-0.363647,0.692139,-0.612427,501
41574198,10006,-0.362427,0.691895,-0.611084,495
41584185,9987,-0.359375,0.691406,-0.610840,499
41594201,10016,-0.360718,0.692261,-0.611084,501
41604177,9976,-0.358643,0.693604,-0.609741,491
41614178,10001,-0.359131,0.693848,-0.610596,500
41624180,10002,-0.361694,0.694458,-0.611084,500
41634191,10011,-0.363525,0.693604,-0.610474,493
41644173,9982,-0.363037,0.690430,-0.609497,500
41654193,10020,-0.363281,0.684570,-0.608154,498
41664176,9983,-0.367432,0.680054,-0.609497,498
41674183,10007,-0.367188,0.676758,-0.609863,493
41684195,10012,-0.364990,0.675659,-0.610229,505
41694182,9987,-0.362793,0.676636,-0.609497,508
41704202,10020,-0.364136,0.681519,-0.612671,514
41714180,9978,-0.361328,0.683472,-0.614136,513
41724175,9995,-0.360229,0.683838,-0.613647,524
41734175,10000,-0.359985,0.684204,-0.613770,524
41744195,10020,-0.359131,0.685303,-0.614624,536
41754202,10007,-0.359497,0.684448,-0.616333,542
41764185,9983,-0.363770,0.686890,-0.616211,539
41774192,10007,-0.365234,0.687988,-0.615356,542
41784196,10004,-0.364258,0.689087,-0.613037,546
41794183,9987,-0.363281,0.687988,-0.613403,552
41804195,10012,-0.363159,0.687256,-0.612671,546
41814189,9994,-0.359131,0.685059,-0.609863,549
41824192,10003,-0.360229,0.684204,-0.608521,546
41834202,10010,-0.363525,0.684570,-0.608643,550
41844179,9977,-0.367310,0.684326,-0.607788,540
41854184,10005,-0.366211,0.683960,-0.608521,544
41864225,10041,-0.365234,0.685913,-0.609253,542
41874189,9964,-0.364868,0.684448,-0.612183,542
41884188,9999,-0.363403,0.683228,-0.612061,538
41894195,10007,-0.363159,0.682251,-0.613892,527
41904183,9988,-0.363403,0.682007,-0.615601,532
41914176,9993,-0.361206,0.683838,-0.616211,528
41924195,10019,-0.359985,0.685059,-0.617065,524
41934184,9989,-0.360352,0.683716,-0.615234,517
41944196,10012,-0.361572,0.680664,-0.613281,524
41954193,9997,-0.361938,0.680786,-0.614136,513
41964173,9980,-0.362915,0.680908,-0.612427,522
41974176,10003,-0.363159,0.684814,-0.609253,519
41984186,10010,-0.364990,0.690308,-0.608643,522
41994203,10017,-0.365112,0.692383,-0.606689,511
42004180,9977,-0.364868,0.693359,-0.606812,516
42014199,10019,-0.365234,0.693604,-0.607666,518
42024195,9996,-0.366577,0.693115,-0.607910,516
42034182,9987,-0.366333,0.691162,-0.609131,516
42044179,9997,-0.366455,0.689575,-0.609741,518
42054196,10017,-0.364502,0.688232,-0.610596,516
42064353,10157,-0.362915,0.687988,-0.611816,508
42074196,9843,-0.361084,0.684692,-0.610962,511
42084189,9993,-0.359375,0.682495,-0.611694,511
42094177,9988,-0.360962,0.681763,-0.613525,511
42104187,10010,-0.363525,0.681519,-0.615845,512
42114190,10003,-0.364868,0.680786,-0.617798,512
42124195,10005,-0.364990,0.679321,-0.618652,511
42134185,9990,-0.363525,0.679687,-0.617187,509
42144189,10004,-0.363525,0.682251,-0.616333,504
42154177,9988,-0.362305,0.683594,-0.614380,500
42164185,10008,-0.360596,0.685913,-0.612549,505
42174174,9989,-0.362549,0.686157,-0.611938,507
42184201,10027,-0.363770,0.687744,-0.612671,504
42194186,9985,-0.365356,0.688110,-0.612549,500
42204182,9996,-0.364990,0.687866,-0.610474,502
42214187,10005,-0.363647,0.687012,-0.608887,502
42224178,9991,-0.361450,0.685181,-0.608154,499
42234206,10028,-0.361694,0.683716,-0.609375,496
42244194,9988,-0.361572,0.683472,-0.608887,498
42254177,9983,-0.363647,0.685913,-0.611450,486
42264176,9999,-0.365356,0.690674,-0.611084,497
42274178,10002,-0.364868,0.690552,-0.610229,497
42284197,10019,-0.364014,0.691772,-0.610718,496
42294198,10001,-0.364502,0.690063,-0.612305,494
42304184,9986,-0.365112,0.684082,-0.612793,494
42314195,10011,-0.362427,0.683838,-0.612549,496
42324198,10003,-0.362061,0.684692,-0.612061,495
42334199,10001,-0.361816,0.685303,-0.611084,495
42344173,9974,-0.362549,0.687866,-0.611206,496
42354178,10005,-0.362549,0.688843,-0.612427,486
42364185,10007,-0.363403,0.687500,-0.613770,487
42374204,10019,-0.364502,0.685913,-0.615479,493
42384196,9992,-0.365723,0.684570,-0.614258,489
42394177,9981,-0.366211,0.681641,-0.613525,491
42404182,10005,-0.366699,0.681274,-0.611328,496
42414178,9996,-0.364380,0.678711,-0.608643,497
42424178,10000,-0.364502,0.679565,-0.609741,493
42434183,10005,-0.363403,0.682739,-0.611328,504
42444177,9994,-0.364502,0.682739,-0.612793,501
42454177,10000,-0.364502,0.681519,-0.613037,506
42464187,10010,-0.363770,0.680542,-0.614746,518
42474197,10010,-0.364258,0.682373,-0.614014,515
42484178,9981,-0.363770,0.685425,-0.615356,529
42494195,10017,-0.363037,0.687622,-0.613892,532
42504187,9992,-0.363647,0.687866,-0.614014,545
42514190,10003,-0.363525,0.690552,-0.613770,545
42524194,10004,-0.364380,0.689331,-0.612549,543
42534192,9998,-0.364014,0.689087,-0.611694,552
42544180,9988,-0.363770,0.688965,-0.611694,550
42554185,10005,-0.364624,0.687622,-0.610962,552
42564190,10005,-0.364502,0.685303,-0.610107,550
42574194,10004,-0.366943,0.682495,-0.611084,546
42584175,9981,-0.366943,0.680908,-0.611450,549
42594181,10006,-0.365967,0.680420,-0.612793,545
42604190,10009,-0.367065,0.681274,-0.615234,542
42614178,9988,-0.366821,0.679810,-0.614624,541
42624185,10007,-0.363892,0.684204,-0.612305,538
42634187,10002,-0.364624,0.686890,-0.613647,540
42644181,9994,-0.365845,0.687866,-0.612549,528
42654187,10006,-0.362305,0.688599,-0.610840,531
42664195,10008,-0.358887,0.690552,-0.610840,530
42674190,9995,-0.365845,0.691040,-0.615601,527
42684214,10024,-0.367554,0.685913,-0.609741,526
42694201,9987,-0.360840,0.686523,-0.607178,522
42704175,9974,-0.360229,0.687622,-0.606323,514
42714193,10018,-0.360474,0.683472,-0.605469,517
42724183,9990,-0.359375,0.677856,-0.606323,515
42734199,10016,-0.373413,0.676758,-0.614136,514
42744188,9989,-0.375244,0.681152,-0.614624,514
42754179,9991,-0.369141,0.685181,-0.612915,507
42764197,10018,-0.362427,0.687500,-0.611328,507
42774175,9978,-0.359375,0.686035,-0.609863,507
42784193,10018,-0.363525,0.683960,-0.614136,511
42794194,10001,-0.366577,0.678833,-0.615356,509
42804189,9995,-0.361206,0.683350,-0.616699,509
42814184,9995,-0.359131,0.685181,-0.615479,513
42824200,10016,-0.357178,0.690430,-0.613525,509
42834227,10027,-0.360718,0.690796,-0.615356,512
42844181,9954,-0.369019,0.684570,-0.616211,513
42854178,9997,-0.369141,0.680664,-0.615723,517
42864186,10008,-0.366577,0.679687,-0.614258,510
42874174,9988,-0.363281,0.679810,-0.612915,510
42884181,10007,-0.363525,0.679321,-0.610718,505
42894187,10006,-0.363892,0.678223,-0.607788,506
42904177,9990,-0.365479,0.677856,-0.610718,499
42914198,10021,-0.366821,0.678101,-0.612915,503
42924202,10004,-0.367676,0.679687,-0.613647,504
42934188,9986,-0.365356,0.681274,-0.613281,495
42944189,10001,-0.364868,0.684937,-0.615112,493
42954196,10007,-0.365234,0.686157,-0.616577,498
42964195,9999,-0.362427,0.686035,-0.615234,494
42974199,10004,-0.358887,0.685669,-0.613770,499
42984184,9985,-0.357422,0.686523,-0.614014,496
42994194,10010,-0.359741,0.687744,-0.614990,497
43004194,10000,-0.365356,0.687866,-0.614136,496
43014213,10019,-0.364502,0.688599,-0.612305,495
43024194,9981,-0.365723,0.689087,-0.611938,496
43034176,9982,-0.369141,0.688232,-0.613525,496
43044180,10004,-0.367676,0.686768,-0.614136,497
43056473,12293,-0.363037,0.679932,-0.609497,490
43064422,7949,-0.360840,0.680054,-0.609009,488
43078243,13821,-0.360107,0.679810,-0.609985,495
43084274,6031,-0.361816,0.679932,-0.612915,488
43094186,9912,-0.363892,0.680054,-0.612793,498
43104183,9997,-0.365601,0.680542,-0.613770,498
43114197,10014,-0.364136,0.684448,-0.615845,495
43124180,9983,-0.364258,0.685303,-0.616699,488
43134175,9995,-0.364746,0.686401,-0.616455,486
43144188,10013,-0.365723,0.686890,-0.617187,496
43154220,10032,-0.363037,0.686157,-0.616211,491
43164182,9962,-0.360962,0.685669,-0.613525,493
43174173,9991,-0.363403,0.681763,-0.611450,488
43184201,10028,-0.363525,0.679077,-0.609863,492
43194190,9989,-0.362915,0.677734,-0.609741,490
43204183,9993,-0.364990,0.678833,-0.609985,497
43214174,9991,-0.368042,0.682739,-0.610352,500
43224178,10004,-0.367310,0.688354,-0.610474,498
43234187,10009,-0.365234,0.688721,-0.611450,512
43244179,9992,-0.363525,0.687378,-0.611328,516
43254197,10018,-0.362061,0.687988,-0.610596,513
43264181,9984,-0.360474,0.687500,-0.611694,529
43274186,10005,-0.361450,0.688110,-0.613892,532
43284201,10015,-0.363037,0.687866,-0.615967,531
43294183,9982,-0.363525,0.687744,-0.615356,544
43304182,9999,-0.363647,0.685913,-0.616333,550
43314226,10044,-0.364868,0.684082,-0.615845,542
43324186,9960,-0.364502,0.681274,-0.615845,551
43334175,9989,-0.362305,0.680298,-0.614014,557
43344173,9998,-0.361328,0.680664,-0.615112,551
43354184,10011,-0.362549,0.680908,-0.614746,551
43364194,10010,-0.363281,0.680176,-0.612915,548
43374178,9984,-0.363770,0.681030,-0.613159,549
43384178,10000,-0.366577,0.683105,-0.613159,539
43394178,10000,-0.365601,0.684692,-0.613159,540
43404194,10016,-0.364136,0.683716,-0.613281,549
43414198,10004,-0.363770,0.685303,-0.612549,538
43424202,10004,-0.362305,0.686401,-0.613647,528
43434181,9979,-0.362305,0.689453,-0.612183,533
43444201,10020,-0.362427,0.691162,-0.610474,524
43454197,9996,-0.364624,0.690552,-0.610840,529
43464197,10000,-0.364624,0.690308,-0.610596,527
43474181,9984,-0.364258,0.688110,-0.610474,519
43484196,10015,-0.364258,0.687378,-0.609619,513
43494188,9992,-0.366333,0.683960,-0.611206,517
43504178,9990,-0.366577,0.682129,-0.612671,517
43514202,10024,-0.364136,0.681152,-0.613525,515
43524174,9972,-0.363159,0.682861,-0.613403,506
43534190,10016,-0.362915,0.684326,-0.615845,510
43544186,9996,-0.362427,0.685791,-0.617187,511
43554184,9998,-0.361938,0.686523,-0.616821,510
43564190,10006,-0.363281,0.685669,-0.617432,502
43574187,9997,-0.362305,0.684937,-0.616089,501
43584190,10003,-0.363281,0.688721,-0.619141,504
43594201,10011,-0.371460,0.688110,-0.626465,510
43604192,9991,-0.349731,0.676758,-0.602417,509
43614191,9999,-0.349609,0.685303,-0.609375,505
43624205,10014,-0.375122,0.681274,-0.618530,508
43634196,9991,-0.378784,0.677979,-0.615479,509
43644192,9996,-0.365967,0.671631,-0.608521,500
43654182,9990,-0.360107,0.683105,-0.610596,497
43664198,10016,-0.365845,0.690796,-0.611206,505
43674173,9975,-0.373657,0.688843,-0.615601,504
43684175,10002,-0.370850,0.679443,-0.612915,504
43694179,10004,-0.362549,0.675903,-0.611206,500
43704202,10023,-0.364136,0.683960,-0.621216,503
43714198,9996,-0.357788,0.681274,-0.613770,502
43724176,9978,-0.348999,0.684937,-0.608521,502
43734186,10010,-0.361450,0.688843,-0.618164,496
43744192,10006,-0.372192,0.682861,-0.615967,497
43754186,9994,-0.367920,0.679810,-0.615479,493
43764180,9994,-0.359375,0.688354,-0.617310,496
43774201,10021,-0.369873,0.690063,-0.618652,495
43784208,10007,-0.369751,0.692383,-0.618530,490
43794187,9979,-0.367065,0.683960,-0.614014,486
43804201,10014,-0.360229,0.678711,-0.609985,495
43814182,9981,-0.372070,0.673340,-0.615112,493
43824201,10019,-0.353638,0.679077,-0.605591,493
43834173,9972,-0.347046,0.690918,-0.606934,494
43844199,10026,-0.367920,0.695923,-0.619995,492
43854189,9990,-0.377319,0.688599,-0.615967,490
43864173,9984,-0.367798,0.679321,-0.610107,497
43874179,10006,-0.368652,0.682983,-0.617798,495
43884180,10001,-0.380859,0.679932,-0.619507,497
43894182,10002,-0.367310,0.680298,-0.611084,498
43904188,10006,-0.352417,0.680420,-0.607666,504
43914179,9991,-0.358765,0.681519,-0.616333,502
43924175,9996,-0.363403,0.671021,-0.613037,509
43934199,10024,-0.356445,0.673340,-0.613525,512
43944196,9997,-0.361328,0.683594,-0.621704,520
43954190,9994,-0.371460,0.689209,-0.622192,529
43964192,10002,-0.365723,0.694580,-0.615845,533
43974213,10021,-0.360718,0.658569,-0.613037,535
43984201,9988,-0.365356,0.681152,-0.613647,544
43994191,9990,-0.370239,0.679077,-0.616699,547
44004187,9996,-0.369873,0.684326,-0.620483,544
44014189,10002,-0.372681,0.682007,-0.622437,552
44024188,9999,-0.360840,0.680420,-0.607544,544
44034176,9988,-0.357300,0.687378,-0.608398,553
44044178,10002,-0.374146,0.679565,-0.615112,551
44054186,10008,-0.374878,0.675781,-0.611816,550
44064202,10016,-0.367065,0.672119,-0.608643,544
44074187,9985,-0.363281,0.682983,-0.612427,536
44084181,9994,-0.366333,0.695801,-0.614136,542
44094175,9994,-0.372192,0.688110,-0.615723,537
44104194,10019,-0.367676,0.682617,-0.614136,527
44114174,9980,-0.360352,0.677612,-0.611816,524
44124192,10018,-0.359253,0.677490,-0.612671,527
44134189,9997,-0.361328,0.683350,-0.616699,520
44144178,9989,-0.367920,0.688477,-0.619019,524
44154177,9999,-0.358765,0.685547,-0.612549,515
44164190,10013,-0.357422,0.684082,-0.611328,508
44174173,9983,-0.366089,0.683960,-0.615845,516
44184191,10018,-0.372192,0.680908,-0.617798,507
44194194,10003,-0.370605,0.684204,-0.617187,507
44204175,9981,-0.360962,0.685913,-0.610229,512
44214194,10019,-0.354126,0.689331,-0.603882,514
44224195,10001,-0.358398,0.690796,-0.607422,503
44234189,9994,-0.370117,0.685425,-0.611938,511
44244202,10013,-0.372192,0.678955,-0.608398,509
44254182,9980,-0.361328,0.680420,-0.609985,511
44264197,10015,-0.365356,0.687866,-0.612671,511
44274199,10002,-0.369019,0.693115,-0.613525,508
44284215,10016,-0.371338,0.690308,-0.614502,510
44294176,9961,-0.367676,0.681152,-0.611328,508
44304173,9997,-0.359985,0.676025,-0.613403,502
44314193,10020,-0.363159,0.678101,-0.616333,508
44324176,9983,-0.364990,0.679199,-0.619385,501
44334175,9999,-0.365845,0.682739,-0.620605,507
44344182,10007,-0.363647,0.681519,-0.615112,507
44354199,10017,-0.361450,0.681641,-0.613281,505
44364177,9978,-0.364990,0.680908,-0.615601,503
44374179,10002,-0.368530,0.679565,-0.617554,500
44384194,10015,-0.370239,0.681519,-0.617310,499
44394194,10000,-0.365479,0.683960,-0.614502,502
44404200,10006,-0.362915,0.687500,-0.612427,499
44414184,9984,-0.365234,0.688477,-0.610596,500
44424181,9997,-0.365112,0.685303,-0.609619,489
44434192,10011,-0.364014,0.682251,-0.609497,500
44444198,10006,-0.364746,0.683105,-0.609497,495
44454202,10004,-0.367554,0.685425,-0.612549,495
44464189,9987,-0.365723,0.686890,-0.612671,491
44474174,9985,-0.365967,0.685425,-0.612793,494
44484194,10020,-0.367188,0.683105,-0.615112,484
44494192,9998,-0.366333,0.678467,-0.614258,492
44504181,9989,-0.363037,0.677124,-0.615356,487
44514193,10012,-0.360840,0.676636,-0.615479,487
44524197,10004,-0.364258,0.679810,-0.616943,484
44534200,10003,-0.364258,0.681519,-0.615845,492
44544194,9994,-0.368164,0.681763,-0.616333,492
44554199,10005,-0.369873,0.682739,-0.616577,492
44564197,9998,-0.369141,0.683105,-0.616333,492
44574173,9976,-0.360840,0.684082,-0.613159,487
44584206,10033,-0.364014,0.683228,-0.613037,491
44594180,9974,-0.364502,0.683960,-0.613770,489
44604173,9993,-0.366211,0.683472,-0.612427,484
44614192,10019,-0.364746,0.684448,-0.609985,484
44624183,9991,-0.365356,0.689087,-0.612183,490
44634191,10008,-0.367798,0.690430,-0.612793,490
44644174,9983,-0.366577,0.688599,-0.611938,481
44654199,10025,-0.368408,0.688110,-0.612549,487
44664193,9994,-0.367920,0.684937,-0.611938,483
44674187,9994,-0.365356,0.681152,-0.611206,492
44684188,10001,-0.363770,0.679077,-0.611572,495
44694193,10005,-0.364624,0.679199,-0.613281,497
44704174,9981,-0.368164,0.677734,-0.613281,500
44714195,10021,-0.367798,0.678589,-0.614380,508
44724191,9996,-0.365967,0.678345,-0.615356,510
44734178,9987,-0.364502,0.678223,-0.617187,507
44744205,10027,-0.362793,0.679565,-0.616821,521
44754189,9984,-0.363037,0.679932,-0.617432,520
44764198,10009,-0.362305,0.679565,-0.619019,533
44774190,9992,-0.363892,0.680542,-0.619141,539
44784175,9985,-0.363525,0.680054,-0.619263,538
44794200,10025,-0.365967,0.682129,-0.616211,548
44804190,9990,-0.366943,0.683838,-0.616089,551
44814200,10010,-0.367065,0.683350,-0.613525,555
44824184,9984,-0.364624,0.684448,-0.611694,551
44834192,10008,-0.365479,0.684326,-0.611328,555
44844188,9996,-0.364868,0.684814,-0.613403,543
44854197,10009,-0.366089,0.683472,-0.612671,552
44864199,10002,-0.366211,0.683228,-0.611328,547
44874196,9997,-0.367310,0.683472,-0.612305,545
44884173,9977,-0.367798,0.683350,-0.613770,544
44894186,10013,-0.366699,0.682373,-0.614502,540
44904200,10014,-0.363281,0.682861,-0.614990,531
44914179,9979,-0.363159,0.683960,-0.616455,535
44924181,10002,-0.363159,0.685303,-0.617432,531
44934198,10017,-0.362549,0.686768,-0.616333,528
44944187,9989,-0.363525,0.687500,-0.617187,525
44954177,9990,-0.364014,0.684692,-0.615234,523
44964198,10021,-0.364502,0.683350,-0.614868,524
44974188,9990,-0.365723,0.681396,-0.614502,512
44984201,10013,-0.365723,0.679810,-0.613037,518
44994202,10001,-0.365723,0.679443,-0.612183,516
45004187,9985,-0.366577,0.680176,-0.611450,514
45014173,9986,-0.366699,0.680420,-0.613037,513
45024178,10005,-0.366699,0.679932,-0.612305,512
45034182,10004,-0.366943,0.680542,-0.612305,511
45044202,10020,-0.366455,0.680298,-0.613281,509
45054173,9971,-0.365601,0.681519,-0.613159,508
45064206,10033,-0.365479,0.686279,-0.615112,508
45074203,9997,-0.365601,0.687256,-0.615112,510
45084187,9984,-0.366699,0.688110,-0.615845,510
45094207,10020,-0.364990,0.684814,-0.616211,508
45104174,9967,-0.363281,0.682007,-0.614014,502
45114202,10028,-0.362427,0.678345,-0.615479,501
45124189,9987,-0.361694,0.678101,-0.614624,500
45134190,10001,-0.363770,0.680664,-0.614990,505
45144197,10007,-0.368408,0.682495,-0.617187,508
45154191,9994,-0.367676,0.682739,-0.614746,501
45164193,10002,-0.363770,0.683960,-0.613159,507
45174201,10008,-0.365967,0.683716,-0.613037,507
45184180,9979,-0.367676,0.681274,-0.614624,496
45194180,10000,-0.367554,0.678345,-0.614136,503
45204185,10005,-0.366699,0.678467,-0.615112,501
45214192,10007,-0.365723,0.678955,-0.613892,495
45224213,10021,-0.363037,0.679321,-0.615112,490
45234183,9970,-0.360962,0.678955,-0.614868,489
45244189,10006,-0.359985,0.678589,-0.616699,498
45254217,10028,-0.359009,0.679077,-0.617920,498
45264200,9983,-0.360962,0.681763,-0.617310,496
45274182,9982,-0.368652,0.684204,-0.616211,491
45284178,9996,-0.371826,0.685425,-0.615723,497
45294195,10017,-0.370850,0.689819,-0.613647,487
45304181,9986,-0.367676,0.690796,-0.611084,495
45314185,10004,-0.365845,0.693970,-0.609863,497
45324199,10014,-0.366089,0.699219,-0.610596,495
45334174,9975,-0.357544,0.705688,-0.605469,491
45344191,10017,-0.356567,0.704346,-0.603027,498
45354189,9998,-0.357056,0.703613,-0.603149,495
45364184,9995,-0.361084,0.699707,-0.601196,490
45374179,9995,-0.364868,0.693726,-0.599243,498
45384198,10019,-0.371582,0.684326,-0.599854,497
45394197,9999,-0.375488,0.680176,-0.601074,494
45404183,9986,-0.375000,0.676270,-0.602173,498
45414200,10017,-0.371704,0.673706,-0.604614,499
45424183,9983,-0.370117,0.670776,-0.605347,490
45434183,10000,-0.367798,0.671509,-0.607300,502
45444179,9996,-0.363647,0.676636,-0.607422,504
45454179,10000,-0.363281,0.677612,-0.607056,499
45464198,10019,-0.363525,0.678345,-0.608154,503
45474186,9988,-0.363281,0.679321,-0.609741,515
45484198,10012,-0.360718,0.682007,-0.613770,520
45494173,9975,-0.362915,0.684570,-0.615845,521
45504179,10006,-0.364990,0.683105,-0.617310,532
45514182,10003,-0.364868,0.681519,-0.620850,528
45524185,10003,-0.364136,0.681885,-0.623535,539
45534194,10009,-0.364258,0.680054,-0.623291,543
45544196,10002,-0.359619,0.688354,-0.627441,546
45554204,10008,-0.357910,0.692139,-0.623657,541
45564193,9989,-0.359497,0.689209,-0.616089,545
45574182,9989,-0.357300,0.683960,-0.618408,546
45584189,10007,-0.356201,0.689453,-0.618164,545
45594184,9995,-0.355469,0.700562,-0.616577,542
45604189,10005,-0.358887,0.700928,-0.608398,544
45614185,9996,-0.361084,0.697021,-0.609253,533
45624190,10005,-0.362427,0.689941,-0.611938,526
45634179,9989,-0.363770,0.684570,-0.611206,528
45644182,10003,-0.364624,0.683838,-0.610352,536
45654198,10016,-0.366089,0.685669,-0.609253,527
45664202,10004,-0.365845,0.686768,-0.609253,521
45674175,9973,-0.364990,0.687500,-0.609985,530
45684202,10027,-0.363403,0.687988,-0.609375,519
45694199,9997,-0.363037,0.685913,-0.609497,518
45704182,9983,-0.363281,0.682495,-0.610962,514
45714199,10017,-0.364990,0.683716,-0.612427,511
45724184,9985,-0.365356,0.685303,-0.611206,507
45734189,10005,-0.364868,0.687256,-0.611816,512
45744177,9988,-0.365112,0.688965,-0.612793,509
45754177,10000,-0.364258,0.691406,-0.612671,513
45764177,10000,-0.363403,0.691895,-0.613892,504
45774184,10007,-0.363647,0.690796,-0.613647,502
45784181,9997,-0.363647,0.688721,-0.612427,513
45794193,10012,-0.362061,0.685913,-0.611938,513
45804175,9982,-0.362061,0.684082,-0.611206,512
45814192,10017,-0.360840,0.682007,-0.609009,512
45824179,9987,-0.362061,0.682007,-0.609863,512
45834188,10009,-0.362427,0.680542,-0.610596,512
45844192,10004,-0.363770,0.679321,-0.610840,510
45854201,10009,-0.363892,0.677612,-0.612793,510
45864192,9991,-0.365967,0.677002,-0.612915,505
45874174,9982,-0.365112,0.678345,-0.614624,508
45884204,10030,-0.366699,0.679810,-0.616577,508
45894190,9986,-0.366943,0.680420,-0.617920,499
45904196,10006,-0.367920,0.682007,-0.618286,506
45914215,10019,-0.366455,0.682617,-0.618286,499
45924198,9983,-0.363647,0.682617,-0.617798,493
45934182,9984,-0.361816,0.683228,-0.617920,497
45944194,10012,-0.361328,0.684814,-0.615723,493
45954192,9998,-0.361816,0.684692,-0.614746,498
45964174,9982,-0.363159,0.685059,-0.613892,499
45974176,10002,-0.363892,0.685669,-0.612183,498
45984195,10019,-0.365845,0.685181,-0.608765,498
45994196,10001,-0.367920,0.684570,-0.606934,495
46004188,9992,-0.368530,0.683960,-0.607422,495
46014180,9992,-0.370728,0.684814,-0.606079,486
46024193,10013,-0.370117,0.685303,-0.605225,494
46034178,9985,-0.367798,0.684692,-0.606323,489
46044213,10035,-0.367432,0.683350,-0.608643,486
46054183,9970,-0.367798,0.682617,-0.610596,493
46064196,10013,-0.368652,0.678955,-0.613647,495
46074214,10018,-0.368164,0.677856,-0.614868,492
46084176,9962,-0.366821,0.677490,-0.617798,488
46094184,10008,-0.363403,0.678223,-0.618896,494
46104194,10010,-0.362915,0.678955,-0.618530,495
46114194,10000,-0.362793,0.679199,-0.618042,496
46124197,10003,-0.360840,0.678345,-0.619263,488
46134183,9986,-0.362427,0.680176,-0.617676,505
46144176,9993,-0.361694,0.687012,-0.614746,496
46154202,10026,-0.364014,0.690430,-0.614502,497
46164188,9986,-0.365845,0.693848,-0.612671,492
46174201,10013,-0.366821,0.692627,-0.609863,493
46184192,9991,-0.367554,0.691650,-0.608643,496
46194175,9983,-0.368530,0.683960,-0.605225,493
46204207,10032,-0.368896,0.682251,-0.605591,500
46214173,9966,-0.368408,0.681519,-0.605835,493
46224189,10016,-0.367310,0.683716,-0.606445,498
46234218,10029,-0.367065,0.686035,-0.607422,507
46244182,9964,-0.367554,0.688110,-0.610107,513
46254195,10013,-0.365112,0.685791,-0.614014,515
46264182,9987,-0.363647,0.683228,-0.614502,517
46274197,10015,-0.361450,0.681885,-0.616089,521
46284175,9978,-0.360596,0.682129,-0.616577,530
46294176,10001,-0.360962,0.681763,-0.617065,525
46304173,9997,-0.363037,0.682495,-0.617187,538
46314183,10010,-0.364258,0.683350,-0.615723,539
46324177,9994,-0.363647,0.683716,-0.615234,543
46334187,10010,-0.364502,0.684448,-0.614380,539
46344189,10002,-0.365356,0.686401,-0.614380,549
46354180,9991,-0.366943,0.687134,-0.612793,548
46364187,10007,-0.365356,0.690552,-0.608887,545
46374185,9998,-0.366943,0.690308,-0.607056,548
46384193,10008,-0.368652,0.689697,-0.606445,546
46394173,9980,-0.368164,0.687988,-0.606567,545
46404186,10013,-0.367798,0.685791,-0.607178,539
46414214,10028,-0.368286,0.682739,-0.608521,530
46424175,9961,-0.366699,0.683472,-0.609741,531
46434176,10001,-0.365234,0.684326,-0.611572,532
46444187,10011,-0.366577,0.685791,-0.613403,529
46454184,9997,-0.366211,0.686035,-0.614136,530
46464190,10006,-0.364014,0.680542,-0.615845,517
46474178,9988,-0.362793,0.680542,-0.615601,514
46484174,9996,-0.364136,0.680054,-0.615845,512
46494173,9999,-0.364380,0.680542,-0.615356,519
46504199,10026,-0.365112,0.681396,-0.615479,516
46514174,9975,-0.366211,0.681396,-0.614380,506
46524173,9999,-0.365845,0.683594,-0.613647,513
46534199,10026,-0.365601,0.684326,-0.611816,511
46544185,9986,-0.364624,0.684448,-0.611694,514
46554224,10039,-0.366577,0.686279,-0.611938,513
46564175,9951,-0.365967,0.687744,-0.611450,503
46574196,10021,-0.366333,0.687988,-0.609741,509
46584192,9996,-0.364502,0.687134,-0.609375,511
46594196,10004,-0.364990,0.685425,-0.608887,512
46604202,10006,-0.364990,0.684814,-0.608765,504
46614186,9984,-0.366089,0.684448,-0.609497,510
46624195,10009,-0.366577,0.684692,-0.609741,510
46634191,9996,-0.367676,0.685059,-0.610718,510
46644180,9989,-0.367554,0.683350,-0.611816,502
46654174,9994,-0.366699,0.680786,-0.612793,502
46664197,10023,-0.367310,0.679321,-0.613281,505
46674198,10001,-0.365967,0.676636,-0.613892,510
46684190,9992,-0.364014,0.677124,-0.614624,509
46694178,9988,-0.361938,0.678467,-0.616333,507
46704197,10019,-0.362793,0.680054,-0.617065,507
46714181,9984,-0.362061,0.682617,-0.617065,506
46724179,9998,-0.362305,0.684082,-0.618042,505
46734174,9995,-0.362427,0.686890,-0.616333,509
46744188,10014,-0.361694,0.697388,-0.615112,505
46754199,10011,-0.364380,0.702515,-0.614136,503
46764198,9999,-0.367554,0.706543,-0.611694,503
46774201,10003,-0.371338,0.708984,-0.608154,504
46784179,9978,-0.372803,0.708252,-0.606689,503
46794182,10003,-0.370117,0.697754,-0.603027,496
46804201,10019,-0.365601,0.689941,-0.603760,502
46814199,9998,-0.363281,0.677612,-0.602051,495
46824197,9998,-0.360840,0.664795,-0.597656,501
46834188,9991,-0.361694,0.655151,-0.597656,500
46844193,10005,-0.363892,0.645996,-0.603394,491
46854188,9995,-0.368408,0.644043,-0.607666,501
46864196,10008,-0.371216,0.644287,-0.611694,497
46874174,9978,-0.372192,0.646240,-0.616211,496
46884185,10011,-0.371216,0.649048,-0.619141,496
46894209,10024,-0.369263,0.657349,-0.622681,488
46904183,9974,-0.369629,0.681519,-0.632568,494
46914184,10001,-0.365967,0.695679,-0.636353,496
46924211,10027,-0.359375,0.704468,-0.638306,488
46934185,9974,-0.354614,0.708984,-0.638672,491
46944844,10659,-0.353638,0.704468,-0.636230,494
46954184,9340,-0.357178,0.705444,-0.630371,487
46964197,10013,-0.358765,0.707642,-0.624756,496
46974187,9990,-0.357178,0.707275,-0.618408,500
46984179,9992,-0.355469,0.702026,-0.612549,501
46994190,10011,-0.356812,0.696411,-0.606934,506
47004173,9983,-0.359131,0.689575,-0.604492,512
47014189,10016,-0.365723,0.683838,-0.598389,510
47024200,10011,-0.369507,0.682129,-0.595947,520
47034178,9978,-0.371216,0.682129,-0.593994,527
47044195,10017,-0.372314,0.682129,-0.593262,532
47054340,10145,-0.375122,0.681763,-0.593506,537
47064181,9841,-0.375610,0.680664,-0.593140,540
47074184,10003,-0.374146,0.681885,-0.596924,540
47084178,9994,-0.374268,0.683228,-0.600708,542
47094181,10003,-0.371094,0.682739,-0.604126,536
47104181,10000,-0.369751,0.683472,-0.607666,544
47114199,10018,-0.368164,0.682739,-0.617187,542
47124178,9979,-0.364136,0.683228,-0.619751,537
47134188,10010,-0.360840,0.684570,-0.623779,539
47144177,9989,-0.359375,0.684326,-0.626099,529
47154196,10019,-0.359375,0.681274,-0.628052,529
47164180,9984,-0.358154,0.679077,-0.628296,531
47174174,9994,-0.356201,0.675781,-0.626831,528
47184194,10020,-0.356323,0.677002,-0.624390,522
47194177,9983,-0.358276,0.679687,-0.621460,524
47204178,10001,-0.359863,0.682983,-0.617676,522
47214179,10001,-0.361572,0.684448,-0.613770,517
47224173,9994,-0.363892,0.685669,-0.608521,516
47234201,10028,-0.364746,0.684570,-0.606323,516
47244193,9992,-0.367310,0.684692,-0.605103,508
47254177,9984,-0.367920,0.685669,-0.603516,512
47264173,9996,-0.368042,0.687012,-0.602905,509
47274195,10022,-0.368896,0.688477,-0.604248,510
47284190,9995,-0.367554,0.691162,-0.605347,512
47294196,10006,-0.366943,0.692017,-0.606812,509
47304200,10004,-0.365234,0.691772,-0.608643,511
47314174,9974,-0.363037,0.691162,-0.610596,509
47324188,10014,-0.360962,0.691040,-0.612549,510
47334192,10004,-0.358765,0.687622,-0.616821,502
47344175,9983,-0.359009,0.685547,-0.617676,504
47354203,10028,-0.359009,0.683594,-0.617310,504
47364193,9990,-0.360229,0.683594,-0.617798,510
47374194,10001,-0.363037,0.681885,-0.617432,500
47384182,9988,-0.366211,0.681030,-0.614502,510
47394196,10014,-0.366943,0.683350,-0.614380,507
47404182,9986,-0.366211,0.684326,-0.612305,507
47414197,10015,-0.366089,0.687256,-0.611816,507
47424197,10000,-0.365845,0.687622,-0.609863,499
47434193,9996,-0.365479,0.688232,-0.609375,508
47444183,9990,-0.365967,0.685547,-0.608521,508
47454194,10011,-0.364868,0.684326,-0.608765,497
47464201,10007,-0.364258,0.683228,-0.609009,504
47474181,9980,-0.365723,0.682983,-0.610107,503
47484191,10010,-0.366577,0.680542,-0.613403,506
47494190,9999,-0.363647,0.676880,-0.614868,504
47504178,9988,-0.360962,0.677124,-0.617798,501
47514191,10013,-0.359375,0.677124,-0.618164,492
47524195,10004,-0.361206,0.677246,-0.618774,496
47534185,9990,-0.361938,0.678589,-0.618286,495
47544207,10022,-0.361938,0.679321,-0.618408,498
47554195,9988,-0.359375,0.685547,-0.617065,499
47564191,9996,-0.359863,0.687744,-0.616089,499
47574178,9987,-0.361450,0.688843,-0.616089,494
47584195,10017,-0.364380,0.688599,-0.615112,498
47594202,10007,-0.367310,0.686279,-0.613647,496
47604178,9976,-0.366821,0.683350,-0.609863,498
47614195,10017,-0.365845,0.683960,-0.609375,490
47624180,9985,-0.364868,0.685425,-0.608887,502
47634192,10012,-0.364136,0.685547,-0.609619,497
47644182,9990,-0.365479,0.687622,-0.609253,505
47654179,9997,-0.365723,0.687744,-0.611328,509
47664198,10019,-0.363770,0.691284,-0.613647,507
47674202,10004,-0.362183,0.692139,-0.612793,529
47684192,9990,-0.361450,0.691528,-0.613281,508
47694196,10004,-0.361938,0.691284,-0.612915,520
47704187,9991,-0.361450,0.689941,-0.614014,528
47714209,10022,-0.364014,0.685669,-0.614502,534
47724178,9969,-0.363647,0.682861,-0.614014,537
47734175,9997,-0.364258,0.678711,-0.612793,541
47744203,10028,-0.365601,0.677979,-0.612793,535
47754185,9982,-0.367065,0.675415,-0.612549,535
47764184,9999,-0.367065,0.675659,-0.613403,539
47774179,9995,-0.368530,0.674927,-0.613403,531
47784190,10011,-0.366455,0.675537,-0.613403,540
47794175,9985,-0.366333,0.678345,-0.615601,542
47804201,10026,-0.366821,0.679810,-0.616333,540
47814184,9983,-0.364624,0.681519,-0.614380,530
47824202,10018,-0.363647,0.683472,-0.616577,532
47834193,9991,-0.363892,0.684814,-0.617676,528
47844197,10004,-0.364502,0.685303,-0.617432,526
47854201,10004,-0.364014,0.684814,-0.616089,524
47864188,9987,-0.365112,0.683960,-0.614746,520
47874177,9989,-0.363647,0.681885,-0.613159,516
47884196,10019,-0.363281,0.680420,-0.611450,511
47894191,9995,-0.364258,0.681152,-0.611084,514
47904176,9985,-0.367065,0.683960,-0.613770,511
47914176,10000,-0.369385,0.687134,-0.614990,509
47924193,10017,-0.370605,0.687988,-0.613647,510
47934180,9987,-0.364624,0.689697,-0.610840,511
47944183,10003,-0.364258,0.687744,-0.609131,504
47954183,10000,-0.363770,0.684937,-0.609619,509
47964179,9996,-0.364502,0.680908,-0.611084,508
47974185,10006,-0.363525,0.678589,-0.610962,508
47984197,10012,-0.365723,0.680420,-0.613647,505
47994178,9981,-0.366943,0.682861,-0.615479,505
48004177,9999,-0.367920,0.681763,-0.616821,503
48014192,10015,-0.367310,0.681396,-0.616943,500
48024181,9989,-0.367798,0.679321,-0.616577,504
48034215,10034,-0.366211,0.678589,-0.616089,509
48044179,9964,-0.366333,0.677856,-0.617065,508
48054185,10006,-0.367065,0.679321,-0.616211,507
48064177,9992,-0.365845,0.679443,-0.615723,502
48074201,10024,-0.365356,0.679810,-0.615723,509
48084185,9984,-0.365112,0.679321,-0.614136,502
48094186,10001,-0.365845,0.678711,-0.614014,506
48104200,10014,-0.366333,0.679199,-0.613281,508
48114187,9987,-0.366333,0.679565,-0.611694,503
48124193,10006,-0.362793,0.677979,-0.606201,504
48134179,9986,-0.358154,0.682251,-0.603882,492
48144197,10018,-0.386719,0.687988,-0.625977,492
48154181,9984,-0.379517,0.687500,-0.621216,498
48164173,9992,-0.362671,0.686646,-0.611816,499
48174198,10025,-0.354004,0.690063,-0.608154,497
48184196,9998,-0.360718,0.690430,-0.611572,496
48194193,9997,-0.365723,0.683838,-0.610474,494
48204206,10013,-0.360474,0.668091,-0.610962,494
48214198,9992,-0.366333,0.671021,-0.613037,487
48224200,10002,-0.370728,0.680542,-0.615112,485
48234194,9994,-0.372681,0.691040,-0.619873,485
48244174,9980,-0.373535,0.693726,-0.617920,494
48254187,10013,-0.364624,0.678955,-0.609741,490
48264198,10011,-0.364258,0.670776,-0.608643,497
48274174,9976,-0.368042,0.666504,-0.612061,498
48284182,10008,-0.373291,0.668213,-0.614868,498
48294178,9996,-0.369751,0.672974,-0.614136,502
48304191,10013,-0.366333,0.679565,-0.614990,504
48314190,9999,-0.367188,0.686768,-0.613403,509
48324201,10011,-0.365845,0.686157,-0.611572,514
48334191,9990,-0.366211,0.682739,-0.614624,516
48344186,9995,-0.364868,0.679810,-0.614380,524
48354187,10001,-0.363525,0.681152,-0.613403,530
48364188,10001,-0.365112,0.689697,-0.613525,530
48374173,9985,-0.369385,0.691895,-0.613647,535
48384186,10013,-0.370728,0.689575,-0.613403,540
48394175,9989,-0.369019,0.687744,-0.613892,541
48404219,10044,-0.368164,0.684937,-0.612793,541
48414175,9956,-0.366455,0.680786,-0.610962,542
48424195,10020,-0.365112,0.678955,-0.612915,533
48434192,9997,-0.364136,0.677368,-0.613525,542
48444189,9997,-0.366089,0.675293,-0.612305,537
48454178,9989,-0.365845,0.676514,-0.611084,529
48464176,9998,-0.365356,0.676147,-0.611328,529
48474189,10013,-0.368896,0.677002,-0.612549,531
48484175,9986,-0.369141,0.676025,-0.613403,530
48494197,10022,-0.369385,0.674805,-0.613647,528
48504178,9981,-0.367432,0.675781,-0.613525,526
48514174,9996,-0.369019,0.676147,-0.614624,521
48524192,10018,-0.366455,0.676758,-0.612915,522
48534182,9990,-0.363403,0.677856,-0.610962,513
48544223,10041,-0.361816,0.681396,-0.609497,522
48554183,9960,-0.363159,0.687744,-0.608398,520
48564202,10019,-0.363281,0.691772,-0.607910,515
48574186,9984,-0.359863,0.694458,-0.606079,516
48584175,9989,-0.359985,0.700073,-0.605469,507
48594184,10009,-0.361816,0.703003,-0.603271,516
48604196,10012,-0.359741,0.708740,-0.603516,512
48614202,10006,-0.359497,0.713745,-0.603760,511
48624193,9991,-0.359009,0.716431,-0.604736,512
48634196,10003,-0.361084,0.717896,-0.606567,505
48644192,9996,-0.362427,0.713989,-0.606934,511
48654186,9994,-0.366577,0.708008,-0.606934,513
48664177,9991,-0.367676,0.701782,-0.606567,503
48674199,10022,-0.367676,0.695068,-0.607178,513
48684177,9978,-0.368286,0.688843,-0.609009,504
48694189,10012,-0.366455,0.679321,-0.610229,511
48704186,9997,-0.363770,0.674561,-0.609253,503
48714178,9992,-0.363647,0.672241,-0.610596,499
48724177,9999,-0.365479,0.670898,-0.611084,504
48734192,10015,-0.365356,0.669067,-0.610229,497
48744189,9997,-0.362793,0.667969,-0.608398,497
48754179,9990,-0.363281,0.670654,-0.608521,505
48764195,10016,-0.367798,0.675049,-0.610474,507
48774182,9987,-0.370850,0.677246,-0.609619,502
48784202,10020,-0.364868,0.677002,-0.602539,496
48794199,9997,-0.358765,0.687012,-0.604736,505
48804196,9997,-0.368652,0.690552,-0.607422,504
48814199,10003,-0.373779,0.691284,-0.607056,506
48824173,9974,-0.374268,0.695190,-0.610840,501
48834181,10008,-0.372437,0.695435,-0.613281,504
48844188,10007,-0.364502,0.699951,-0.612305,504
48854184,9996,-0.361938,0.697021,-0.613770,503
48864202,10018,-0.356201,0.689331,-0.614014,503
48874175,9973,-0.363892,0.682373,-0.612061,501
48884181,10006,-0.356201,0.683350,-0.612183,500
48894176,9995,-0.351318,0.682739,-0.612183,500
48904184,10008,-0.367676,0.697510,-0.613892,512
48914183,9999,-0.360962,0.694580,-0.612915,495
48924187,10004,-0.361084,0.691284,-0.611816,495
48934219,10032,-0.365845,0.684326,-0.611694,496
