t_us,dt_us,ax,ay,az,ppg
7984181,10022,0.746704,0.442383,0.107178,514
8004490,20309,0.793945,0.448608,0.062744,511
8010060,5570,0.000000,0.000000,0.000000,519
8014615,4555,0.829590,0.452881,0.050903,513
8024176,9561,0.862183,0.457886,0.039185,520
8034165,9989,0.889160,0.457031,0.029175,520
8044164,9999,0.913818,0.452881,0.021729,516
8054168,10004,0.961914,0.445435,0.001221,525
8064174,10006,0.987183,0.445679,-0.006958,528
8074162,9988,1.006470,0.445801,-0.010132,529
8084161,9999,1.026855,0.447144,-0.014771,532
8094166,10005,1.043823,0.452393,-0.021851,533
8104181,10015,1.052368,0.459839,-0.029175,535
8114176,9995,1.056152,0.468750,-0.031982,538
8124187,10011,1.052612,0.462646,-0.030762,538
8134189,10002,1.045410,0.453613,-0.028198,540
8144166,9977,1.036377,0.440552,-0.028076,532
8154170,10004,1.023438,0.427124,-0.024048,542
8164194,10024,1.001709,0.407837,-0.009888,538
8174186,9992,0.993042,0.398560,-0.006836,537
8184164,9978,0.979492,0.391846,-0.001221,536
8194183,10019,0.964600,0.389160,0.017944,529
8204169,9986,0.959839,0.398315,0.029663,532
8214182,10013,0.958984,0.405151,0.031738,532
8224173,9991,0.953125,0.394409,0.032349,532
8234177,10004,0.952881,0.384888,0.034424,529
8244166,9989,0.954346,0.373169,0.040161,527
8254165,9999,0.962891,0.359619,0.047363,522
8264185,10020,0.979736,0.347046,0.067993,519
8274159,9974,1.001709,0.334961,0.139771,522
8284187,10028,1.004517,0.333862,0.146851,524
8294161,9974,0.994141,0.331787,0.145142,525
8304167,10006,0.973389,0.338745,0.138062,526
8314170,10003,0.946899,0.348633,0.136841,528
8324182,10012,0.927734,0.357178,0.136841,528
8334181,9999,0.967896,0.373657,0.129395,531
8344173,9992,1.022949,0.383301,0.129272,528
8354205,10032,1.085571,0.385742,0.138672,531
8364178,9973,1.138794,0.378540,0.153687,524
8374177,9999,1.165161,0.368286,0.168335,535
8384164,9987,1.122803,0.342896,0.187866,528
8394159,9995,1.051514,0.334961,0.186890,525
8404169,10010,0.973999,0.331177,0.185303,533
8414184,10015,0.894409,0.325806,0.182251,532
8424171,9987,0.819336,0.317383,0.180176,528
8434171,10000,0.754272,0.307129,0.185913,526
8444168,9997,0.663818,0.281006,0.193359,523
8454164,9996,0.641602,0.268799,0.200562,520
8464169,10005,0.634399,0.260132,0.205444,515
8474161,9992,0.641968,0.253662,0.207642,513
8484176,10015,0.662598,0.258057,0.218750,506
8494185,10009,0.705078,0.279663,0.198730,508
8504162,9977,0.761108,0.279175,0.189575,506
8514185,10023,0.808472,0.299683,0.192139,501
8524182,9997,0.840210,0.309326,0.200317,498
8534165,9983,0.879639,0.322144,0.207764,496
8544168,10003,0.911865,0.368408,0.198853,497
8554187,10019,0.901001,0.359253,0.185059,506
8564170,9983,0.900757,0.371460,0.175659,510
8574183,10013,0.911133,0.388794,0.172607,514
8584179,9996,0.918091,0.398804,0.169800,518
8594163,9984,0.920288,0.402100,0.166016,516
8604165,10002,0.928101,0.391602,0.162109,514
8614189,10024,0.924683,0.377319,0.165649,522
8624164,9975,0.916016,0.366577,0.165649,519
8634170,10006,0.902832,0.360718,0.161987,522
8644188,10018,0.885864,0.353271,0.155396,521
8654188,10000,0.869141,0.343384,0.144531,519
8664165,9977,0.856445,0.342529,0.145752,517
8674171,10006,0.856934,0.340942,0.154541,511
8684159,9988,0.865234,0.338989,0.167847,514
8694159,10000,0.872925,0.342163,0.176270,511
8704173,10014,0.880005,0.349365,0.175171,502
8714162,9989,0.887085,0.378052,0.162598,506
8724173,10011,0.893799,0.389526,0.159668,501
8734169,9996,0.905640,0.394409,0.156860,497
8744176,10007,0.921021,0.395508,0.157227,506
8754175,9999,0.940063,0.395996,0.159302,500
8764164,9989,0.970093,0.409546,0.159424,502
8774169,10005,0.974609,0.416748,0.155884,499
8784177,10008,0.977661,0.418579,0.152588,501
8794166,9989,0.981445,0.418823,0.151001,499
8804159,9993,0.984741,0.418579,0.149170,497
8814194,10035,0.984863,0.418213,0.148560,498
8824166,9972,0.978394,0.418579,0.149780,497
8834182,10016,0.971924,0.417847,0.150391,497
8844169,9987,0.961670,0.418823,0.150024,490
8854174,10005,0.953247,0.419434,0.148193,497
8864171,9997,0.946167,0.422607,0.147339,499
8874178,10007,0.955566,0.430176,0.138794,496
8884161,9983,0.982422,0.436890,0.136108,492
8894164,10003,1.016113,0.444702,0.137085,501
8904181,10017,1.054077,0.450195,0.144775,502
8914177,9996,1.088379,0.454956,0.153442,504
8924176,9999,1.110596,0.463135,0.161743,506
8934171,9995,1.086060,0.491699,0.169922,505
8944184,10013,1.035278,0.498901,0.166992,507
8954163,9979,0.974121,0.500366,0.159302,515
8964169,10006,0.901489,0.499634,0.147583,512
8974189,10020,0.829834,0.494019,0.137695,519
8984166,9977,0.709595,0.481812,0.118774,516
8994216,10050,0.670532,0.468628,0.112671,526
9004190,9974,0.644165,0.451416,0.107056,528
9014176,9986,0.655273,0.418579,0.097412,522
9026961,12785,0.706177,0.405640,0.096924,530
9034199,7238,0.000000,0.000000,0.000000,529
9044170,9971,0.774292,0.442261,0.083252,521
9054171,10001,0.801514,0.453491,0.069092,524
9064167,9996,0.843750,0.462036,0.056519,529
9074182,10015,0.895508,0.466064,0.047485,529
9084174,9992,0.950317,0.468262,0.043823,523
9094170,9996,1.039307,0.472168,0.027954,532
9104186,10016,1.068359,0.479614,0.023804,533
9114159,9973,1.082153,0.490845,0.020142,537
9124179,10020,1.081665,0.498657,0.017090,543
9134176,9997,1.077271,0.502319,0.011108,547
9144181,10005,1.072021,0.500000,0.004517,547
9154169,9988,1.058228,0.466064,0.002319,554
9164170,10001,1.047729,0.440430,0.007080,550
9174188,10018,1.034180,0.417969,0.012207,554
9184159,9971,1.019287,0.404419,0.012329,555
9194188,10029,1.001831,0.393921,0.011841,550
9204160,9972,0.974731,0.368408,0.013062,551
9214164,10004,0.961426,0.353516,0.023560,548
9224187,10023,0.953491,0.344604,0.029541,544
9234183,9996,0.944458,0.338989,0.033813,543
9244169,9986,0.937744,0.338623,0.036133,539
9254176,10007,0.934937,0.373291,0.035400,535
9264163,9987,0.949341,0.354980,0.040527,534
9274188,10025,0.967651,0.355469,0.045654,525
9284167,9979,0.981934,0.352661,0.051880,521
9294185,10018,0.988770,0.345947,0.055908,526
9304165,9980,0.989624,0.343140,0.064941,525
9314177,10012,0.997559,0.340454,0.086548,524
9324170,9993,0.992065,0.337280,0.090454,524
9334175,10005,0.982544,0.337891,0.095947,518
9344182,10007,0.974976,0.342529,0.093140,526
9354183,10001,0.966797,0.353760,0.086304,521
9364175,9992,0.961670,0.363281,0.096313,525
9374186,10011,0.964844,0.355469,0.112549,521
9384164,9978,0.963257,0.343994,0.130127,519
9394167,10003,0.952515,0.328369,0.146362,516
9404189,10022,0.934326,0.315308,0.155029,512
9414188,9999,0.910889,0.305176,0.157837,515
9424204,10016,0.875854,0.297729,0.157104,516
9434159,9955,0.880005,0.302002,0.156738,508
9444174,10015,0.903442,0.311890,0.152222,513
9454187,10013,0.943359,0.324463,0.146118,513
9464166,9979,0.980225,0.337769,0.140747,512
9474177,10011,1.003418,0.355835,0.141479,509
9484170,9993,1.005371,0.355225,0.149658,508
9494173,10003,0.988525,0.348633,0.156128,512
9504160,9987,0.954712,0.339478,0.158447,514
9514171,10011,0.915161,0.331543,0.159668,512
9524175,10004,0.867432,0.322632,0.162109,510
9534189,10014,0.769165,0.295776,0.170288,518
9544186,9997,0.726562,0.283936,0.168579,514
9554179,9993,0.696655,0.276001,0.169434,518
9564173,9994,0.670776,0.280151,0.166382,525
9574171,9998,0.648315,0.277466,0.164429,526
9584174,10003,0.681152,0.282959,0.160645,515
9594170,9996,0.704468,0.289673,0.161865,525
9604184,10014,0.739136,0.295410,0.162109,522
9614161,9977,0.788574,0.303955,0.161499,515
9624188,10027,0.832031,0.317993,0.161377,520
9634180,9992,0.859497,0.331787,0.159546,519
9644166,9986,0.926147,0.361450,0.156250,520
9654184,10018,0.955322,0.374634,0.158203,518
9664170,9986,0.973022,0.385620,0.159546,521
9674191,10021,0.982666,0.395020,0.160645,523
9684186,9995,0.986206,0.402222,0.159912,526
9694180,9994,0.982178,0.408691,0.158325,528
9704167,9987,0.976440,0.409058,0.159912,522
9714179,10012,0.966431,0.404663,0.160645,534
9724160,9981,0.950928,0.399170,0.160767,536
9734186,10026,0.935303,0.396729,0.158569,534
9744188,10002,0.922241,0.396118,0.154175,536
9754186,9998,0.900269,0.397095,0.148560,536
9764166,9980,0.894653,0.395142,0.148315,533
9774164,9998,0.895264,0.392822,0.150635,534
9784182,10018,0.897705,0.389893,0.157349,532
9794174,9992,0.902466,0.388184,0.171143,523
9804179,10005,0.908569,0.402588,0.176147,530
9814161,9982,0.909546,0.416382,0.170044,526
9824168,10007,0.913086,0.434082,0.166138,525
9834186,10018,0.920532,0.445557,0.165649,522
9844185,9999,0.927368,0.450684,0.168335,518
9854187,10002,0.936279,0.449585,0.169434,520
9864196,10009,0.947632,0.448853,0.172363,514
9874166,9970,0.947998,0.449097,0.170898,518
9884168,10002,0.946533,0.447876,0.167358,516
9894182,10014,0.945801,0.447144,0.164551,512
9904185,10003,0.945435,0.449097,0.159302,506
9914185,10000,0.947021,0.456665,0.155029,505
9924169,9984,0.946411,0.458984,0.154907,510
9934174,10005,0.942017,0.462891,0.156494,514
9944187,10013,0.936279,0.465088,0.155640,515
9954186,9999,0.939209,0.471069,0.150513,510
9964181,9995,0.960815,0.477173,0.135986,517
9974162,9981,1.040283,0.494019,0.135864,520
9984159,9997,1.080688,0.500000,0.143921,521
9994174,10015,1.106567,0.505493,0.151123,521
10004181,10007,1.103638,0.507202,0.155762,519
10014188,10007,1.067749,0.503662,0.156006,523
10024177,9989,0.955933,0.476318,0.135864,522
10034185,10008,0.863892,0.446411,0.127319,525
10044162,9977,0.798706,0.432007,0.128906,516
10054186,10024,0.739746,0.414307,0.121460,527
10064206,10020,0.698486,0.389160,0.111694,527
10074166,9960,0.661499,0.342285,0.087402,533
10084180,10014,0.644653,0.334473,0.073975,529
10094195,10015,0.663696,0.339233,0.067261,537
10104185,9990,0.699341,0.355225,0.062866,538
10114159,9974,0.741821,0.373047,0.062378,531
10124174,10015,0.790283,0.387207,0.052979,535
10134187,10013,0.882690,0.413574,0.021484,527
10144180,9993,0.934082,0.426514,0.009521,530
10154172,9992,0.988892,0.441284,0.000732,528
10164173,10001,1.033447,0.449951,-0.006104,535
10174183,10010,1.071167,0.451416,-0.010986,537
10184184,10001,1.111938,0.438354,-0.018555,542
10194175,9991,1.120605,0.427124,-0.015503,545
10204182,10007,1.125244,0.422607,-0.005981,555
10214184,10002,1.129517,0.423950,0.002075,563
10224186,10002,1.125000,0.426880,0.008667,564
10234182,9996,1.105347,0.424805,0.014282,577
10244172,9990,1.045288,0.402466,0.015259,578
10254164,9992,1.015015,0.382690,0.017212,575
10264166,10002,0.988403,0.363159,0.022827,575
10274185,10019,0.964111,0.349854,0.029541,573
10284182,9997,0.947510,0.334229,0.040771,570
10294163,9981,0.930908,0.316406,0.078003,564
10304162,9999,0.925781,0.320190,0.089600,563
10314184,10022,0.915527,0.328247,0.090576,555
10324163,9979,0.907715,0.336182,0.087402,550
10334188,10025,0.905273,0.341309,0.088013,546
10344176,9988,0.907593,0.343018,0.091064,538
10354162,9986,0.926392,0.348999,0.100708,542
10364178,10016,0.940430,0.350708,0.111694,535
10374172,9994,0.953613,0.349731,0.123291,533
10384172,10000,0.962646,0.349121,0.129883,535
10394166,9994,0.967773,0.349487,0.131348,526
10404171,10005,0.969971,0.355225,0.125122,532
10414184,10013,0.965332,0.356812,0.120972,533
10424174,9990,0.956421,0.355103,0.119995,534
10434182,10008,0.947021,0.348755,0.122559,532
10444188,10006,0.941528,0.340942,0.126709,531
10454166,9978,0.941284,0.333984,0.134277,534
10464177,10011,0.954834,0.330933,0.130127,530
10474174,9997,0.937500,0.327271,0.125244,538
10484213,10039,0.908447,0.323853,0.120117,534
10494163,9950,0.884644,0.323242,0.113892,539
10504159,9996,0.877441,0.322388,0.111328,540
10514197,10038,0.909302,0.319092,0.109009,540
10524165,9968,0.931885,0.320190,0.113037,541
10534175,10010,0.952271,0.326660,0.111572,538
10544173,9998,0.965088,0.333374,0.104736,537
10554177,10004,0.964233,0.336914,0.102417,536
10564185,10008,0.949219,0.335693,0.104614,528
10574167,9982,0.881470,0.320557,0.113892,532
10584159,9992,0.838745,0.313477,0.117554,532
10594166,10007,0.802368,0.309326,0.118530,530
10604170,10004,0.763672,0.313721,0.123535,529
10614178,10008,0.707397,0.308838,0.128784,525
10624178,10000,0.679932,0.291382,0.148315,521
10634166,9988,0.658569,0.293213,0.161987,508
10644180,10014,0.656494,0.301147,0.172119,503
10654175,9995,0.665894,0.315308,0.176758,502
10664167,9992,0.669800,0.329590,0.173828,494
10674174,10007,0.676147,0.372925,0.170044,479
10684160,9986,0.753296,0.375977,0.170898,471
10694194,10034,0.796875,0.392944,0.170410,458
10704166,9972,0.841675,0.404297,0.168335,449
10714186,10020,0.890015,0.409058,0.167969,443
10724160,9974,0.934692,0.411377,0.170044,443
10734183,10023,0.998413,0.416626,0.176147,444
10744169,9986,1.015259,0.421265,0.176025,447
10754174,10005,1.022827,0.424683,0.178833,451
10764176,10002,1.025269,0.427612,0.181152,461
10774168,9992,1.021606,0.430176,0.182007,468
10784170,10002,1.012451,0.440308,0.182983,480
10794178,10008,0.973633,0.443237,0.184326,491
10804168,9990,0.950317,0.443481,0.184204,499
10814159,9991,0.928223,0.440796,0.183350,511
10824169,10010,0.910156,0.434570,0.183472,508
10834184,10015,0.896362,0.430542,0.184692,524
10844160,9976,0.880737,0.418091,0.189697,529
10854165,10005,0.880615,0.414307,0.190918,535
10864178,10013,0.880371,0.411499,0.190674,537
10874175,9997,0.879028,0.411865,0.188721,541
10884215,10040,0.877686,0.414673,0.187866,542
10894181,9966,0.881714,0.426636,0.191284,533
10904163,9982,0.887085,0.432373,0.189209,540
10914170,10007,0.892334,0.436890,0.186768,529
10924164,9994,0.902222,0.440552,0.186157,541
10934159,9995,0.915894,0.442505,0.188477,530
10944175,10016,0.925903,0.443359,0.189697,537
10954189,10014,0.934448,0.449219,0.187378,529
10964186,9997,0.931396,0.450562,0.186279,536
10974182,9996,0.924927,0.451782,0.185791,525
10984169,9987,0.916382,0.451294,0.185547,522
10994187,10018,0.911011,0.449463,0.185791,529
11004162,9975,0.898926,0.444214,0.184814,521
11014174,10012,0.891113,0.440552,0.183716,526
11024172,9998,0.884888,0.437622,0.180542,525
11034162,9990,0.877441,0.436401,0.177368,522
11044188,10026,0.872925,0.436035,0.173340,516
11054182,9994,0.868896,0.437866,0.172363,521
11064175,9993,0.868530,0.460327,0.165649,522
11074188,10013,0.865967,0.468628,0.158813,517
11084175,9987,0.860107,0.469849,0.153687,517
11094173,9998,0.853760,0.466553,0.150391,526
11104164,9991,0.844482,0.456299,0.143311,528
11114166,10002,0.865601,0.431885,0.132202,527
11124205,10039,0.926147,0.437500,0.127441,529
11134180,9975,0.976562,0.452515,0.126343,529
11144187,10007,1.002686,0.457397,0.127930,530
11154169,9982,1.029541,0.456177,0.132446,522
11164186,10017,1.047363,0.451660,0.135132,529
11174171,9985,0.995605,0.431519,0.126953,530
11184181,10010,0.930298,0.417603,0.119873,531
11194169,9988,0.858765,0.401489,0.116211,532
11204186,10017,0.794189,0.389038,0.112305,531
11214163,9977,0.746948,0.380127,0.108032,535
11224163,10000,0.711792,0.376831,0.089111,533
11234180,10017,0.723877,0.383057,0.078247,540
11244159,9979,0.758301,0.393921,0.068848,533
11254168,10009,0.806763,0.407227,0.058960,535
11264164,9996,0.856689,0.421997,0.049683,529
11274166,10002,0.910400,0.437988,0.042603,524
11284186,10020,1.023071,0.450073,0.037720,529
11294173,9987,1.072266,0.446777,0.031616,512
11304212,10039,1.106201,0.439575,0.027954,517
11314186,9974,1.128662,0.431396,0.030029,516
11324160,9974,1.135986,0.422241,0.036499,523
11334164,10004,1.119751,0.411133,0.060425,530
11344178,10014,1.099121,0.417725,0.057739,533
11354187,10009,1.069702,0.422607,0.046631,542
11364188,10001,1.039551,0.420776,0.041138,546
11374166,9978,1.020874,0.410156,0.046631,544
11384159,9993,1.006104,0.359375,0.065552,542
11394180,10021,0.979858,0.346924,0.073364,543
11404187,10007,0.968018,0.333130,0.079224,536
11414174,9987,0.957275,0.319702,0.080566,543
11424181,10007,0.943848,0.308105,0.081787,532
11434176,9995,0.933716,0.299438,0.093506,533
11444164,9988,0.929932,0.307129,0.105225,528
11454163,9999,0.923096,0.324097,0.098633,522
11464172,10009,0.916016,0.342041,0.094238,526
11474176,10004,0.909424,0.348877,0.092529,520
11484187,10011,0.904907,0.352295,0.095581,523
11494187,10000,0.899536,0.355103,0.103394,523
11504211,10024,0.897339,0.349243,0.107788,516
11514188,9977,0.895996,0.342529,0.112427,524
11524175,9987,0.896484,0.337280,0.114624,526
11534162,9987,0.899048,0.332153,0.115845,524
11544176,10014,0.895874,0.326172,0.117676,526
11554182,10006,0.876343,0.322266,0.114990,527
11566452,12270,0.860107,0.324463,0.110596,524
11574168,7716,0.845825,0.328003,0.106689,528
11584165,9997,0.834473,0.329956,0.105103,521
11594175,10010,0.831421,0.328857,0.103760,527
11604187,10012,0.827759,0.328491,0.102417,526
11614172,9985,0.825073,0.329102,0.099854,525
11624165,9993,0.819702,0.329590,0.097290,515
11634186,10021,0.813354,0.328979,0.096191,521
11644177,9991,0.806641,0.328125,0.093872,519
11654178,10001,0.806152,0.328247,0.087769,512
11666162,11984,0.848389,0.350708,0.089111,513
11674161,7999,0.868896,0.357300,0.082886,511
11684212,10051,0.899536,0.357056,0.071777,509
11694183,9971,0.955811,0.362915,0.071045,503
11704185,10002,0.971558,0.369751,0.081299,502
11714160,9975,0.985840,0.369141,0.092651,494
11724172,10012,0.959839,0.366943,0.091309,499
11734184,10012,0.911865,0.362549,0.093872,509
11744179,9995,0.874390,0.359863,0.104248,510
11754171,9992,0.848633,0.360107,0.117798,514
11765009,10838,0.805542,0.356079,0.132324,520
11774182,9173,0.796753,0.356201,0.131470,520
11784169,9987,0.791626,0.359253,0.131226,512
11794186,10017,0.793823,0.363647,0.132568,520
11804181,9995,0.805054,0.364136,0.136108,509
11814185,10004,0.821411,0.363525,0.138916,513
11824163,9978,0.869141,0.366455,0.139771,502
11834168,10005,0.894043,0.375610,0.143188,503
11844184,10016,0.917847,0.383301,0.152954,500
11854174,9990,0.938232,0.390503,0.161255,496
11864172,9998,0.949707,0.396118,0.161987,495
11874181,10009,0.950562,0.409668,0.156616,494
11884175,9994,0.950928,0.413940,0.159302,492
11894174,9999,0.954224,0.412476,0.163940,493
11904166,9992,0.959595,0.406250,0.168213,503
11914195,10029,0.964600,0.398804,0.169434,508
11924177,9982,0.967651,0.395264,0.170288,510
11934167,9990,0.974487,0.405884,0.163330,513
11944183,10016,0.976929,0.408081,0.161133,518
11954186,10003,0.978516,0.408813,0.160034,521
11964170,9984,0.984985,0.406128,0.161743,522
11974184,10014,0.985107,0.403687,0.166260,524
11984184,10000,0.973145,0.405762,0.178711,520
11994180,9996,0.954346,0.411987,0.184570,521
12004164,9984,0.928833,0.419800,0.190552,526
12014174,10010,0.901855,0.429565,0.199707,521
12024164,9990,0.879517,0.437378,0.201416,529
12034175,10011,0.859619,0.441895,0.198853,524
12044174,9999,0.833008,0.445923,0.193359,524
12054163,9989,0.829224,0.446899,0.191895,524
12064166,10003,0.832397,0.447266,0.191040,521
12074159,9993,0.837524,0.448120,0.189697,512
12084164,10005,0.847534,0.449951,0.187378,516
12094189,10025,0.866089,0.456909,0.179443,514
12104177,9988,0.875854,0.462158,0.177734,512
12114194,10017,0.885620,0.469727,0.175171,511
12124165,9971,0.894897,0.480957,0.171631,511
12134160,9995,0.897217,0.491455,0.164795,511
12144159,9999,0.900635,0.499512,0.160889,509
12154172,10013,0.910034,0.496826,0.156128,505
12164167,9995,0.913696,0.502319,0.154907,514
12174186,10019,0.898315,0.489746,0.158691,519
12184184,9998,0.924561,0.486816,0.159668,521
12194180,9996,0.917969,0.490967,0.161499,524
12204183,10003,0.876587,0.505005,0.154663,535
12214161,9978,0.862793,0.503174,0.154541,539
12224168,10007,0.853760,0.496948,0.154785,542
12234179,10011,0.855347,0.484253,0.154297,540
12244160,9981,0.880615,0.470093,0.152222,548
12254162,10002,0.926514,0.457397,0.151123,545
12264176,10014,1.016968,0.435913,0.165161,552
12274209,10033,1.041870,0.429199,0.174072,546
12284166,9957,1.039917,0.422241,0.177734,547
12294175,10009,1.007080,0.413574,0.173706,549
12304168,9993,0.954468,0.403809,0.167603,554
12314165,9997,0.839722,0.392700,0.157593,557
12324180,10015,0.790894,0.386963,0.145630,556
12334161,9981,0.756836,0.376953,0.135010,557
12344182,10021,0.744751,0.362671,0.128906,552
12354169,9987,0.755249,0.352539,0.121460,551
12364179,10010,0.787842,0.312988,0.103394,544
12374180,10001,0.875366,0.346924,0.096924,540
12384173,9993,0.927490,0.354370,0.098022,532
12394175,10002,0.985107,0.364990,0.103027,521
12404188,10013,1.034668,0.377319,0.108154,520
12414170,9982,1.070801,0.392578,0.108521,517
12424163,9993,1.090454,0.416626,0.086182,509
12434171,10008,1.081421,0.418091,0.071777,519
12444185,10014,1.074219,0.408203,0.062866,524
12454181,9996,1.071167,0.392334,0.061035,530
12464169,9988,1.068359,0.375244,0.061523,526
12474186,10017,1.032959,0.351685,0.070312,541
12484202,10016,1.061890,0.341187,0.075317,545
12494185,9983,1.054199,0.331909,0.076172,549
12504177,9992,1.036621,0.322388,0.074707,552
12514179,10002,1.013550,0.314209,0.072388,553
12524182,10003,0.991943,0.310547,0.071411,549
12534170,9988,0.942139,0.308716,0.072998,551
12544185,10015,0.922729,0.308350,0.074707,550
12554168,9983,0.903809,0.307739,0.077759,546
12564187,10019,0.886597,0.306396,0.079590,540
12574160,9973,0.872925,0.305664,0.082153,539
12584178,10018,0.852173,0.306396,0.089355,527
12594172,9994,0.843262,0.306519,0.094727,524
12604188,10016,0.835205,0.306763,0.096436,518
12614167,9979,0.825684,0.308594,0.096436,511
12624183,10016,0.821899,0.307861,0.098511,497
12634162,9979,0.820801,0.310913,0.100098,496
12644167,10005,0.828613,0.320557,0.098633,486
12654164,9997,0.838989,0.322266,0.099121,478
12664168,10004,0.847900,0.320801,0.097290,470
12674167,9999,0.854492,0.317383,0.097778,467
12684184,10017,0.859009,0.313354,0.097168,463
12694176,9992,0.863647,0.314087,0.097534,452
12704161,9985,0.867065,0.314697,0.103638,458
12714170,10009,0.868286,0.318604,0.114258,462
12724163,9993,0.872437,0.325073,0.123657,462
12734181,10018,0.868530,0.333130,0.122314,462
12744173,9992,0.855469,0.337646,0.120117,467
12754174,10001,0.919678,0.361450,0.104248,477
12764175,10001,0.960327,0.380371,0.096069,484
12774171,9996,1.012451,0.388794,0.096191,490
12784166,9995,1.062012,0.386719,0.102905,499
12794176,10010,1.075439,0.375244,0.106812,503
12804163,9987,1.002563,0.346313,0.118652,518
12814173,10010,0.957031,0.344116,0.132690,527
12824170,9997,0.904785,0.345215,0.135620,535
12834182,10012,0.852295,0.344482,0.134644,544
12844183,10001,0.800903,0.347534,0.131714,550
12854174,9991,0.757324,0.348389,0.136353,546
12864169,9995,0.717285,0.344604,0.153076,551
12874159,9990,0.715576,0.341553,0.161743,540
12884183,10024,0.722290,0.340332,0.166626,542
12894173,9990,0.732788,0.343140,0.169434,535
12904162,9989,0.749512,0.348389,0.171753,521
12914200,10038,0.808594,0.373047,0.171631,516
12924175,9975,0.845825,0.388672,0.168945,495
12934181,10006,0.883789,0.404053,0.164795,494
12944184,10003,0.920410,0.418457,0.161987,489
12954187,10003,0.955322,0.431519,0.158081,478
12964187,10000,0.988403,0.437988,0.187378,477
12974188,10001,1.037598,0.432251,0.159668,480
12984164,9976,1.052979,0.425293,0.163696,483
12994172,10008,1.060303,0.419067,0.166016,488
13004171,9999,1.058716,0.417480,0.167114,488
13014187,10016,1.048340,0.418213,0.167847,501
13024174,9987,1.016113,0.418823,0.186890,507
13034162,9988,0.997681,0.424927,0.190796,505
13044172,10010,0.973755,0.431885,0.190308,519
13054172,10000,0.949463,0.437866,0.193115,525
13064162,9990,0.927368,0.439575,0.197144,526
13074163,10001,0.905151,0.440063,0.205933,526
13084177,10014,0.869629,0.445435,0.208130,527
13094181,10004,0.856201,0.448853,0.209839,535
13104170,9989,0.846802,0.452393,0.210083,528
13114177,10007,0.842529,0.454956,0.208862,535
13124178,10001,0.841431,0.454468,0.208862,534
13134180,10002,0.844727,0.452881,0.201172,529
13144174,9994,0.849365,0.451416,0.196899,527
13154180,10006,0.856934,0.449829,0.194214,524
13164170,9990,0.864380,0.446777,0.192383,520
13174179,10009,0.871216,0.445557,0.187866,510
13184159,9980,0.875122,0.443604,0.182983,515
13194186,10027,0.877686,0.439575,0.181763,513
13204160,9974,0.905762,0.449097,0.187378,512
13214170,10010,0.884521,0.470093,0.189087,510
13224168,9998,0.854492,0.466187,0.190796,508
13234186,10018,0.895020,0.473877,0.182617,511
13244172,9986,0.894653,0.496216,0.166504,516
13254178,10006,0.880127,0.496094,0.158691,515
13264180,10002,0.874756,0.490967,0.158691,515
13274164,9984,0.876099,0.476318,0.164062,514
13284189,10025,0.884277,0.451660,0.166504,516
13294180,9991,0.918701,0.426270,0.163818,519
13304164,9984,0.928101,0.432129,0.158203,522
13314172,10008,0.934448,0.442871,0.166992,527
13324189,10017,0.958618,0.449341,0.168945,531
13334162,9973,0.966309,0.452393,0.166626,536
13344182,10020,0.973755,0.456177,0.156128,539
13354170,9988,0.965332,0.405518,0.143555,546
13364187,10017,0.956665,0.405151,0.143555,549
13374187,10000,0.938599,0.413086,0.147827,551
13384183,9996,0.920166,0.416870,0.151611,549
13394171,9988,0.896606,0.413574,0.147827,546
13404172,10001,0.840332,0.383911,0.133057,553
13414183,10011,0.819092,0.371826,0.126587,545
13424188,10005,0.800415,0.364014,0.121460,552
13434168,9980,0.788940,0.357422,0.120239,552
13444168,10000,0.789307,0.347412,0.120239,549
13454180,10012,0.795532,0.339478,0.117798,552
13464159,9979,0.823486,0.354248,0.098511,549
13474172,10013,0.850830,0.370605,0.088257,538
13484175,10003,0.888184,0.386597,0.078491,542
13494162,9987,0.927124,0.396484,0.072144,532
13504180,10018,0.963379,0.399414,0.067505,533
13514179,9999,1.017944,0.400879,0.054932,531
13524169,9990,1.039429,0.399658,0.046753,525
13534187,10018,1.055298,0.397705,0.043335,532
13544170,9983,1.070923,0.394165,0.039795,525
13554187,10017,1.081543,0.390381,0.034546,536
13564179,9992,1.084229,0.386841,0.030762,536
13574199,10020,1.078613,0.373047,0.030151,540
13584169,9970,1.067017,0.363770,0.030640,537
13594179,10010,1.049194,0.357178,0.028809,546
13604167,9988,1.029907,0.348511,0.029663,547
13614171,10004,1.010742,0.339966,0.030884,541
13624166,9995,0.976196,0.319702,0.041260,549
13634178,10012,0.954834,0.306885,0.047241,539
13644186,10008,0.928955,0.294800,0.053467,539
13654159,9973,0.904907,0.288818,0.061768,544
13664169,10010,0.884766,0.291626,0.066772,542
13674163,9994,0.867432,0.298950,0.064209,539
13684184,10021,0.842041,0.309814,0.065430,536
13694171,9987,0.835449,0.311523,0.065552,529
13704174,10003,0.832275,0.312256,0.068237,526
13714187,10013,0.834961,0.310303,0.069946,520
13724162,9975,0.838501,0.309204,0.072266,510
13734189,10027,0.850586,0.309937,0.073608,508
13744174,9985,0.860352,0.311890,0.077148,504
13754182,10008,0.871338,0.311646,0.079102,488
13764181,9999,0.879639,0.313599,0.080688,488
13774173,9992,0.882812,0.315308,0.086426,478
13784168,9995,0.884766,0.321777,0.092407,474
13794168,10000,0.890259,0.326660,0.090576,470
13804168,10000,0.894409,0.334961,0.083252,475
13814167,9999,0.883789,0.335205,0.083618,479
13824169,10002,0.894531,0.329712,0.083984,469
13834162,9993,0.908813,0.331299,0.091431,471
13844161,9999,0.910278,0.310425,0.100342,474
13854166,10005,0.918335,0.305176,0.110229,485
13864177,10011,0.907715,0.307495,0.115479,488
13874159,9982,0.891357,0.314941,0.118652,491
13884187,10028,0.893188,0.333374,0.120361,493
13894162,9975,0.925171,0.376099,0.110962,504
13904161,9999,0.951904,0.391846,0.105469,508
13914170,10009,0.976929,0.404541,0.105957,515
13924164,9994,0.987671,0.411621,0.114502,520
13934211,10047,0.979980,0.409546,0.124023,525
13944169,9958,0.958496,0.396851,0.134033,530
13954185,10016,0.888306,0.357178,0.147949,532
13964170,9985,0.855347,0.347534,0.154663,542
13974204,10034,0.828125,0.349609,0.162231,545
13984181,9977,0.809326,0.359497,0.165283,550
13994177,9996,0.796265,0.371460,0.160889,568
14004172,9995,0.788574,0.384888,0.150879,551
14014171,9999,0.794189,0.387573,0.146240,547
14024174,10003,0.804077,0.388184,0.144897,544
14034172,9998,0.817871,0.386108,0.146973,541
14044165,9993,0.833130,0.383789,0.148560,537
14054164,9999,0.847412,0.384766,0.147217,530
14064161,9997,0.884155,0.394775,0.152466,522
14074163,10002,0.910278,0.404541,0.153198,524
14084164,10001,0.936768,0.416504,0.148804,521
14094172,10008,0.963135,0.429565,0.144775,513
14104159,9987,0.989990,0.442017,0.143188,513
14114177,10018,1.040894,0.453247,0.149048,511
14124186,10009,1.057129,0.452515,0.153564,511
14134184,9998,1.062866,0.449829,0.158691,516
14144173,9989,1.055298,0.447632,0.163208,520
14154206,10033,1.036377,0.449097,0.166870,520
14164181,9975,1.005737,0.449829,0.169067,523
14174168,9987,0.934448,0.452637,0.164551,523
14184174,10006,0.899780,0.451416,0.162354,523
14194171,9997,0.871338,0.447144,0.160645,524
14204174,10003,0.848022,0.446411,0.157837,527
14214186,10012,0.835327,0.447144,0.156982,526
14224161,9975,0.837769,0.448608,0.153198,533
14234188,10027,0.847900,0.449097,0.151123,532
14244182,9994,0.859863,0.450562,0.149292,536
14254188,10006,0.873779,0.455566,0.145264,536
14264164,9976,0.885376,0.462891,0.142212,529
14274173,10009,0.896973,0.466919,0.139526,526
14284189,10016,0.907837,0.469971,0.132324,527
14294175,9986,0.906738,0.469238,0.138062,533
14304188,10013,0.898560,0.480225,0.140259,535
14314159,9971,0.913574,0.481812,0.144531,527
14324163,10004,0.895996,0.507202,0.149658,532
14334167,10004,0.901855,0.523804,0.148926,530
14344166,9999,0.895264,0.519653,0.144897,528
14354181,10015,0.873291,0.500366,0.139038,530
14364160,9979,0.860352,0.479370,0.143799,527
14374193,10033,0.863281,0.471191,0.154053,528
14384181,9988,0.858643,0.466797,0.164795,527
14394171,9990,0.863403,0.433594,0.160156,521
14404205,10034,0.864258,0.426514,0.155029,530
14414161,9956,0.864136,0.431763,0.152466,528
14424181,10020,0.871216,0.447510,0.153442,528
14434178,9997,0.880615,0.463501,0.156372,527
14444178,10000,0.891357,0.467285,0.152222,534
14454182,10004,0.899780,0.459717,0.152222,534
14464175,9993,0.921021,0.455566,0.148926,536
14474174,9999,0.953247,0.456787,0.146240,538
14484188,10014,0.988770,0.457031,0.145264,531
14494167,9979,1.048950,0.445679,0.151489,541
14504166,9999,1.030029,0.432007,0.161377,533
14514180,10014,1.009399,0.420166,0.167236,541
14524171,9991,0.989258,0.415527,0.161011,544
14534172,10001,0.954224,0.410767,0.152588,550
14544163,9991,0.904785,0.397827,0.145142,551
14554184,10021,0.813599,0.358765,0.129883,546
14564180,9996,0.791382,0.341431,0.117188,551
14574180,10000,0.793335,0.326904,0.112427,558
14584181,10001,0.817749,0.323608,0.106323,559
14594182,10001,0.859619,0.321899,0.107788,558
14604161,9979,0.956909,0.324951,0.107056,553
14614186,10025,1.004883,0.329712,0.103149,553
14624165,9979,1.046997,0.334717,0.098999,551
14634177,10012,1.078979,0.338745,0.095093,550
14644160,9983,1.100952,0.340942,0.089355,545
14654163,10003,1.114624,0.338623,0.083252,547
14664185,10022,1.115845,0.322144,0.067505,548
14674173,9988,1.101685,0.301514,0.069702,552
14684182,10009,1.083618,0.277832,0.087158,555
14694160,9978,1.077026,0.257690,0.096802,550
14704164,10004,1.059570,0.235840,0.094849,557
14714182,10018,0.999878,0.210205,0.078979,564
14724176,9994,0.965698,0.206787,0.073975,560
14734178,10002,0.932739,0.199951,0.068848,557
14744184,10006,0.905640,0.189453,0.063477,555
14754169,9985,0.884644,0.172607,0.060425,551
14764184,10015,0.872314,0.154663,0.059448,546
14774189,10005,0.864014,0.136597,0.051880,541
14784172,9983,0.869019,0.137085,0.055420,536
14794188,10016,0.880859,0.137451,0.062256,528
14804168,9980,0.888306,0.143188,0.061890,512
14814204,10036,0.880127,0.156860,0.057617,504
14824183,9979,0.857178,0.209229,0.049072,513
14834160,9977,0.858032,0.224976,0.052368,491
14844169,10009,0.864624,0.238892,0.055298,489
14854188,10019,0.877319,0.250000,0.057129,481
14864163,9975,0.887817,0.260498,0.059692,471
14874179,10016,0.896606,0.271851,0.059692,471
14884170,9991,0.913940,0.282837,0.082764,466
14894162,9992,0.913574,0.284790,0.101196,459
14904175,10013,0.903076,0.288696,0.102661,457
14914169,9994,0.911499,0.298218,0.092896,458
14924163,9994,0.911133,0.324341,0.094238,459
14934168,10005,0.921143,0.359741,0.098511,454
14944180,10012,0.940918,0.368896,0.106567,465
14954186,10006,0.940063,0.373291,0.112061,469
14964188,10002,0.936035,0.375366,0.114746,458
14974159,9971,0.938599,0.380615,0.124146,481
14984193,10034,0.932983,0.390015,0.137451,491
14994178,9985,0.893677,0.398071,0.143799,496
15004166,9988,0.875488,0.398682,0.147217,503
15014188,10022,0.857910,0.395996,0.148437,509
15024182,9994,0.851318,0.388184,0.152954,511
15034179,9997,0.856445,0.375977,0.162354,514
15044168,9989,0.881714,0.357056,0.165283,516
15054164,9996,0.907104,0.362671,0.158447,515
15064170,10006,0.942139,0.380249,0.157104,518
15074185,10015,0.980591,0.401978,0.158081,521
15084165,9980,1.011841,0.421021,0.163452,520
15094184,10019,1.037720,0.468506,0.161133,519
15104163,9979,1.048096,0.453003,0.162720,529
15114159,9996,1.040771,0.450928,0.166138,530
15124176,10017,1.029785,0.446167,0.163452,542
15134183,10007,1.011108,0.439453,0.159790,539
15144167,9984,0.990234,0.432007,0.160645,549
15154169,10002,0.927002,0.410400,0.165283,558
15164184,10015,0.894165,0.401611,0.164307,561
15174174,9990,0.866333,0.395386,0.162964,561
15184187,10013,0.848389,0.391602,0.159058,568
15194170,9983,0.839233,0.393677,0.158936,567
15204182,10012,0.837524,0.400513,0.166748,566
15214168,9986,0.853271,0.406738,0.171509,554
15224166,9998,0.865234,0.414185,0.176880,555
15234188,10022,0.875122,0.419434,0.181030,548
15244170,9982,0.880249,0.427368,0.177246,539
15254200,10030,0.886963,0.434570,0.169922,532
15264172,9972,0.898560,0.452271,0.159302,521
15274180,10008,0.902222,0.457642,0.156250,521
15284178,9998,0.901489,0.462769,0.155151,512
15294186,10008,0.900635,0.470215,0.152832,510
15304181,9995,0.901978,0.476074,0.147217,503
15314183,10002,0.900024,0.490601,0.140259,505
15324180,9997,0.896973,0.480957,0.139038,504
15334176,9996,0.891602,0.469971,0.137573,505
15344160,9984,0.887329,0.457886,0.135742,501
15354181,10021,0.878174,0.449463,0.132935,502
15364188,10007,0.871094,0.443970,0.129639,509
15374175,9987,0.852051,0.440430,0.131592,513
15384185,10010,0.844727,0.444946,0.127808,515
15394175,9990,0.835937,0.454712,0.121338,520
15404185,10010,0.831055,0.461914,0.117798,518
15414208,10023,0.829590,0.464600,0.113037,520
15424181,9973,0.841675,0.457764,0.110107,521
15434164,9983,0.849976,0.449463,0.117065,519
15444181,10017,0.857056,0.439819,0.122681,515
15454187,10006,0.861572,0.433838,0.127930,515
15464175,9988,0.861938,0.437012,0.140503,513
15474190,10015,0.863525,0.457153,0.144897,505
15484173,9983,0.857300,0.519653,0.120361,503
15494185,10012,0.855835,0.537720,0.113281,505
15504166,9981,0.855835,0.543457,0.113647,513
15514175,10009,0.863892,0.537231,0.115356,505
15524169,9994,0.871216,0.521484,0.121460,512
15534165,9996,0.880005,0.484009,0.124756,510
15544178,10013,0.883911,0.471069,0.125366,516
15554173,9995,0.890869,0.463379,0.122437,521
15564172,9999,0.896118,0.457031,0.122314,526
15574187,10015,0.900024,0.456177,0.124512,517
15584171,9984,0.902222,0.462036,0.126709,529
15594177,10006,0.894043,0.483521,0.135132,531
15604184,10007,0.888306,0.499512,0.132446,534
15614188,10004,0.892578,0.511841,0.123291,527
15624173,9985,0.912231,0.515869,0.122070,540
15634183,10010,0.947632,0.514282,0.123901,534
15644169,9986,1.020874,0.495117,0.130981,543
15654163,9994,1.041870,0.478271,0.137573,544
15664169,10006,1.042358,0.462524,0.144043,545
15674160,9991,1.023193,0.447632,0.149292,546
15684172,10012,0.993530,0.431152,0.149658,550
15694178,10006,0.951172,0.418579,0.145386,556
15704166,9988,0.868286,0.403687,0.142822,553
15714168,10002,0.831177,0.401489,0.140991,560
15724168,10000,0.801270,0.401855,0.136597,557
15734173,10005,0.778931,0.399658,0.131226,567
15744163,9990,0.767822,0.395874,0.126343,568
15754186,10023,0.793701,0.390991,0.107788,565
15764178,9992,0.821533,0.385132,0.096802,559
15774177,9999,0.856567,0.378174,0.091431,554
15784160,9983,0.898560,0.372437,0.085937,546
15794161,10001,0.945801,0.371582,0.076660,527
15804165,10004,0.993408,0.377075,0.061890,526
15814183,10018,1.075562,0.386963,0.037476,516
15824169,9986,1.104736,0.386719,0.029175,509
15834188,10019,1.118896,0.382568,0.020630,508
15844185,9997,1.117554,0.373047,0.014404,504
15854162,9977,1.104370,0.362549,0.014038,500
15864167,10005,1.051147,0.343384,0.021851,510
15874162,9995,1.011963,0.334961,0.023682,517
15884173,10011,0.976440,0.328979,0.024170,518
15894159,9986,0.936890,0.322266,0.020874,533
15904170,10011,0.895874,0.314941,0.019775,534
15914185,10015,0.855103,0.303711,0.029907,538
15924173,9988,0.794067,0.285278,0.035278,545
15934163,9990,0.774902,0.278564,0.040649,539
15944187,10024,0.764771,0.274048,0.044800,540
15954167,9980,0.761230,0.270386,0.049561,532
15964176,10009,0.760986,0.268311,0.056396,523
15974169,9993,0.765869,0.264771,0.064209,517
15984180,10011,0.770264,0.270264,0.059814,496
15994183,10003,0.778198,0.282349,0.058716,490
16004174,9991,0.791748,0.298584,0.061035,481
16014181,10007,0.811035,0.313965,0.066040,467
16024176,9995,0.862793,0.332886,0.085815,459
16034160,9984,0.864014,0.340698,0.093018,458
16044175,10015,0.872559,0.348267,0.096436,450
16054178,10003,0.875854,0.352295,0.101807,449
16064209,10031,0.879272,0.352905,0.110474,448
16074165,9956,0.883057,0.356201,0.111450,452
16084173,10008,0.880981,0.369873,0.108765,447
16094171,9998,0.872803,0.374512,0.118530,456
16104174,10003,0.869263,0.375244,0.130615,466
16114189,10015,0.871216,0.372192,0.135986,476
16124188,9999,0.887329,0.369751,0.133911,475
16134179,9991,0.951172,0.382080,0.125000,484
16144184,10005,0.983398,0.387207,0.127197,490
16154169,9985,1.000977,0.391235,0.133911,505
16164162,9993,1.006348,0.395630,0.142212,511
16174170,10008,1.000488,0.396851,0.148315,517
16184187,10017,0.977783,0.406372,0.149048,521
16194168,9981,0.910522,0.422607,0.150757,523
16204173,10005,0.873047,0.422241,0.163818,527
16214175,10002,0.832764,0.420044,0.175781,522
16224170,9995,0.801880,0.417847,0.180908,531
16234181,10011,0.778809,0.417236,0.182373,520
16244171,9990,0.771484,0.423340,0.181030,530
16254161,9990,0.789551,0.428467,0.177124,529
16264175,10014,0.823242,0.437012,0.173340,527
16274188,10013,0.866089,0.445801,0.171509,517
16284169,9981,0.914307,0.455200,0.171997,520
16294172,10003,0.963257,0.467163,0.170044,515
16304199,10027,1.033447,0.489380,0.165405,522
16314164,9965,1.051025,0.493652,0.159302,519
16324178,10014,1.052124,0.496460,0.154297,528
16334161,9983,1.042480,0.499878,0.149170,527
16344177,10016,1.027222,0.501099,0.150879,531
16354166,9989,0.999390,0.513306,0.158569,542
16364174,10008,0.991821,0.523071,0.155518,548
16374185,10011,0.979492,0.531738,0.152344,552
16384161,9976,0.966431,0.534912,0.151733,554
16394174,10013,0.949829,0.530884,0.151978,556
16404182,10008,0.928955,0.521362,0.185913,554
16414170,9988,0.887817,0.497681,0.158325,548
16424176,10006,0.869751,0.484863,0.156616,554
16434170,9994,0.850586,0.473755,0.151978,549
16444159,9989,0.836548,0.465210,0.146973,550
16454186,10027,0.827393,0.459351,0.140503,546
16464159,9973,0.824341,0.446777,0.132202,535
16474195,10036,0.826294,0.442383,0.128174,541
16484161,9966,0.831055,0.443970,0.124146,535
16494185,10024,0.837158,0.451172,0.118408,532
16504166,9981,0.842651,0.458496,0.110107,519
16514165,9999,0.851074,0.460449,0.095947,513
16524188,10023,0.870850,0.447388,0.088989,508
16534161,9973,0.875366,0.437866,0.081055,503
16544167,10006,0.876465,0.429687,0.073608,508
16554173,10006,0.875366,0.423828,0.067017,498
16564185,10012,0.872681,0.418457,0.062378,499
16574165,9980,0.873047,0.413940,0.057251,488
16584172,10007,0.873413,0.420044,0.052490,495
16594162,9990,0.872070,0.427368,0.052612,494
16604176,10014,0.871216,0.437988,0.058105,497
16614172,9996,0.869629,0.443359,0.066040,498
16624183,10011,0.871704,0.434326,0.071655,500
16634184,10001,0.872314,0.426758,0.074097,500
16644173,9989,0.880615,0.426636,0.074463,501
16654188,10015,0.911255,0.433105,0.069946,502
16664187,9999,0.960205,0.443237,0.072754,503
16674165,9978,1.010254,0.450439,0.087646,505
16684164,9999,1.067993,0.461548,0.112427,508
16694193,10029,1.061768,0.463989,0.114502,505
16704189,9996,1.026489,0.456665,0.114136,513
16714188,9999,0.970703,0.437866,0.116821,522
16724189,10001,0.900024,0.418579,0.121094,527
16734187,9998,0.764893,0.382446,0.122437,536
16744166,9979,0.724731,0.368164,0.119263,539
16754163,9997,0.714600,0.357666,0.112061,540
16764186,10023,0.739380,0.353760,0.105469,541
16774178,9992,0.792480,0.356323,0.102661,536
16784180,10002,0.857300,0.366089,0.100708,524
16794187,10007,0.976685,0.389526,0.096313,526
16804177,9990,1.026367,0.398682,0.089844,512
16814175,9998,1.068726,0.405884,0.082886,514
16824164,9989,1.095459,0.409058,0.071899,507
16834174,10010,1.109741,0.411743,0.063232,504
16844187,10013,1.114258,0.408325,0.063354,502
16854167,9980,1.109985,0.399780,0.071167,513
16864178,10011,1.100586,0.387207,0.077393,512
16874187,10009,1.085571,0.375488,0.075562,530
16884159,9972,1.063599,0.365845,0.071167,541
16894160,10001,1.035889,0.357178,0.070435,550
16904170,10010,0.979004,0.337891,0.085449,559
16914161,9991,0.945801,0.321899,0.096069,563
16924198,10037,0.914673,0.304077,0.108276,569
16934183,9985,0.883667,0.291016,0.114746,568
16944162,9979,0.856689,0.281860,0.118286,561
16954172,10010,0.807251,0.273926,0.129761,566
16964179,10007,0.791260,0.273315,0.133179,557
16974179,10000,0.776733,0.278687,0.131104,543
16984178,9999,0.767578,0.291382,0.125977,532
16994161,9983,0.761353,0.307129,0.121094,527
17004166,10005,0.758301,0.321167,0.117920,513
17014185,10019,0.774170,0.340820,0.119141,499
17024170,9985,0.789673,0.345215,0.120239,499
17034178,10008,0.803955,0.342773,0.120605,481
17044179,10001,0.817017,0.337891,0.119385,485
17054161,9982,0.829102,0.328247,0.115601,479
17064175,10014,0.841431,0.305176,0.112671,471
17074160,9985,0.847534,0.302979,0.104858,475
17084185,10025,0.852661,0.306763,0.099487,472
17094168,9983,0.859863,0.313232,0.097412,464
17104175,10007,0.867432,0.320190,0.098022,462
17114166,9991,0.875366,0.326538,0.098022,474
17124182,10016,0.896606,0.338379,0.093262,472
17134178,9996,0.920532,0.347900,0.087158,483
17144165,9987,0.962769,0.361084,0.089111,492
17154164,9999,1.010498,0.375366,0.094238,496
17164160,9996,1.059937,0.386353,0.094360,496
17174180,10020,1.098633,0.409546,0.071289,507
17186639,12459,1.091553,0.415161,0.067383,507
17194182,7543,1.061768,0.413086,0.073730,517
17204179,9997,1.014404,0.397949,0.085937,524
17214161,9982,0.957642,0.383789,0.092896,527
17224169,10008,0.891968,0.367310,0.101563,531
17234181,10012,0.746948,0.343384,0.110107,532
17244177,9996,0.690063,0.342896,0.107300,534
17254169,9992,0.658691,0.342896,0.100464,526
17264164,9995,0.655273,0.339478,0.097290,524
17274185,10021,0.673828,0.338745,0.094971,511
17284178,9993,0.757324,0.348145,0.119995,508
17294166,9988,0.812378,0.366699,0.131104,496
17304171,10005,0.863892,0.391357,0.135864,480
17314180,10009,0.918335,0.410400,0.134277,460
17324169,9989,0.978271,0.427612,0.125244,451
17334187,10018,1.030640,0.442261,0.112671,447
17344178,9991,1.112061,0.467163,0.105225,444
17354187,10009,1.132568,0.474976,0.108032,438
17364167,9980,1.138916,0.479980,0.111938,446
17374159,9992,1.136597,0.481445,0.114746,450
17384160,10001,1.127075,0.480713,0.116577,467
17394186,10026,1.076782,0.476929,0.109863,476
17404187,10001,1.044189,0.474365,0.107056,486
17414207,10020,1.008423,0.472168,0.107178,496
17424185,9978,0.975098,0.470947,0.110962,509
17434177,9992,0.940552,0.469360,0.114746,517
17444183,10006,0.906982,0.465332,0.117188,520
17454185,10002,0.851685,0.450684,0.119385,534
17464167,9982,0.833740,0.447021,0.123047,540
17474165,9998,0.822754,0.448120,0.123291,539
17484166,10001,0.812988,0.452148,0.121094,542
17494168,10002,0.809937,0.462769,0.119751,548
17504161,9993,0.824951,0.495850,0.118530,555
17514181,10020,0.838379,0.509644,0.118530,554
17524186,10005,0.852295,0.518799,0.121460,554
17534163,9977,0.866821,0.522095,0.125366,553
17544182,10019,0.877319,0.524170,0.125000,546
17554174,9992,0.884888,0.524292,0.126465,551
17564159,9985,0.887085,0.531860,0.126953,543
17574754,10595,0.882446,0.538696,0.125122,534
17584181,9427,0.876221,0.541504,0.123779,532
17594186,10005,0.868530,0.538330,0.122314,533
17604166,9980,0.864746,0.528809,0.122437,532
17614169,10003,0.865967,0.502808,0.123657,530
17624209,10040,0.872070,0.490356,0.125854,521
17634179,9970,0.878174,0.479858,0.127930,527
17644172,9993,0.882080,0.475342,0.129028,519
17654168,9996,0.884644,0.477539,0.126221,526
17664183,10015,0.890259,0.484009,0.120605,527
17674173,9990,0.899048,0.482056,0.118164,530
17684172,9999,0.906372,0.468994,0.114014,529
17694185,10013,0.915527,0.453369,0.107056,529
17704162,9977,0.928223,0.441406,0.108521,526
17714172,10010,0.945435,0.438110,0.111694,529
17724185,10013,0.981567,0.443970,0.109131,528
17734160,9975,0.992920,0.443970,0.104980,531
17744160,10000,0.996460,0.445312,0.100464,527
17754176,10016,0.987793,0.442383,0.096802,525
17764178,10002,0.965332,0.433472,0.096069,533
17774164,9986,0.907349,0.407959,0.097534,533
17784159,9995,0.889648,0.395508,0.093018,524
17794163,10004,0.871704,0.384277,0.087280,531
17804189,10026,0.864014,0.375977,0.082520,530
17814180,9991,0.860840,0.371460,0.076294,525
17824168,9988,0.861328,0.367554,0.074097,530
17834175,10007,0.876953,0.360596,0.067505,529
17844178,10003,0.895386,0.360596,0.059326,522
17854187,10009,0.922607,0.363647,0.050903,524
17864177,9990,0.958984,0.365112,0.045532,522
17874184,10007,0.997681,0.367676,0.047119,517
17884180,9996,1.062622,0.371948,0.051270,505
17894159,9979,1.084961,0.375366,0.045898,509
17904162,10003,1.095825,0.382080,0.038452,514
17914180,10018,1.097778,0.386475,0.031616,508
17924185,10005,1.091675,0.386963,0.028809,520
17934163,9978,1.081177,0.380737,0.028076,522
17944172,10009,1.058105,0.349854,0.038208,521
17954169,9997,1.041504,0.331787,0.046753,525
17964160,9991,1.023438,0.318604,0.053711,529
17974167,10007,1.000610,0.310181,0.059204,532
17984171,10004,0.974121,0.302002,0.064331,536
17994182,10011,0.907837,0.297852,0.077271,535
18004186,10004,0.874023,0.293457,0.083740,534
18014164,9978,0.843872,0.288208,0.092651,534
18024183,10019,0.818848,0.288208,0.096191,531
18034177,9994,0.796265,0.291626,0.095337,528
18044201,10024,0.775269,0.295776,0.094727,517
18054171,9970,0.748657,0.307373,0.094849,523
18064178,10007,0.744507,0.312866,0.096313,521
18074181,10003,0.750610,0.317139,0.097168,515
18084176,9995,0.769409,0.321167,0.096558,512
18094175,9999,0.793335,0.326782,0.095947,510
18104178,10003,0.834351,0.332153,0.103760,503
18114162,9984,0.846069,0.333862,0.106445,500
18124165,10003,0.850586,0.336182,0.106812,498
18134185,10020,0.850952,0.338257,0.109253,496
18144173,9988,0.847046,0.338501,0.114746,485
18154164,9991,0.838745,0.331543,0.125000,488
18164164,10000,0.822144,0.319336,0.135254,488
18174161,9997,0.818481,0.322632,0.132568,482
18184162,10001,0.819458,0.331299,0.129272,481
18195703,11541,0.825806,0.341675,0.129761,484
18204167,8464,0.837769,0.347656,0.128662,487
18214181,10014,0.870361,0.353027,0.130249,479
18224172,9991,0.887817,0.357910,0.131714,486
18234160,9988,0.910767,0.370972,0.139648,491
18244166,10006,0.931396,0.394653,0.148437,492
18254179,10013,0.963867,0.415894,0.145020,495
18264210,10031,1.005249,0.442383,0.094849,496
18274164,9954,1.115723,0.482544,0.100342,500
18284174,10010,1.146118,0.484131,0.101685,504
18294165,9991,1.148071,0.474487,0.105225,503
18304178,10013,1.113281,0.457764,0.108032,514
18314203,10025,1.052612,0.442871,0.109497,512
18324182,9979,0.889648,0.420410,0.115601,518
18334182,10000,0.802490,0.412109,0.116943,524
18344175,9993,0.722168,0.407349,0.112061,527
18354165,9990,0.660400,0.405518,0.109741,529
18364172,10007,0.631836,0.404053,0.107422,531
18374165,9993,0.635254,0.404175,0.100342,529
18384183,10018,0.713013,0.404297,0.101563,519
18394168,9985,0.777466,0.406982,0.111816,510
18404162,9994,0.850464,0.416138,0.122314,498
18414165,10003,0.917603,0.432861,0.127930,485
18424184,10019,0.982544,0.454834,0.126709,475
18434168,9984,1.064697,0.508179,0.107422,467
18444185,10017,1.079590,0.529785,0.101074,464
18454184,9999,1.083252,0.541138,0.101074,463
18464185,10001,1.083130,0.542480,0.100098,466
18474171,9986,1.082642,0.536499,0.100952,471
18484201,10030,1.080444,0.520386,0.100586,478
18494183,9982,1.075684,0.512329,0.104614,486
18504178,9995,1.064453,0.499878,0.111206,486
18514186,10008,1.047852,0.483154,0.119751,501
18524176,9990,1.023682,0.467285,0.127563,507
18534189,10013,0.991455,0.458374,0.129150,510
18544178,9989,0.904297,0.462646,0.126587,515
18554184,10006,0.869141,0.465820,0.121338,516
18564187,10003,0.840820,0.461670,0.119385,519
18574183,9996,0.822144,0.450073,0.116455,523
18584180,9997,0.808105,0.438354,0.115479,528
18594185,10005,0.801758,0.428345,0.123901,524
18604169,9984,0.792725,0.431152,0.123169,528
18614169,10000,0.787231,0.434204,0.119507,527
18624178,10009,0.786743,0.437744,0.114502,523
18634173,9995,0.789062,0.439819,0.106812,520
18644177,10004,0.793579,0.441040,0.101318,521
18654185,10008,0.821655,0.446167,0.100098,518
18664162,9977,0.838501,0.450806,0.100952,516
18674171,10009,0.854248,0.459473,0.099609,517
18684171,10000,0.865479,0.467407,0.097778,518
18694193,10022,0.878174,0.475098,0.097046,499
18704176,9983,0.898071,0.477539,0.097534,519
18714187,10011,0.904297,0.474121,0.096436,522
18724172,9985,0.907104,0.470459,0.095825,531
18734162,9990,0.907227,0.462891,0.097046,535
18744174,10012,0.905151,0.452759,0.097412,540
18754167,9993,0.914062,0.444946,0.095947,545
18764177,10010,0.973267,0.432373,0.093994,545
18774165,9988,0.997559,0.428223,0.104126,550
18784160,9995,1.007202,0.428955,0.110107,549
18794160,10000,1.005249,0.425903,0.114746,542
18804180,10020,0.979614,0.423706,0.114990,550
18814159,9979,0.861450,0.421509,0.104004,539
18824182,10023,0.797607,0.411865,0.099609,543
18834186,10004,0.745239,0.398071,0.092041,542
18844183,9997,0.714844,0.383423,0.084473,542
18854167,9984,0.713623,0.370239,0.076538,539
18864164,9997,0.742554,0.358398,0.070312,533
18874182,10018,0.841797,0.361572,0.065918,527
18884185,10003,0.896606,0.369019,0.058472,517
18894179,9994,0.944702,0.385010,0.047363,509
18904176,9997,1.000732,0.400024,0.033081,503
18914179,10003,1.041138,0.413330,0.026489,484
18924180,10001,1.113892,0.423828,0.015259,488
18934165,9985,1.152588,0.429932,0.008911,487
18944174,10009,1.185791,0.433228,0.009644,477
18954182,10008,1.209839,0.431885,0.018433,491
18964176,9994,1.228638,0.425659,0.029419,501
18974168,9992,1.228271,0.415894,0.033081,502
18984175,10007,1.187500,0.391724,0.036011,511
18994178,10003,1.157471,0.380615,0.039307,527
19004174,9996,1.122070,0.365845,0.045776,528
19014174,10000,1.082031,0.342529,0.055664,535
19024168,9994,1.042114,0.316406,0.070801,537
19034171,10003,0.971558,0.278198,0.095459,529
19044165,9994,0.933838,0.271118,0.101074,534
19054160,9995,0.899414,0.270874,0.107544,531
19064172,10012,0.869507,0.278076,0.112061,516
19074170,9998,0.843994,0.286987,0.112793,518
19084159,9989,0.820679,0.287720,0.116943,507
19094185,10026,0.784790,0.287964,0.119995,505
19104173,9988,0.774658,0.296021,0.119141,491
19114175,10002,0.768188,0.305664,0.120483,491
19124159,9984,0.764282,0.315552,0.124634,487
19134165,10006,0.765137,0.323853,0.133911,476
19144174,10009,0.791138,0.341431,0.134644,476
19154172,9998,0.799438,0.348511,0.131104,465
19164180,10008,0.801147,0.353027,0.129028,469
19174185,10005,0.802368,0.357544,0.128052,468
19184175,9990,0.803833,0.360107,0.126831,467
19194160,9985,0.841553,0.348877,0.121826,460
19204169,10009,0.841675,0.330078,0.116943,461
19214173,10004,0.859863,0.310791,0.115967,472
19224186,10013,0.873657,0.302856,0.110474,474
19234175,9989,0.885620,0.297607,0.106445,471
19244162,9987,0.892334,0.292480,0.101929,477
19254175,10013,0.886841,0.279297,0.098267,483
19264182,10007,0.904297,0.284058,0.086548,484
19274166,9984,0.953857,0.301025,0.070557,482
19284188,10022,1.019653,0.322876,0.053711,496
19294176,9988,1.086182,0.340942,0.044800,492
19304161,9985,1.141235,0.371338,0.036499,508
19314184,10023,1.109131,0.377197,0.039307,509
19324175,9991,1.027954,0.372314,0.047485,518
19334180,10005,0.939697,0.367188,0.055298,531
19344163,9983,0.864014,0.358276,0.059692,539
19354167,10004,0.797241,0.341919,0.058716,548
19364192,10025,0.696655,0.324585,0.050293,556
19374168,9976,0.685181,0.331055,0.060303,557
19384188,10020,0.712646,0.343872,0.076294,559
19394160,9972,0.776001,0.356201,0.097656,552
19404187,10027,0.857666,0.364746,0.120239,541
19414175,9988,1.001099,0.380493,0.146118,524
19424163,9988,1.058960,0.408203,0.160278,514
19434163,10000,1.111206,0.449219,0.167969,498
19444160,9997,1.133911,0.485718,0.161255,489
19454181,10021,1.114868,0.508789,0.147217,486
19464162,9981,1.070557,0.531616,0.124634,483
19474186,10024,1.015991,0.578003,0.089844,485
19484173,9987,1.007080,0.586304,0.072754,482
19494179,10006,0.981567,0.582031,0.063354,492
19504173,9994,0.934692,0.565552,0.068604,500
19514184,10011,0.882202,0.539795,0.080688,512
19524187,10003,0.821289,0.466797,0.121094,517
19534173,9986,0.853516,0.427979,0.132812,522
19544183,10010,0.923340,0.408569,0.128906,534
19554164,9981,0.988403,0.401978,0.116211,533
19564172,10008,1.021851,0.398315,0.111938,527
19574165,9993,1.030151,0.397461,0.115112,525
19584185,10020,1.013184,0.405151,0.124512,516
19594172,9987,1.005371,0.419678,0.121216,515
19604175,10003,0.998047,0.443848,0.127197,510
19614186,10011,0.975342,0.475708,0.136475,501
19624172,9986,0.940796,0.505615,0.140991,509
19634178,10006,0.851074,0.535034,0.121704,509
19644185,10007,0.803345,0.527832,0.106689,498
19654181,9996,0.764893,0.515991,0.097534,514
19664188,10007,0.746094,0.504883,0.095825,514
19674187,9999,0.743896,0.501099,0.092407,512
19684166,9979,0.746094,0.506836,0.077515,515
19694181,10015,0.721802,0.516846,0.073486,508
19704174,9993,0.699463,0.505493,0.080688,510
19714185,10011,0.686035,0.491333,0.084473,509
19724208,10023,0.687866,0.476440,0.082275,511
19734184,9976,0.710937,0.468384,0.081421,517
19744171,9987,0.835449,0.464478,0.093384,513
19754175,10004,0.911865,0.468018,0.101929,502
19764171,9996,0.971313,0.475952,0.111084,505
19774168,9997,0.998047,0.476196,0.117188,494
19784185,10017,0.979492,0.458374,0.122437,488
19794185,10000,0.907471,0.396729,0.122681,483
19804176,9991,0.735352,0.379761,0.109497,481
19814186,10010,0.689087,0.377808,0.085449,472
19824159,9973,0.676270,0.389648,0.057007,480
19834166,10007,0.696533,0.400391,0.032959,480
19844173,10007,0.744263,0.412109,0.016479,481
19854169,9996,0.907959,0.434082,-0.001831,487
19864172,10003,1.008789,0.446655,-0.017822,489
19874186,10014,1.123047,0.454834,-0.030151,487
19884177,9991,1.238403,0.459229,-0.034302,491
19894181,10004,1.350342,0.455322,-0.032837,491
19904172,9991,1.449951,0.410889,0.004639,497
19914188,10016,1.409790,0.409912,0.018921,505
19924185,9997,1.361450,0.386841,0.033813,521
19934181,9996,1.291504,0.367188,0.048584,530
19944177,9996,1.229126,0.357178,0.042114,546
19954187,10010,1.166870,0.355469,0.039307,556
19964180,9993,1.047241,0.362427,0.042725,556
19974180,10000,0.990967,0.363281,0.046631,564
19984179,9999,0.937622,0.356445,0.050171,564
19994183,10004,0.894165,0.341064,0.053589,561
20004172,9989,0.860840,0.316650,0.058716,556
20014185,10013,0.825806,0.266968,0.069336,553
20024172,9987,0.822754,0.247437,0.072266,545
20034171,9999,0.821411,0.236328,0.073120,536
20044168,9997,0.813965,0.233887,0.084595,532
20054159,9991,0.809937,0.238525,0.094971,513
20064176,10017,0.817505,0.237427,0.096069,509
20074175,9999,0.824585,0.262329,0.089844,504
20084176,10001,0.834106,0.286011,0.092407,485
20094176,10000,0.845337,0.307617,0.098633,483
20104174,9998,0.863403,0.327271,0.108643,474
20114160,9986,0.885620,0.341919,0.119263,468
20124163,10003,0.909668,0.348145,0.140015,457
20134187,10024,0.907471,0.350220,0.144531,458
20144170,9983,0.902100,0.355103,0.138916,453
20154164,9994,0.888062,0.359375,0.132446,463
20164197,10033,0.866699,0.358643,0.124756,468
20174183,9986,0.847900,0.354126,0.123779,475
20184177,9994,0.835327,0.330322,0.132690,484
20194159,9982,0.845825,0.306152,0.143433,487
20204174,10015,0.872070,0.290161,0.151733,498
20214178,10004,0.911743,0.290283,0.147217,504
20224189,10011,0.949951,0.297241,0.140625,501
20234162,9973,1.013184,0.322632,0.124023,509
20244177,10015,1.028687,0.335083,0.119629,510
20254176,9999,1.023804,0.344604,0.119385,512
20264183,10007,0.997925,0.350952,0.123901,513
20274168,9985,0.955444,0.354736,0.125977,518
20284186,10018,0.902710,0.354858,0.124756,523
20294173,9987,0.797119,0.339966,0.135376,525
20304170,9997,0.754517,0.329834,0.146240,526
20314186,10016,0.726074,0.322754,0.152588,528
20324163,9977,0.714966,0.322998,0.153931,524
20334160,9997,0.716919,0.324341,0.155518,520
20344166,10006,0.749634,0.337402,0.170166,510
20354185,10019,0.764526,0.354248,0.185303,505
20364183,9998,0.778198,0.373779,0.211426,483
20374162,9979,0.802002,0.397583,0.232422,481
20384180,10018,0.838013,0.422729,0.230103,467
20394196,10016,0.880493,0.446899,0.211182,451
20404172,9976,0.912964,0.569336,0.174683,446
20414182,10010,0.941406,0.627319,0.172974,441
20424165,9983,0.959717,0.578613,0.169189,439
20434174,10009,0.995117,0.493164,0.186646,446
20444175,10001,1.019775,0.446777,0.176270,454
20454175,10000,1.061646,0.468750,0.153076,469
20464172,9997,1.062744,0.453003,0.138916,477
20474187,10015,1.071289,0.438721,0.128418,489
20484177,9990,1.058228,0.444458,0.109741,501
20494183,10006,1.048218,0.452759,0.090820,507
20504164,9981,1.015381,0.442627,0.068481,505
20514177,10013,1.001953,0.518799,0.087036,514
20524189,10012,0.923950,0.449585,0.063110,509
20534184,9995,0.972778,0.442261,0.071411,517
20544166,9982,0.941895,0.498291,0.047241,524
20554174,10008,0.950317,0.466431,0.049805,525
20564164,9990,0.965698,0.429565,0.051880,524
20574159,9995,0.907959,0.396118,0.043213,524
20584170,10011,0.927368,0.406250,0.044189,521
20594170,10000,0.904907,0.464966,0.038818,524
20604179,10009,0.894775,0.501587,0.048950,514
20614210,10031,0.904297,0.525635,0.049194,517
20624165,9955,0.891357,0.498291,0.046509,512
20634166,10001,0.903809,0.512329,0.055542,520
20644176,10010,0.907837,0.520630,0.063477,521
20654183,10007,0.911987,0.513062,0.071289,522
20664167,9984,0.903809,0.511597,0.077148,514
20674205,10038,0.879517,0.500854,0.088013,521
20684174,9969,0.858765,0.507446,0.091919,518
20694177,10003,0.847046,0.521484,0.087646,526
20704176,9999,0.840576,0.529785,0.079712,528
20714185,10009,0.835327,0.521851,0.074097,527
20724159,9974,0.834717,0.485962,0.068604,526
20734177,10018,0.844727,0.444336,0.068115,525
20744184,10007,0.830933,0.454712,0.075806,528
20754176,9992,0.835937,0.478882,0.069458,521
20764178,10002,0.836426,0.487305,0.063110,526
20774171,9993,0.827759,0.464600,0.057983,522
20784159,9988,0.863525,0.411865,0.054810,524
20794170,10011,0.878662,0.412354,0.055542,526
20804160,9990,0.889404,0.418579,0.060425,532
20814172,10012,0.899780,0.423340,0.058594,531
20824174,10002,0.905518,0.420044,0.055542,531
20834166,9992,0.906372,0.410034,0.059204,525
20844159,9993,0.911377,0.402954,0.065430,529
20854168,10009,0.913086,0.387451,0.072388,524
20864174,10006,0.910889,0.375854,0.073486,526
20874186,10012,0.912842,0.374756,0.078979,521
20884189,10003,0.919067,0.377563,0.084717,513
20894166,9977,0.922729,0.376465,0.099243,519
20904201,10035,0.909790,0.371948,0.101563,517
20914181,9980,0.888794,0.382690,0.104980,515
20924161,9980,0.861572,0.387817,0.107788,514
20934812,10651,0.859375,0.370239,0.116577,508
20944187,9375,0.842896,0.349609,0.140015,511
20954163,9976,0.799805,0.335693,0.151855,510
20964184,10021,0.785400,0.297485,0.171631,508
20974162,9978,0.807617,0.327148,0.177979,502
20984166,10004,0.751465,0.333740,0.184570,500
20994179,10013,0.791626,0.347778,0.166260,491
21004163,9984,0.971313,0.396606,0.135864,486
21014166,10003,1.051880,0.423340,0.126465,479
21024160,9994,1.131226,0.445312,0.114502,476
21034165,10005,1.187012,0.458984,0.103027,472
21045448,11283,1.220703,0.476196,0.080811,480
21054159,8711,0.000000,0.000000,0.000000,475
21064171,10012,1.265869,0.472412,0.036499,494
21074165,9994,1.263550,0.455933,0.029663,504
21084181,10016,1.259644,0.435913,0.033081,511
21094162,9981,1.257813,0.415771,0.037720,532
21104181,10019,1.241089,0.396240,0.051025,532
21114193,10012,1.209473,0.367188,0.052734,542
21124160,9967,1.156494,0.358398,0.052612,549
21134163,10003,1.084473,0.348755,0.052734,560
21144159,9996,1.008789,0.337769,0.054199,555
21154163,10004,0.937866,0.322632,0.056641,554
21164187,10024,0.823120,0.288574,0.065674,561
21174162,9975,0.784912,0.271973,0.067139,546
21184161,9999,0.757202,0.258911,0.068604,550
21194185,10024,0.739258,0.251709,0.070801,539
21204163,9978,0.730225,0.250610,0.073242,529
21214162,9999,0.729248,0.251221,0.081421,528
21224162,10000,0.745728,0.254761,0.088867,508
21234190,10028,0.749268,0.258789,0.084595,505
21244188,9998,0.747070,0.264160,0.079712,491
21254175,9987,0.746338,0.270508,0.078003,470
21264162,9987,0.749878,0.277710,0.075195,466
21274202,10040,0.780884,0.285400,0.069092,468
21284184,9982,0.807739,0.288818,0.067627,455
21294179,9995,0.835571,0.292114,0.068970,457
21304181,10002,0.861938,0.294067,0.070068,451
21314169,9988,0.883789,0.296143,0.067139,451
21324160,9991,0.906006,0.300659,0.064087,451
21334162,10002,0.950562,0.307739,0.081299,451
21344176,10014,0.966064,0.313599,0.099365,456
21354895,10719,0.950684,0.313721,0.110840,441
21364164,9269,0.942749,0.315430,0.116699,469
21374159,9995,0.952515,0.331055,0.115723,477
21384165,10006,1.049927,0.393188,0.118774,482
21394175,10010,1.081787,0.415649,0.112183,495
21404184,10009,1.087646,0.433228,0.106445,500
21414185,10001,1.048950,0.442139,0.107666,509
21424175,9990,0.975586,0.438599,0.109375,510
21434180,10005,0.885864,0.414062,0.125244,524
21444173,9993,0.729004,0.339844,0.139526,520
21454169,9996,0.694580,0.313354,0.153931,527
21464183,10014,0.696289,0.296265,0.152466,529
21474174,9991,0.719849,0.291016,0.141479,524
21484207,10033,0.751343,0.298706,0.130005,508
21494169,9962,0.814331,0.342896,0.141479,496
21504159,9990,0.839844,0.365723,0.155273,492
21514159,10000,0.860962,0.388428,0.165894,478
21524168,10009,0.880615,0.405762,0.177368,468
21534167,9999,0.899658,0.415283,0.180908,457
21544187,10020,0.923828,0.418701,0.174438,454
21554168,9981,0.983765,0.420410,0.170288,441
21564188,10020,1.005371,0.422974,0.170044,451
21574174,9986,1.021118,0.436401,0.170166,451
21584165,9991,1.026123,0.456177,0.168213,454
21594162,9997,1.025269,0.479736,0.162598,466
21604165,10003,1.008789,0.506470,0.153687,474
21614182,10017,1.000610,0.520386,0.147095,482
21624167,9985,0.996338,0.527466,0.138794,491
21634162,9995,0.991821,0.526855,0.132935,491
21644169,10007,0.987183,0.514526,0.130127,505
21654176,10007,0.982666,0.496948,0.127930,507
21664175,9999,0.962524,0.493408,0.123657,515
21674182,10007,0.945068,0.490479,0.120483,524
21684164,9982,0.927612,0.490967,0.117676,519
21694170,10006,0.909424,0.492676,0.114990,547
21704199,10029,0.894775,0.491699,0.113403,527
21714187,9988,0.876343,0.480469,0.113159,530
21724163,9976,0.872559,0.470337,0.114502,536
21734163,10000,0.871338,0.460327,0.115723,534
21744174,10011,0.871094,0.455444,0.113403,545
21754175,10001,0.871582,0.450806,0.111084,547
21764198,10023,0.877808,0.449829,0.109497,547
21774184,9986,0.882935,0.455444,0.110962,551
21784179,9995,0.883789,0.459229,0.117310,541
21794175,9996,0.883667,0.463013,0.118652,550
21804160,9985,0.874268,0.465332,0.113525,550
21814173,10013,0.861206,0.467407,0.110840,541
21824187,10014,0.858643,0.461304,0.110962,546
21834171,9984,0.863525,0.451294,0.111572,538
21844173,10002,0.865234,0.441528,0.106323,544
21854181,10008,0.871826,0.434692,0.108276,542
21864174,9993,0.878174,0.430298,0.118042,532
21874182,10008,0.904785,0.445068,0.139648,538
21884161,9979,0.904785,0.461426,0.141357,533
21894182,10021,0.908325,0.468506,0.137207,533
21904166,9984,0.926392,0.470215,0.132690,532
21914179,10013,0.951172,0.468506,0.132446,531
21924187,10008,0.974976,0.459839,0.137085,524
21934170,9983,1.008789,0.439819,0.146240,526
21944188,10018,1.025513,0.435059,0.147949,522
21954184,9996,1.039185,0.438599,0.147583,526
21964183,9999,1.046631,0.444092,0.148315,516
21974184,10001,1.037964,0.448853,0.146851,524
21984182,9998,0.956787,0.427002,0.141357,526
21994172,9990,0.894531,0.405640,0.138916,527
22004178,10006,0.834473,0.380249,0.131592,524
22014181,10003,0.781738,0.352417,0.125366,527
22024163,9982,0.736816,0.333374,0.125122,533
22034163,10000,0.715088,0.314209,0.128662,537
22044161,9998,0.753784,0.353149,0.118164,528
22054167,10006,0.804077,0.360474,0.099365,533
22064181,10014,0.850220,0.395508,0.088379,532
22074163,9982,0.899292,0.426270,0.072510,519
22084185,10022,0.946045,0.443848,0.067139,520
22094166,9981,1.041382,0.455200,0.045532,515
22104184,10018,1.082153,0.444336,0.031860,508
22114165,9981,1.109741,0.424927,0.019775,505
22124161,9996,1.120728,0.405518,0.007690,514
22134201,10040,1.114502,0.388062,0.001221,510
22144184,9983,1.103882,0.365723,0.001831,513
22154176,9992,1.079956,0.313843,0.006958,528
22164175,9999,1.069946,0.298462,0.012695,529
22174163,9988,1.057861,0.287842,0.014771,536
22184168,10005,1.042236,0.286621,0.012817,541
22194191,10023,1.020386,0.289795,0.012207,541
22204165,9974,0.975586,0.314697,0.016724,543
22214159,9994,0.948242,0.319824,0.018921,542
22224175,10016,0.924683,0.314819,0.022095,538
22234186,10011,0.903687,0.305664,0.026978,536
22244166,9980,0.885498,0.297607,0.032227,537
22254171,10005,0.870483,0.290771,0.042480,534
22264172,10001,0.853760,0.287109,0.045654,529
22274159,9987,0.852417,0.289185,0.050781,529
22284169,10010,0.853760,0.291504,0.052734,526
22294181,10012,0.854126,0.296753,0.054321,520
22304159,9978,0.857300,0.303955,0.055298,509
22314180,10021,0.867798,0.316895,0.061401,516
22324185,10005,0.874023,0.319580,0.067261,512
22334183,9998,0.878052,0.318726,0.072510,512
22344188,10005,0.879639,0.315552,0.082153,511
22354160,9972,0.881592,0.310181,0.095215,502
22364160,10000,0.885498,0.305786,0.103882,511
22374187,10027,0.886230,0.307373,0.104004,512
22384180,9993,0.878662,0.309326,0.107422,502
22394170,9990,0.866211,0.311279,0.112183,514
22404181,10011,0.852905,0.308594,0.120972,508
22414185,10004,0.843140,0.305908,0.129395,515
22424179,9994,0.843750,0.299316,0.146606,517
22434178,9999,0.858032,0.294800,0.160767,519
22444184,10006,0.878052,0.296265,0.181885,522
22454185,10001,0.903442,0.300659,0.199585,523
22464165,9980,0.929932,0.316528,0.207764,522
22474166,10001,0.971924,0.365234,0.193604,522
22484168,10002,0.962280,0.383667,0.185547,524
22494173,10005,0.930054,0.392700,0.187622,516
22504177,10004,0.883301,0.389160,0.197388,515
22514177,10000,0.835083,0.376221,0.206055,526
22524178,10001,0.788208,0.365845,0.208618,528
22534166,9988,0.722778,0.333008,0.202881,518
22544172,10006,0.719116,0.327881,0.201050,516
22554159,9987,0.728394,0.326904,0.200562,514
22564190,10031,0.752441,0.336426,0.197754,512
22574166,9976,0.786743,0.353394,0.197998,504
22584164,9998,0.862305,0.378174,0.203247,497
22594171,10007,0.905029,0.390259,0.201660,483
22604177,10006,0.953369,0.403931,0.194824,481
22614194,10017,0.997314,0.417969,0.185547,475
22624173,9979,1.030029,0.433716,0.178101,463
22634162,9989,1.051758,0.446533,0.170166,470
22644169,10007,1.055542,0.469482,0.153809,481
22654177,10008,1.051147,0.478882,0.144165,483
22664167,9990,1.050781,0.485107,0.133301,482
22674184,10017,1.053101,0.484619,0.124878,494
22684166,9982,1.058960,0.482910,0.119019,508
22694164,9998,1.052490,0.467285,0.119507,515
22704159,9995,1.038330,0.457397,0.123291,520
22714165,10006,1.016846,0.451904,0.126953,523
22724179,10014,0.985962,0.447266,0.137207,530
22734178,9999,0.947754,0.444824,0.147705,530
22744183,10005,0.908813,0.449219,0.146729,532
22754181,9998,0.842529,0.446777,0.138550,530
22764172,9991,0.828979,0.439697,0.139771,525
22774162,9990,0.825317,0.431519,0.141357,521
22784190,10028,0.831543,0.427734,0.142700,518
22794189,9999,0.837036,0.430298,0.143555,513
22804161,9972,0.849243,0.455078,0.144531,514
22814181,10020,0.855469,0.467407,0.141846,507
22824179,9998,0.859619,0.479370,0.135986,502
22834161,9982,0.864258,0.487549,0.129761,504
22844191,10030,0.870605,0.494385,0.122070,499
22854188,9997,0.878296,0.498535,0.114258,504
22864166,9978,0.898560,0.504395,0.105469,508
22874169,10003,0.906372,0.499390,0.110474,510
22884184,10015,0.905518,0.496582,0.120483,512
22894167,9983,0.900269,0.497559,0.128540,516
22904179,10012,0.890747,0.502441,0.123413,514
22914175,9996,0.879150,0.501099,0.115479,527
22924173,9998,0.879517,0.494629,0.118164,536
22934172,9999,0.877686,0.480225,0.124634,530
22944166,9994,0.874390,0.468018,0.128418,535
22954189,10023,0.873169,0.457397,0.132324,549
22964179,9990,0.882446,0.450317,0.131104,552
22974180,10001,0.960937,0.451050,0.128540,555
22984182,10002,1.000854,0.453735,0.135132,553
22994159,9977,1.016235,0.456299,0.144531,554
23004163,10004,1.000244,0.456299,0.151001,554
23014199,10036,0.950562,0.450806,0.155273,554
23024189,9990,0.806396,0.414795,0.159912,553
23034173,9984,0.739380,0.387573,0.152100,552
23044165,9992,0.682983,0.359863,0.151123,549
23054172,10007,0.670654,0.342651,0.138916,547
23064167,9995,0.664307,0.333740,0.123413,533
23074167,10000,0.687866,0.327026,0.073853,533
23084191,10024,0.819824,0.341431,0.085937,522
23094175,9984,0.882812,0.357910,0.084961,512
23104159,9984,0.942505,0.372803,0.080811,503
23114176,10017,1.004150,0.388672,0.078613,486
23124163,9987,1.069946,0.409058,0.076904,477
23134181,10018,1.174561,0.461304,0.058960,478
23144163,9982,1.189209,0.473999,0.048218,479
23154184,10021,1.190796,0.473022,0.034302,491
23164161,9977,1.186035,0.458740,0.022583,498
23174165,10004,1.179199,0.433594,0.017334,509
23184165,10000,1.169556,0.376831,0.036011,518
23194183,10018,1.140991,0.368774,0.048096,526
23204166,9983,1.117798,0.354248,0.055664,531
23214188,10022,1.093994,0.343506,0.058716,538
23224184,9996,1.063721,0.332275,0.057861,536
23234162,9978,1.028564,0.322144,0.056763,542
23244187,10025,0.964844,0.313599,0.063354,541
23254167,9980,0.938599,0.308960,0.069458,542
23264184,10017,0.914673,0.303711,0.078613,536
23274166,9982,0.894287,0.297852,0.088135,531
23284172,10006,0.876221,0.295654,0.092896,529
23294188,10016,0.858154,0.297974,0.086060,517
23305417,11229,0.837769,0.307373,0.081177,519
23314177,8760,0.837280,0.309082,0.077637,506
23324170,9993,0.840820,0.308105,0.076660,511
23334171,10001,0.847534,0.307495,0.082886,507
23344168,9997,0.856567,0.309448,0.088257,500
23354162,9994,0.869263,0.317383,0.099243,496
23364170,10008,0.871216,0.322632,0.101685,494
23374174,10004,0.869263,0.327271,0.105225,490
23384187,10013,0.870972,0.328369,0.110962,485
23394166,9979,0.868286,0.328979,0.111328,484
23404167,10001,0.863037,0.328247,0.109009,482
23414182,10015,0.847168,0.326782,0.108765,480
23424174,9992,0.840332,0.326416,0.109497,481
23434162,9988,0.833130,0.321777,0.111084,483
23444159,9997,0.826538,0.314941,0.111572,477
23454187,10028,0.822998,0.307861,0.113159,485
23464188,10001,0.802368,0.290161,0.127563,487
23474162,9974,0.803467,0.295044,0.124512,491
23484202,10040,0.826294,0.312012,0.111206,494
23494170,9968,0.873291,0.334961,0.097046,490
23504173,10003,0.933472,0.352783,0.089355,502
23514175,10002,0.981079,0.376953,0.104736,509
23524185,10010,0.985474,0.368774,0.111328,506
23534168,9983,0.978027,0.368896,0.131104,512
23544161,9993,0.900879,0.364014,0.148437,528
23554199,10038,0.818970,0.357666,0.152954,536
23564174,9975,0.747681,0.352905,0.153687,538
23574177,10003,0.614868,0.344849,0.150269,546
23584184,10007,0.599731,0.343872,0.144287,549
23594168,9984,0.625732,0.348389,0.139404,542
23604162,9994,0.682373,0.357788,0.140381,536
23614184,10022,0.754272,0.370239,0.146606,517
23624162,9978,0.903687,0.396973,0.151245,513
23634165,10003,0.978516,0.412964,0.147339,496
23644169,10004,1.044556,0.421753,0.144653,477
23654187,10018,1.096802,0.427246,0.143066,476
23664171,9984,1.123169,0.428955,0.145142,470
23674173,10002,1.122803,0.430420,0.148193,468
23684168,9995,1.092407,0.453735,0.145508,472
23694185,10017,1.082642,0.472778,0.139404,478
23704183,9998,1.078125,0.488281,0.136230,485
23714163,9980,1.070435,0.496582,0.140381,491
23724161,9998,1.057251,0.500122,0.150269,501
23734160,9999,1.004395,0.499634,0.160767,502
23744175,10015,0.971558,0.497803,0.160889,512
23754183,10008,0.939209,0.495850,0.159180,516
23764184,10001,0.907227,0.491577,0.159302,512
23774183,9999,0.880737,0.484985,0.157349,518
23784191,10008,0.862183,0.477173,0.154663,519
23794178,9987,0.850342,0.460693,0.150391,523
23804171,9993,0.851196,0.456787,0.149048,523
23814181,10010,0.850464,0.454590,0.151489,516
23824172,9991,0.850952,0.460937,0.150024,526
23834186,10014,0.856201,0.469116,0.142334,522
23844176,9990,0.882446,0.481445,0.125732,526
23854187,10011,0.899536,0.482056,0.119507,522
23864170,9983,0.911499,0.479980,0.116089,521
23874161,9991,0.921021,0.476440,0.109741,522
23884176,10015,0.926514,0.474365,0.107422,518
23894167,9991,0.928589,0.480103,0.104370,518
23904175,10008,0.919189,0.484985,0.095215,516
23914171,9996,0.908081,0.476929,0.091797,520
23924179,10008,0.895386,0.465332,0.089722,519
23934184,10005,0.879150,0.455200,0.087280,520
23944191,10007,0.863647,0.447510,0.085937,513
23954185,9994,0.838013,0.447876,0.089966,518
23964162,9977,0.827759,0.457275,0.095703,517
23974180,10018,0.819458,0.464233,0.097778,511
23984159,9979,0.811646,0.469971,0.095093,519
23994183,10024,0.821533,0.473877,0.085937,517
24004180,9997,0.865967,0.482422,0.074219,519
24014198,10018,1.030762,0.506958,0.068970,512
24024166,9968,1.104980,0.519531,0.078247,514
24034189,10023,1.143921,0.521606,0.090820,512
24044178,9989,1.130737,0.526367,0.108032,514
24054182,10004,1.097534,0.512939,0.114014,507
24064185,10003,0.943237,0.473877,0.096924,514
24074172,9987,0.868042,0.439209,0.092651,520
24084188,10016,0.807251,0.406006,0.094482,528
24094169,9981,0.764282,0.377319,0.093994,528
24104188,10019,0.743042,0.350342,0.091187,524
24114176,9988,0.747192,0.330811,0.085083,523
24124166,9990,0.809692,0.327515,0.078369,522
24134161,9995,0.847900,0.334961,0.078857,529
24144181,10020,0.886230,0.345337,0.078613,529
24154174,9993,0.921997,0.358765,0.075439,526
24164176,10002,0.953247,0.372803,0.065674,518
24174162,9986,1.001099,0.393555,0.046387,515
24184170,10008,1.022217,0.394531,0.041504,521
24194203,10033,1.039673,0.390381,0.036011,520
24204191,9988,1.052979,0.376587,0.032104,517
24214188,9997,1.058716,0.365112,0.030884,525
24224188,10000,1.059692,0.354736,0.029419,519
24234188,10000,1.046875,0.331177,0.032227,525
24244182,9994,1.031006,0.321777,0.036621,527
24254165,9983,1.013184,0.315308,0.042114,532
24264165,10000,0.999023,0.315063,0.046143,540
24274203,10038,0.981201,0.318970,0.045044,542
24284181,9978,0.945435,0.322754,0.036987,537
24294169,9988,0.931274,0.321411,0.037598,544
24304163,9994,0.918091,0.316162,0.039917,542
24314175,10012,0.911255,0.312866,0.040771,540
24325240,11065,0.904785,0.308228,0.039673,538
24334185,8945,0.900757,0.305542,0.040283,527
24344178,9993,0.895752,0.298706,0.042358,526
24354167,9989,0.890991,0.294800,0.044067,523
24364161,9994,0.883301,0.293091,0.042358,520
24374187,10026,0.874756,0.293213,0.040649,512
24384167,9980,0.867798,0.293823,0.038452,507
24394168,10001,0.859497,0.296387,0.040649,503
24404180,10012,0.862793,0.296387,0.043335,496
24414185,10005,0.868042,0.292480,0.044556,493
24424168,9983,0.873779,0.288818,0.047363,488
24434190,10022,0.876343,0.283691,0.050293,485
24444169,9979,0.875366,0.281128,0.089111,487
24454160,9991,0.863525,0.286865,0.074951,486
24464177,10017,0.859009,0.292114,0.083862,484
24474165,9988,0.855957,0.296509,0.090820,483
24484184,10019,0.851929,0.302368,0.098022,485
24494183,9999,0.845825,0.309448,0.104126,476
24504195,10012,0.836548,0.325928,0.113770,483
24514183,9988,0.841553,0.336426,0.116211,484
24524176,9993,0.859985,0.344849,0.118042,483
24534164,9988,0.900513,0.350098,0.118286,484
24544184,10020,0.953613,0.360474,0.117065,487
24554176,9992,1.001709,0.396851,0.126587,488
24564180,10004,1.111694,0.398804,0.129639,494
24574164,9984,1.109741,0.418457,0.129639,499
24584164,10000,1.093018,0.426392,0.135498,495
24594173,10009,1.062012,0.421875,0.143677,508
24604176,10003,1.000732,0.413330,0.148071,516
24614159,9983,0.843018,0.377686,0.150513,523
24624171,10012,0.785034,0.364014,0.161743,523
24634188,10017,0.735840,0.354004,0.177002,529
24644180,9992,0.701904,0.343750,0.187988,528
24654188,10008,0.686401,0.337769,0.187378,517
24664175,9987,0.691528,0.354004,0.171265,525
24674195,10020,0.765625,0.372925,0.171265,522
24684176,9981,0.817017,0.388550,0.174316,508
24694182,10006,0.863647,0.400635,0.175903,504
24704169,9987,0.903320,0.406738,0.171753,497
24714177,10008,0.941650,0.413818,0.162842,487
24724181,10004,1.005371,0.430054,0.151123,483
24734187,10006,1.030151,0.433472,0.146606,479
24744159,9972,1.046875,0.432983,0.141602,484
24754190,10031,1.052734,0.431274,0.140137,491
24764178,9988,1.052856,0.429565,0.140625,497
24774173,9995,1.045410,0.429687,0.145142,505
24784166,9993,1.012451,0.427246,0.142212,511
24794171,10005,0.991333,0.424194,0.137573,525
24804162,9991,0.967163,0.420898,0.131958,528
24814183,10021,0.947021,0.417603,0.128052,536
24824163,9980,0.926758,0.411499,0.126221,543
24834176,10013,0.894409,0.395386,0.126099,543
24844169,9993,0.882324,0.390015,0.122559,538
24854186,10017,0.874023,0.389282,0.117920,543
24864173,9987,0.867798,0.389404,0.117188,537
24874160,9987,0.868408,0.392944,0.115356,543
24884185,10025,0.870605,0.397583,0.107666,539
24894163,9978,0.876099,0.415649,0.100952,532
24904160,9997,0.882935,0.423096,0.093872,530
24914185,10025,0.892090,0.429443,0.088013,519
24924167,9982,0.901245,0.430664,0.082764,521
24934161,9994,0.911011,0.431763,0.079712,514
24944191,10030,0.922485,0.429687,0.070068,510
24954166,9975,0.921875,0.429321,0.067627,506
24964159,9993,0.919922,0.429810,0.062744,503
24974188,10029,0.914917,0.430054,0.059570,504
24984172,9984,0.903320,0.429687,0.054077,501
24994161,9989,0.895020,0.419434,0.060181,500
25004188,10027,0.908081,0.429810,0.062378,502
25014205,10017,0.875732,0.430054,0.054687,502
25024176,9971,0.860352,0.423950,0.050659,503
25034163,9987,0.865356,0.418457,0.053345,503
25044161,9998,0.878174,0.419556,0.056519,504
25054174,10013,0.915527,0.427246,0.047607,500
25064188,10014,0.959839,0.432739,0.043945,501
25074160,9972,1.010254,0.438110,0.049927,507
25084183,10023,1.050781,0.441162,0.061035,499
25094161,9978,1.064087,0.439453,0.069824,497
25104186,10025,1.046265,0.433838,0.070435,503
25114166,9980,0.982178,0.431641,0.061523,511
25124180,10014,0.947998,0.426514,0.056030,514
25134180,10000,0.914917,0.417114,0.054932,514
25144177,9997,0.884277,0.401978,0.055908,523
25154179,10002,0.856445,0.384399,0.057495,522
25164167,9988,0.818481,0.346924,0.060669,523
25174162,9995,0.807373,0.334961,0.064453,529
25184166,10004,0.798584,0.329712,0.070312,522
25194204,10038,0.797729,0.335327,0.075562,523
25204178,9974,0.805542,0.352417,0.073486,518
25214181,10003,0.819092,0.368774,0.065552,512
25224169,9988,0.866333,0.371216,0.059814,504
25234162,9993,0.896851,0.378052,0.055420,490
25244172,10010,0.935791,0.387329,0.051025,489
25254160,9988,0.977295,0.395386,0.047363,474
25264178,10018,1.021484,0.403320,0.042847,476
25274170,9992,1.101563,0.408569,0.039429,472
25284171,10001,1.135986,0.406494,0.035278,472
25294176,10005,1.156982,0.402710,0.028320,468
25304173,9997,1.161255,0.394531,0.024048,483
25314178,10005,1.152588,0.384521,0.020752,492
25324160,9982,1.104736,0.355957,0.022583,502
25334160,10000,1.073120,0.338257,0.023193,514
25344174,10014,1.038574,0.321777,0.024292,521
25354187,10013,1.006104,0.307251,0.025757,528
25364167,9980,0.976074,0.292969,0.033081,540
25374165,9998,0.945801,0.283081,0.040283,541
25384169,10004,0.894409,0.286133,0.046753,547
25394164,9995,0.872437,0.295288,0.045288,540
25404163,9999,0.853394,0.302979,0.044922,548
25414185,10022,0.839844,0.308105,0.045532,538
25424212,10027,0.832520,0.306885,0.046997,543
25434160,9948,0.828735,0.305908,0.048340,540
25444175,10015,0.831177,0.307373,0.050293,529
25454189,10014,0.835327,0.309082,0.051514,523
25464159,9970,0.840454,0.310425,0.055664,522
25474184,10025,0.848511,0.314575,0.054565,516
25484187,10003,0.856323,0.319702,0.047485,510
25494165,9978,0.867920,0.334473,0.038086,503
25504192,10027,0.875122,0.338867,0.040039,500
25514188,9996,0.884521,0.337524,0.041382,488
25524182,9994,0.891602,0.329834,0.040527,486
25534186,10004,0.896240,0.318237,0.038086,489
25544175,9989,0.896973,0.300659,0.037598,484
25554169,9994,0.894165,0.295288,0.038696,476
25564172,10003,0.892578,0.296509,0.038818,481
25574167,9995,0.899780,0.300049,0.038452,488
25584170,10003,0.914795,0.303223,0.044922,486
25594165,9995,0.932129,0.307007,0.052979,490
25604182,10017,0.962402,0.328491,0.050171,497
25614160,9978,0.977173,0.348633,0.042603,500
25624167,10007,0.999390,0.365112,0.046509,505
25634186,10019,1.019409,0.369629,0.065918,508
25644185,9999,1.028442,0.357910,0.094971,514
25654171,9986,0.926636,0.318604,0.134399,513
25664166,9995,0.843628,0.316650,0.135986,521
25674188,10022,0.792969,0.333252,0.141724,529
25684169,9981,0.766235,0.349976,0.144653,532
25694182,10013,0.762817,0.356812,0.142212,526
25704165,9983,0.777832,0.355347,0.141968,531
25714183,10018,0.818115,0.337646,0.155518,526
25724173,9990,0.855347,0.332397,0.163330,521
25734169,9996,0.892212,0.334595,0.168945,514
25744166,9997,0.922974,0.342651,0.170776,503
25754170,10004,0.947388,0.350220,0.175537,498
25764181,10011,0.980103,0.367676,0.172363,481
25774180,9999,0.983398,0.378906,0.169800,482
25784177,9997,0.982178,0.387939,0.168335,482
25794162,9985,0.981812,0.397705,0.171997,481
25804182,10020,0.983398,0.403076,0.176270,484
25814160,9978,0.981689,0.406494,0.177734,485
25824177,10017,0.973145,0.409302,0.173340,489
25834160,9983,0.962646,0.413330,0.171753,495
25844173,10013,0.948608,0.414185,0.171387,501
25854182,10009,0.933472,0.414307,0.170532,498
25864159,9977,0.918579,0.413940,0.168213,504
25874179,10020,0.899292,0.413818,0.156128,514
25884166,9987,0.897339,0.416870,0.149902,514
25894169,10003,0.900635,0.419922,0.146118,514
25904207,10038,0.907837,0.420654,0.142090,509
25914166,9959,0.915039,0.419556,0.138550,516
25924161,9995,0.920288,0.420410,0.134644,511
25934163,10002,0.928101,0.430054,0.128662,511
25944172,10009,0.932495,0.441406,0.125244,509
25954188,10016,0.934570,0.450806,0.122559,507
25964176,9988,0.934570,0.459229,0.118774,506
25974193,10017,0.929565,0.464478,0.112305,512
25984179,9986,0.917969,0.465332,0.103638,513
25994187,10008,0.913208,0.463867,0.103760,513
26004188,10001,0.906738,0.462402,0.103882,516
26014187,9999,0.900513,0.461914,0.103882,514
26024180,9993,0.890503,0.464722,0.105225,516
26034185,10005,0.880493,0.470337,0.105713,519
26044180,9995,0.861450,0.483521,0.101196,521
26054168,9988,0.856201,0.483154,0.098389,522
26064182,10014,0.854248,0.479980,0.097412,519
26074172,9990,0.866089,0.474731,0.094727,530
26084163,9991,0.894165,0.472656,0.091431,535
26094181,10018,0.977539,0.473755,0.096680,533
26104180,9999,1.010132,0.471802,0.104248,535
26114160,9980,1.026978,0.467041,0.111084,533
26124187,10027,1.018555,0.459229,0.115723,534
26134210,10023,0.999268,0.445068,0.115479,534
26144169,9959,0.962158,0.440674,0.109863,537
26154161,9992,0.810791,0.413696,0.106079,534
26164185,10024,0.745361,0.392456,0.105103,539
26174183,9998,0.697388,0.369995,0.103760,533
26184165,9982,0.667847,0.353271,0.102173,538
26194176,10011,0.652710,0.343628,0.098633,533
26204184,10008,0.688965,0.339966,0.087280,527
26214173,9989,0.743408,0.347534,0.083984,526
26224160,9987,0.807739,0.359253,0.082153,506
26234168,10008,0.873291,0.377563,0.077393,509
26244165,9997,0.941650,0.399048,0.069824,484
26254183,10018,1.008057,0.449829,0.056641,482
26264169,9986,1.129028,0.449341,0.046875,467
26274181,10012,1.161987,0.453979,0.034302,472
26284188,10007,1.177734,0.450195,0.023804,469
26294185,9997,1.190063,0.443604,0.014893,478
26304164,9979,1.197876,0.429932,0.012207,487
26314163,9999,1.203247,0.406250,0.023682,498
26324163,10000,1.193726,0.395264,0.029907,496
26334162,9999,1.171021,0.386475,0.032227,508
26344168,10006,1.138672,0.376465,0.030640,526
26354165,9997,1.103882,0.365112,0.031128,531
26364206,10041,1.066284,0.334961,0.037720,537
26374166,9960,0.999756,0.319092,0.044800,531
26384174,10008,0.968018,0.302124,0.051270,538
26394172,9998,0.938843,0.287964,0.057617,536
26404166,9994,0.911621,0.276978,0.063965,538
26414159,9993,0.885986,0.271362,0.069702,532
26424167,10008,0.847046,0.285889,0.066895,527
26434203,10036,0.832642,0.298828,0.062866,525
26444172,9969,0.825195,0.310181,0.060913,512
26454186,10014,0.824951,0.316040,0.064453,507
26464166,9980,0.827637,0.312866,0.069946,507
26474163,9997,0.833374,0.308960,0.078857,499
26484183,10020,0.848877,0.308472,0.085327,492
26494170,9987,0.854126,0.307739,0.095947,485
26504168,9998,0.854614,0.306641,0.104736,483
26514159,9991,0.855591,0.309692,0.108154,479
26524178,10019,0.849487,0.316284,0.103638,476
26534168,9990,0.824219,0.327881,0.099365,475
26544172,10004,0.815063,0.332642,0.099731,468
26554163,9991,0.808350,0.335205,0.099976,475
26564173,10010,0.814087,0.336914,0.097656,481
26574182,10009,0.835693,0.338379,0.097656,483
26584171,9989,0.905518,0.338013,0.096924,484
26594182,10011,0.936401,0.338623,0.096924,492
26604174,9992,0.949463,0.338867,0.095459,496
26614180,10006,0.942383,0.337524,0.098022,494
26624163,9983,0.916016,0.336670,0.103027,507
26634176,10013,0.879883,0.339111,0.113647,514
26644195,10019,0.783569,0.334961,0.143921,521
26654170,9975,0.713745,0.338379,0.166992,521
26664179,10009,0.646606,0.328491,0.177856,534
26674175,9996,0.645508,0.322510,0.171143,527
26684178,10003,0.665771,0.339478,0.163818,533
26694178,10000,0.755981,0.373657,0.157837,527
26704164,9986,0.821777,0.386475,0.170532,521
26714166,10002,0.876953,0.394165,0.180298,511
26724188,10022,0.916870,0.393066,0.186523,504
26734173,9985,0.963379,0.392822,0.192627,488
26744160,9987,1.003906,0.402710,0.198730,488
26754177,10017,1.037842,0.425659,0.197021,479
26764186,10009,1.034546,0.429565,0.190796,486
26774162,9976,1.028564,0.435913,0.186890,488
26784185,10023,1.024170,0.442749,0.186768,493
26794176,9991,1.020508,0.451538,0.183716,498
26804170,9994,1.007568,0.469238,0.182129,502
26814189,10019,1.000366,0.473145,0.182495,504
26824175,9986,0.987915,0.472900,0.183350,511
26834171,9996,0.969604,0.465454,0.182495,509
26844164,9993,0.950562,0.454956,0.180054,517
26854182,10018,0.930298,0.445679,0.179810,514
26864171,9989,0.890991,0.431152,0.169312,526
26874160,9989,0.879028,0.427856,0.161377,519
26884183,10023,0.875244,0.425171,0.157959,528
26894172,9989,0.876343,0.421997,0.155762,531
26904167,9995,0.882446,0.418579,0.152832,531
26914171,10004,0.901123,0.417114,0.144409,519
26924159,9988,0.909912,0.419067,0.137695,525
26934186,10027,0.917847,0.422241,0.133545,523
26944181,9995,0.924561,0.425415,0.128052,516
26954185,10004,0.930786,0.426147,0.125244,505
26964179,9994,0.934326,0.425415,0.119263,511
26974170,9991,0.935425,0.421997,0.117432,491
26984173,10003,0.931030,0.418457,0.116333,498
26994170,9997,0.924072,0.416870,0.112793,493
27004177,10007,0.914185,0.416748,0.112183,498
27014161,9984,0.901367,0.417236,0.112915,500
27024177,10016,0.877441,0.429199,0.114746,500
27034173,9996,0.866943,0.440918,0.113647,498
27044160,9987,0.859497,0.452881,0.111084,499
27054166,10006,0.854980,0.459717,0.106689,501
27064173,10007,0.853516,0.461914,0.103271,500
27074170,9997,0.856323,0.454468,0.099121,502
27084179,10009,0.859375,0.451782,0.098022,499
27094163,9984,0.865356,0.449219,0.093384,501
27104164,10001,0.885498,0.452148,0.081543,501
27114167,10003,0.924194,0.457520,0.072021,497
27124188,10021,0.971558,0.463745,0.070190,499
27134165,9977,1.037354,0.461182,0.086426,497
27144165,10000,1.036377,0.459717,0.098267,500
27154182,10017,1.010986,0.457031,0.100098,501
27164169,9987,0.961304,0.457642,0.100830,499
27174180,10011,0.892456,0.452393,0.096069,507
27184179,9999,0.802734,0.435181,0.088379,518
27194179,10000,0.760010,0.416870,0.082886,523
27204165,9986,0.746338,0.397827,0.077271,525
27214171,10006,0.740845,0.380981,0.071411,528
27224176,10005,0.753784,0.369141,0.069580,531
27234170,9994,0.784302,0.366821,0.071411,528
27244169,9999,0.852539,0.373169,0.068848,524
27254163,9994,0.881348,0.373291,0.061035,520
27264179,10016,0.912842,0.377441,0.055298,515
27274177,9998,0.947266,0.386719,0.047119,513
27284168,9991,0.985718,0.397705,0.041748,506
27294161,9993,1.033447,0.409058,0.034058,508
27304171,10010,1.047729,0.408325,0.031128,501
27314172,10001,1.060059,0.408447,0.029785,506
27324180,10008,1.069092,0.411133,0.028442,512
27334179,9999,1.079590,0.414551,0.024536,517
27344181,10002,1.096191,0.415161,0.022461,524
27354170,9989,1.118652,0.399048,0.029419,527
27364177,10007,1.110474,0.383789,0.034546,532
27374172,9995,1.093018,0.364502,0.039185,535
27384159,9987,1.080200,0.343872,0.034546,536
27394163,10004,1.072266,0.321655,0.035767,547
27404164,10001,1.014160,0.252197,0.076172,543
27414163,9999,0.987549,0.218628,0.089478,549
27424211,10048,0.957031,0.193604,0.093628,553
27434175,9964,0.921997,0.176147,0.093872,553
27444187,10012,0.895020,0.160400,0.093140,556
27454174,9987,0.875854,0.148560,0.093506,553
27464172,9998,0.860962,0.112061,0.104980,548
27474159,9987,0.861694,0.088257,0.121216,535
27484163,10004,0.868530,0.070435,0.133667,530
27494167,10004,0.876587,0.057861,0.140747,519
27504197,10030,0.881836,0.050781,0.154907,504
27514162,9965,0.903564,0.079224,0.157471,494
27524179,10017,0.907104,0.102539,0.143677,492
27534166,9987,0.908081,0.118652,0.131592,483
27544187,10021,0.915039,0.137817,0.126099,483
27554180,9993,0.926514,0.156250,0.124146,483
27564172,9992,0.942139,0.168945,0.121216,482
27574170,9998,0.978882,0.179443,0.110840,476
27584178,10008,0.996826,0.181763,0.110474,477
27594167,9989,1.004639,0.178345,0.110229,475
27604177,10010,1.008301,0.175293,0.108398,477
27614169,9992,1.004517,0.175903,0.105225,478
27624173,10004,0.981445,0.194702,0.100098,479
27634173,10000,0.961060,0.208130,0.103882,484
27644188,10015,0.935303,0.222046,0.110962,481
27654161,9973,0.915894,0.228149,0.117676,496
27664160,9999,0.904175,0.237427,0.124023,502
27674182,10022,0.899414,0.254028,0.129150,506
27684186,10004,0.916870,0.304810,0.126831,500
27694181,9995,0.935181,0.332275,0.124512,508
27704180,9999,0.958130,0.359375,0.122192,510
27714197,10017,0.984131,0.387817,0.119507,507
27724181,9984,1.010742,0.408691,0.115112,498
27734187,10006,1.059326,0.428955,0.125854,505
27744170,9983,1.062012,0.421875,0.146118,506
27754164,9994,1.041016,0.408447,0.174927,508
27764183,10019,0.990356,0.391724,0.184204,512
27774161,9978,0.938721,0.379517,0.179077,507
27784178,10017,0.868042,0.372437,0.173218,519
27794163,9985,0.763916,0.354248,0.177246,521
27804183,10020,0.727661,0.341064,0.177612,523
27814178,9995,0.723999,0.332031,0.183228,521
27824162,9984,0.741821,0.327759,0.191284,514
27834186,10024,0.779663,0.329224,0.202026,512
27844181,9995,0.858398,0.356323,0.232056,506
27854166,9985,0.905762,0.372070,0.241089,498
27864181,10015,0.950073,0.389160,0.238770,492
27874194,10013,0.984863,0.401978,0.233154,487
27884181,9987,1.006958,0.417114,0.230835,481
27894185,10004,1.020142,0.427246,0.239868,482
27904169,9984,1.015991,0.418579,0.243774,490
27914166,9997,1.009766,0.409058,0.240479,486
27924177,10011,1.000854,0.400024,0.234985,503
27934188,10011,0.990723,0.391479,0.228760,508
27944177,9989,0.972290,0.384277,0.225708,516
27954175,9998,0.932373,0.370605,0.227905,524
27964167,9992,0.908081,0.366699,0.227539,520
27974180,10013,0.882690,0.365356,0.226562,533
27984176,9996,0.857666,0.369263,0.220581,539
27994161,9985,0.832275,0.371826,0.214966,543
28023123,28962,0.791016,0.392334,0.184814,544
28029127,6004,0.000000,0.000000,0.000000,532
28033903,4776,0.797119,0.398560,0.175415,534
28039390,5487,0.805908,0.404785,0.169434,534
28044696,5306,0.000000,0.000000,0.000000,528
28054170,9474,0.817993,0.411499,0.161987,517
28064164,9994,0.847656,0.425171,0.147339,511
28074202,10038,0.859497,0.430786,0.140869,501
28084163,9961,0.871948,0.432617,0.135010,500
28094173,10010,0.883301,0.434814,0.130737,494
28104160,9987,0.894653,0.441406,0.125854,488
28114167,10007,0.906250,0.451538,0.112915,486
28124181,10014,0.907593,0.451660,0.108398,480
28134185,10004,0.906128,0.451416,0.105103,483
28144176,9991,0.899048,0.449951,0.103149,486
28154181,10005,0.892822,0.453979,0.098755,487
28164174,9993,0.884033,0.455078,0.094360,485
28174175,10001,0.875610,0.456177,0.090210,494
28184176,10001,0.884766,0.457642,0.087402,499
28194164,9988,0.907959,0.461304,0.082153,506
28204188,10024,0.939575,0.466797,0.078491,500
28214170,9982,0.974365,0.471436,0.078369,513
28224185,10015,1.010376,0.474976,0.083496,510
28234170,9985,1.007324,0.477417,0.088013,519
28244163,9993,0.991211,0.479492,0.088379,524
28254184,10021,0.965698,0.471069,0.085937,528
28264187,10003,0.934204,0.459839,0.080688,521
28274164,9977,0.904297,0.445068,0.076538,528
28293702,19538,0.856445,0.408325,0.078979,536
28302423,8721,0.848999,0.402100,0.077148,532
28307806,5383,0.000000,0.000000,0.000000,534
28314187,6381,0.838745,0.400146,0.077271,539
28324165,9978,0.815918,0.386230,0.075562,536
28334188,10023,0.826050,0.379639,0.074829,533
28344178,9990,0.811401,0.370605,0.071655,525
28354162,9984,0.834839,0.370850,0.074341,520
28364185,10023,0.865723,0.376465,0.077393,516
28374160,9975,0.890381,0.383057,0.078979,511
28384163,10003,0.902222,0.391113,0.080200,508
28394181,10018,0.924072,0.413452,0.079590,499
28404179,9998,0.933960,0.424561,0.072998,494
28414169,9990,0.934814,0.428711,0.067017,503
28424167,9998,0.936401,0.424805,0.055786,503
28434161,9994,0.935669,0.423462,0.046753,510
28444175,10014,0.972290,0.413940,0.031250,514
28454167,9992,0.998779,0.404663,0.030518,522
28464188,10021,1.024414,0.392700,0.037476,529
28474186,9998,1.048584,0.380249,0.044922,536
28484185,9999,1.068970,0.367432,0.052979,540
28494213,10028,1.091309,0.359863,0.073242,541
28504183,9970,1.118530,0.360718,0.079956,550
28514187,10004,1.115601,0.357422,0.081543,555
28524179,9992,1.088623,0.349976,0.087402,550
28534176,9997,1.059448,0.338013,0.093628,552
28544169,9993,1.029053,0.330444,0.102783,557
28554181,10012,0.980225,0.314453,0.125244,556
28564168,9987,0.956787,0.310547,0.134155,555
28574170,10002,0.938599,0.307251,0.143433,548
28584168,9998,0.920044,0.309937,0.150391,543
28594179,10011,0.909546,0.312866,0.153687,546
28604167,9988,0.895264,0.317017,0.148193,543
28614181,10014,0.867310,0.319458,0.147827,534
28624166,9985,0.852051,0.326416,0.148682,526
28634170,10004,0.839478,0.329834,0.153198,526
28644182,10012,0.822144,0.325806,0.159546,521
28654188,10006,0.803223,0.316406,0.160767,513
28664187,9999,0.771118,0.297974,0.154053,510
28674165,9978,0.766846,0.291260,0.149536,506
28684174,10009,0.772705,0.286865,0.142212,494
28694163,9989,0.780396,0.287231,0.135132,498
28704196,10033,0.793091,0.294922,0.128296,498
28714179,9983,0.822144,0.322510,0.127563,488
28724176,9997,0.834229,0.333374,0.128906,484
28734185,10009,0.844360,0.336548,0.128662,482
28744166,9981,0.850830,0.336060,0.129883,491
28754159,9993,0.851807,0.334595,0.133911,486
28764165,10006,0.848877,0.332275,0.140869,490
28774168,10003,0.843628,0.338745,0.138672,490
28784171,10003,0.849609,0.348633,0.138916,484
28794188,10017,0.865845,0.362305,0.139404,491
28804171,9983,0.892822,0.378174,0.137573,490
28814177,10006,0.927490,0.395874,0.133301,491
28824160,9983,0.997925,0.421631,0.117432,494
28834170,10010,1.013184,0.415894,0.118408,488
28844171,10001,1.003784,0.408691,0.122559,495
28854162,9991,0.970581,0.399536,0.127563,496
28864187,10025,0.928833,0.381348,0.140015,495
28874160,9973,0.889526,0.362183,0.149414,507
28884182,10022,0.829346,0.327026,0.162598,509
28894165,9983,0.808838,0.321045,0.168579,512
28904192,10027,0.798340,0.330200,0.169312,513
28914175,9983,0.796631,0.356567,0.157471,516
28924182,10007,0.801147,0.389771,0.152222,512
28934162,9980,0.841675,0.436035,0.160767,510
28944183,10021,0.877930,0.443848,0.169312,504
28954188,10005,0.921021,0.446655,0.173340,495
28964184,9996,0.964355,0.448364,0.169678,491
28974195,10011,1.000732,0.453857,0.160034,502
28984187,9992,1.031128,0.456055,0.151978,484
28994184,9997,1.070435,0.458984,0.137207,491
29004188,10004,1.076660,0.468384,0.131348,496
29014180,9992,1.077393,0.480835,0.126587,503
29024173,9993,1.072754,0.491089,0.124146,510
29034171,9998,1.066406,0.499023,0.119629,509
29044164,9993,1.023560,0.499146,0.128052,513
29054168,10004,0.991821,0.493774,0.140869,527
29064170,10002,0.954956,0.490234,0.146973,529
29074187,10017,0.914673,0.488525,0.147461,533
29084173,9986,0.875122,0.493042,0.151978,542
29094175,10002,0.843384,0.500610,0.145752,545
29104161,9986,0.782104,0.506592,0.140381,547
29114200,10039,0.766724,0.500610,0.134644,545
29124166,9966,0.761108,0.492920,0.133057,552
29134179,10013,0.764648,0.479370,0.130737,547
29144173,9994,0.774414,0.464722,0.124878,549
29154181,10008,0.789551,0.446167,0.106689,545
29164187,10006,0.790771,0.448242,0.096191,530
29174178,9991,0.795044,0.454346,0.087036,531
29184168,9990,0.801880,0.460937,0.079346,523
29194189,10021,0.811523,0.468140,0.072144,507
29204185,9996,0.827393,0.476440,0.055176,497
29214183,9998,0.860962,0.492065,0.048218,494
29224186,10003,0.878174,0.495239,0.046265,488
29234186,10000,0.894775,0.494263,0.045166,484
29244188,10002,0.908447,0.492310,0.046997,481
29254161,9973,0.915405,0.488037,0.046265,486
29264181,10020,0.918579,0.478149,0.045898,487
29274183,10002,0.916260,0.473022,0.044434,484
29284176,9993,0.911865,0.465942,0.043945,496
29294185,10009,0.907104,0.457886,0.044678,500
29304176,9991,0.906006,0.453613,0.045166,509
29314186,10010,0.921387,0.447998,0.036743,514
29324163,9977,1.003052,0.441528,0.036499,516
29334164,10001,1.048828,0.431152,0.045898,524
29344209,10045,1.085693,0.419556,0.057739,527
29354179,9970,1.104126,0.409058,0.067383,532
29364184,10005,1.103394,0.401245,0.076294,529
29374166,9982,1.040405,0.390747,0.090088,540
29384168,10002,0.994873,0.382080,0.100098,543
29394176,10008,0.944946,0.374756,0.106689,538
29404166,9990,0.896973,0.365234,0.112793,541
29414163,9997,0.849731,0.365601,0.110718,551
29424189,10026,0.809204,0.369751,0.105103,549
29434172,9983,0.773804,0.372192,0.105347,548
29444180,10008,0.788208,0.361816,0.106689,539
29454172,9992,0.791504,0.358398,0.122925,535
29464172,10000,0.812378,0.358154,0.122681,521
29474165,9993,0.830322,0.354858,0.129150,520
29484189,10024,0.859985,0.328979,0.111328,502
29494186,9997,0.875610,0.322754,0.111572,502
29504164,9978,0.891479,0.313965,0.106567,491
29514166,10002,0.912598,0.311890,0.113770,479
29524184,10018,0.939209,0.323120,0.119263,476
29534177,9993,0.991577,0.335205,0.096191,468
29544183,10006,1.011719,0.345215,0.089355,471
29554186,10003,1.035034,0.354858,0.083130,470
29564165,9979,1.046387,0.366577,0.079224,472
29574196,10031,1.056641,0.371094,0.075317,475
29584168,9972,1.065063,0.370850,0.077393,483
29594183,10015,1.058716,0.347168,0.104614,491
29604180,9997,1.049805,0.337158,0.111450,492
29627719,23539,0.953125,0.322510,0.091797,520
29633778,6059,0.000000,0.000000,0.000000,525
29637731,3953,0.911987,0.327759,0.092163,527
29644176,6445,0.000000,0.000000,0.000000,533
29654173,9997,0.837769,0.325562,0.093262,537
29664187,10014,0.806763,0.320190,0.096802,540
29674176,9989,0.781372,0.315918,0.102417,535
29684177,10001,0.761841,0.312622,0.108154,544
29694174,9997,0.750610,0.311157,0.109009,534
29704162,9988,0.744141,0.314087,0.119141,527
29714186,10024,0.748047,0.317993,0.120361,526
29724172,9986,0.756470,0.322876,0.118286,515
29734188,10016,0.770508,0.329956,0.114502,507
29744184,9996,0.792358,0.338623,0.109741,496
29754183,9999,0.845093,0.355469,0.103760,488
29764176,9993,0.872681,0.360229,0.103516,481
29774173,9997,0.898804,0.362549,0.099243,469
29784162,9989,0.924072,0.362305,0.100098,474
29794196,10034,0.940063,0.359375,0.113037,464
29804163,9967,0.947754,0.356201,0.133789,473
29814179,10016,0.952515,0.357422,0.137329,468
29824182,10003,0.952026,0.367920,0.125488,480
29834179,9997,0.955688,0.385620,0.116333,482
29844187,10008,0.965698,0.397095,0.112915,492
29854164,9977,0.991455,0.402710,0.110596,499
29864189,10025,1.081909,0.406128,0.089844,509
29874177,9988,1.116333,0.418213,0.076904,514
29884178,10001,1.119751,0.426025,0.070435,515
29894171,9993,1.077271,0.418701,0.070435,520
29904170,9999,0.998779,0.400513,0.074219,528
29914167,9997,0.903809,0.374023,0.084717,540
29924166,9999,0.668335,0.297119,0.140137,546
29934171,10005,0.569824,0.263794,0.163574,539
29944167,9996,0.528564,0.255981,0.161621,545
29954171,10004,0.557495,0.283081,0.140137,536
29964173,10002,0.638794,0.332153,0.113159,524
29974186,10013,0.819580,0.419800,0.122559,506
29984164,9978,0.902100,0.445312,0.151855,482
29994177,10013,0.981689,0.461914,0.178955,454
30004177,10000,1.037842,0.473755,0.189209,447
30014183,10006,1.066895,0.483765,0.187500,433
30024167,9984,1.068848,0.495728,0.178223,433
30034182,10015,1.051880,0.533325,0.150513,431
30044212,10030,1.052856,0.550415,0.136963,435
30054182,9970,1.055420,0.562622,0.129883,441
30064163,9981,1.053345,0.573486,0.125732,448
30074186,10023,1.041626,0.585571,0.126465,463
30084176,9990,0.992798,0.605225,0.134277,478
30094175,9999,0.950317,0.606567,0.142578,491
30104186,10011,0.906616,0.601074,0.146851,495
30114170,9984,0.866455,0.589111,0.146362,509
30124200,10030,0.828613,0.572144,0.146606,510
30134164,9964,0.802368,0.544922,0.145630,525
30144163,9999,0.780029,0.485474,0.140381,531
30154169,10006,0.779297,0.466553,0.134399,527
30164185,10016,0.785278,0.454590,0.125488,536
30174187,10002,0.798584,0.445679,0.119507,538
30184177,9990,0.818848,0.437866,0.115845,535
30194183,10006,0.854126,0.426636,0.114136,528
30204159,9976,0.866089,0.426636,0.109253,526
30214173,10014,0.873413,0.430298,0.107300,516
30224184,10011,0.879883,0.436279,0.106812,516
30234170,9986,0.884399,0.441895,0.105103,509
30244163,9993,0.890259,0.443359,0.102661,505
30254185,10022,0.903809,0.434204,0.102905,505
30264178,9993,0.909302,0.428833,0.109741,501
30274194,10016,0.910156,0.427124,0.118042,506
30284161,9967,0.905884,0.434814,0.125488,505
30294183,10022,0.898682,0.450317,0.129517,513
30304780,10597,0.879272,0.472900,0.135010,511
30314164,9384,0.872192,0.474121,0.138428,516
30324170,10006,0.868774,0.471558,0.142334,520
30334172,10002,0.865601,0.470093,0.145020,536
30344181,10009,0.864136,0.466187,0.146606,540
30354167,9986,0.865234,0.461548,0.145386,544
30364183,10016,0.897217,0.445923,0.141602,547
30374173,9990,0.928345,0.440063,0.139648,550
30384171,9998,0.963501,0.435913,0.139893,552
30394181,10010,0.997192,0.432983,0.145142,550
30404159,9978,1.019043,0.430908,0.149048,551
30414162,10003,1.017578,0.418945,0.154419,549
30424164,10002,0.993286,0.411133,0.155762,541
30434167,10003,0.960815,0.402832,0.153198,537
30459132,24965,0.889404,0.396729,0.142578,544
30464650,5518,0.000000,0.000000,0.000000,538
30471579,6929,0.877808,0.399170,0.137939,542
30476892,5313,0.875610,0.399902,0.132935,541
30484162,7270,0.880981,0.398804,0.129883,540
30494211,10049,0.889404,0.396729,0.126587,536
30504193,9982,0.895752,0.391724,0.122925,525
30514184,9991,0.897583,0.382813,0.120605,531
30524170,9986,0.887451,0.365479,0.111694,527
30534178,10008,0.879761,0.357788,0.104004,522
30544179,10001,0.873169,0.348877,0.097290,518
30554188,10009,0.873291,0.342896,0.089600,506
30564170,9982,0.879517,0.336792,0.080444,506
30574172,10002,0.887695,0.324097,0.065308,501
30584182,10010,0.904297,0.321655,0.061279,506
30594160,9978,0.914673,0.322510,0.059692,503
30604169,10009,0.924927,0.325562,0.057739,493
30614161,9992,0.938721,0.333740,0.052856,500
30624160,9999,0.948730,0.344971,0.044556,501
30634174,10014,0.962280,0.350342,0.035889,496
30644187,10013,0.961060,0.347778,0.033936,503
30654171,9984,0.951172,0.343018,0.032471,506
30664168,9997,0.941650,0.332153,0.031494,511
30674185,10017,0.927368,0.321411,0.036133,500
30684167,9982,0.905762,0.299072,0.037231,519
30694176,10009,0.895752,0.294067,0.037842,524
30704183,10007,0.882812,0.291504,0.041138,518
30714193,10010,0.872559,0.295288,0.048828,523
30724165,9972,0.863892,0.302490,0.054810,530
30734186,10021,0.855103,0.314331,0.059204,523
30744186,10000,0.842285,0.319702,0.068604,518
30754172,9986,0.838379,0.322266,0.072998,524
30764159,9987,0.834351,0.329346,0.077637,517
30774179,10020,0.836670,0.337769,0.081421,511
30784175,9996,0.839966,0.342896,0.090332,509
30794191,10016,0.845581,0.338867,0.105713,501
30804181,9990,0.854980,0.340820,0.107300,495
30814182,10001,0.870239,0.343628,0.111328,502
30824166,9984,0.885498,0.343628,0.125610,493
30834180,10014,0.892212,0.341797,0.135010,493
30844163,9983,0.897827,0.348389,0.124634,489
30858230,14067,0.895386,0.334717,0.151489,480
30864178,5948,0.896118,0.307129,0.207153,481
30874174,9996,0.896729,0.280640,0.261719,486
30884171,9997,0.899536,0.261230,0.295410,484
30894160,9989,0.903687,0.270630,0.309204,489
30904187,10027,0.929321,0.366333,0.323975,491
30914179,9992,0.943237,0.423462,0.321167,490
30924214,10035,0.956787,0.473022,0.305542,501
30934177,9963,0.971191,0.512695,0.289673,508
30944173,9996,0.985596,0.547729,0.276001,516
30954162,9989,0.997803,0.575073,0.270508,519
30964160,9998,1.012573,0.583374,0.267578,534
30974172,10012,1.003662,0.557983,0.265259,537
30984159,9987,0.985962,0.520874,0.258667,549
30994162,10003,0.955200,0.484131,0.251221,556
31004178,10016,0.913940,0.455566,0.241943,550
31014173,9995,0.820190,0.420410,0.220947,551
31024168,9995,0.778931,0.403198,0.215942,558
31034188,10020,0.749756,0.390381,0.208496,554
31044172,9984,0.736938,0.380127,0.194946,548
31054165,9993,0.741577,0.375244,0.181763,539
31064180,10015,0.760010,0.375488,0.154175,527
31074182,10002,0.824341,0.393555,0.145508,510
31084177,9995,0.859497,0.409302,0.134766,490
31094184,10007,0.896484,0.423218,0.120483,479
31104172,9988,0.931519,0.432861,0.113647,464
31114178,10006,0.966797,0.435059,0.111938,444
31126404,12226,1.024536,0.429077,0.105103,441
31134172,7768,1.041138,0.421631,0.102661,435
31144177,10005,1.047485,0.411499,0.102905,434
31159357,15180,1.034180,0.393555,0.113770,435
31166749,7392,1.021973,0.387939,0.114258,442
31174188,7439,0.000000,0.000000,0.000000,445
31184176,9988,0.987793,0.387695,0.128540,447
31194183,10007,0.964233,0.389160,0.136841,465
31204176,9993,0.935181,0.393188,0.141846,476
31214166,9990,0.905640,0.398315,0.145142,485
31224169,10003,0.875000,0.400024,0.151489,495
31238988,14819,0.815308,0.390747,0.168945,497
31250249,11261,0.788574,0.382324,0.182251,507
31255752,5503,0.000000,0.000000,0.000000,505
31264169,8417,0.750488,0.373901,0.183838,507
31274184,10015,0.739502,0.376587,0.181519,506
31284173,9989,0.734619,0.401489,0.172241,500
31294182,10009,0.748413,0.414307,0.168335,494
31304178,9996,0.766846,0.417847,0.169189,486
31314167,9989,0.786987,0.416504,0.168457,475
31324179,10012,0.804687,0.414673,0.169067,462
31334184,10005,0.819214,0.415039,0.171143,462
31344185,10001,0.839233,0.422241,0.170898,457
31354173,9988,0.847900,0.424438,0.175293,451
31364193,10020,0.852295,0.425293,0.179077,448
31374177,9984,0.854980,0.425903,0.182739,447
31384184,10007,0.854980,0.431030,0.182983,448
31394164,9980,0.860474,0.451538,0.181519,448
31404161,9997,0.864014,0.463135,0.180420,458
31414188,10027,0.868896,0.470825,0.178711,456
31424169,9981,0.874878,0.472290,0.175293,471
31436835,12666,0.886230,0.469849,0.171753,484
31447406,10571,0.896362,0.472290,0.168091,484
31454180,6774,0.908936,0.478882,0.157349,495
31465768,11588,0.930908,0.486572,0.145508,503
31474187,8419,0.965088,0.491943,0.133179,514
31484168,9981,1.003418,0.494995,0.125244,526
31494174,10006,1.037842,0.489380,0.125854,530
31504176,10002,1.025879,0.446655,0.158936,544
31514177,10001,0.970093,0.414185,0.174561,546
31524163,9986,0.889038,0.390381,0.190552,564
31534162,9999,0.810791,0.375366,0.202148,568
31544170,10008,0.742432,0.367432,0.202881,572
31554170,10000,0.696533,0.362549,0.193481,575
31564167,9997,0.705566,0.368164,0.162354,567
31574167,10000,0.763550,0.379517,0.145752,561
31584166,9999,0.839355,0.394531,0.138428,560
31594164,9998,0.920044,0.411133,0.137451,544
31604179,10015,0.995850,0.425903,0.138794,543
31614168,9989,1.114014,0.433838,0.146362,528
31624160,9992,1.143066,0.429687,0.142334,530
31634161,10001,1.147217,0.425537,0.137451,520
31644189,10028,1.131104,0.419189,0.131714,528
31654174,9985,1.103760,0.413574,0.133789,523
31664187,10013,1.079834,0.401611,0.134644,529
31674161,9974,1.028687,0.361816,0.130249,541
31684165,10004,0.999268,0.344482,0.128296,540
31694174,10009,0.964600,0.332397,0.126709,542
31704182,10008,0.926636,0.325195,0.129395,543
31714178,9996,0.887573,0.318848,0.132324,546
31724186,10008,0.814087,0.311401,0.134277,545
31734179,9993,0.782959,0.310669,0.133057,540
31744165,9986,0.759399,0.312500,0.130737,536
31754159,9994,0.742676,0.314209,0.133789,528
31764179,10020,0.736206,0.312500,0.142212,521
31774198,10019,0.740356,0.310913,0.139526,506
31784160,9962,0.737915,0.321045,0.130127,506
31794163,10003,0.737549,0.334839,0.120239,500
31804161,9998,0.744263,0.356934,0.113037,493
31814174,10013,0.756958,0.375610,0.104248,479
31824170,9996,0.776001,0.393188,0.096191,486
31834172,10002,0.816772,0.415039,0.099365,482
31844165,9993,0.819092,0.401855,0.127686,479
31854185,10020,0.816528,0.377808,0.159790,475
31864184,9999,0.818237,0.362183,0.187744,476
31874168,9984,0.823242,0.367065,0.202148,476
31884169,10001,0.831055,0.382324,0.198242,481
31894186,10017,0.860596,0.407104,0.192871,471
31904164,9978,0.876221,0.411377,0.188354,478
31914178,10014,0.898560,0.416504,0.185303,478
31924179,10001,0.920898,0.425293,0.184692,471
31934175,9996,0.942017,0.432373,0.189209,482
31944180,10005,0.970093,0.430908,0.197144,478
31955736,11556,0.976440,0.426880,0.191284,483
31964159,8423,0.980103,0.425537,0.180298,490
31974182,10023,0.994019,0.429932,0.163330,495
31984168,9986,1.016602,0.439453,0.143555,503
31994179,10011,1.054932,0.460083,0.110352,515
32004184,10005,1.118652,0.467529,0.098511,523
32014168,9984,1.134277,0.473633,0.084351,530
32024188,10020,1.137451,0.469727,0.077148,526
32034160,9972,1.119019,0.452393,0.077026,530
32044176,10016,1.067261,0.426880,0.083008,539
32054184,10008,0.908569,0.361938,0.096069,541
32064164,9980,0.825073,0.334351,0.091797,545
32074176,10012,0.759399,0.315918,0.082886,541
32084164,9988,0.723999,0.305786,0.075684,531
32094159,9995,0.716797,0.309937,0.070557,533
32104187,10028,0.762695,0.343994,0.084839,522
32114168,9981,0.769775,0.370361,0.104614,514
32124171,10003,0.774048,0.396484,0.130981,495
32134165,9994,0.782227,0.415283,0.147583,494
32144182,10017,0.796509,0.429199,0.147217,482
32154159,9977,0.824463,0.439453,0.141113,463
32164173,10014,0.906616,0.442139,0.134521,459
32174184,10011,0.948486,0.437622,0.135010,460
32184188,10004,0.985596,0.436890,0.135742,455
32194174,9986,1.013794,0.444458,0.137207,456
32204159,9985,1.034668,0.458252,0.135742,457
32214183,10024,1.047485,0.485840,0.133179,463
32224164,9981,1.053467,0.492065,0.135010,472
32234194,10030,1.047241,0.491211,0.138916,484
32244179,9985,1.029663,0.484009,0.144409,494
32254162,9983,1.002441,0.469727,0.150269,498
32264181,10019,0.963989,0.457275,0.156372,513
32274188,10007,0.864258,0.425171,0.167236,522
32284186,9998,0.814453,0.411621,0.176270,526
32294176,9990,0.773560,0.402222,0.182251,533
32304188,10012,0.742065,0.393921,0.188965,534
32314159,9971,0.722778,0.388428,0.195435,536
32324203,10044,0.718018,0.396606,0.200073,534
32334163,9960,0.729370,0.406250,0.195801,529
32344171,10008,0.743286,0.419678,0.191284,521
32354187,10016,0.760254,0.432861,0.187012,509
32368310,14123,0.801636,0.458496,0.176392,500
32374184,5874,0.000000,0.000000,0.000000,493
32384161,9977,0.864868,0.461914,0.171631,485
32394161,10000,0.893433,0.449829,0.170166,474
32404161,10000,0.914795,0.437744,0.170654,468
32414189,10028,0.927979,0.427856,0.168091,468
32424182,9993,0.935791,0.423462,0.166748,464
32434163,9981,0.938721,0.420532,0.170166,462
32444159,9996,0.935669,0.421997,0.170410,472
32454180,10021,0.930664,0.423340,0.169678,477
32464170,9990,0.927368,0.424438,0.169800,477
32474767,10597,0.930298,0.425293,0.170166,484
32484197,9430,0.938477,0.423096,0.171631,505
32494178,9981,0.956543,0.419922,0.180054,505
32504161,9983,0.968994,0.424072,0.182251,512
32514173,10012,0.983032,0.434448,0.183472,519
32524185,10012,0.999756,0.447388,0.180786,526
32534181,9996,1.003174,0.454590,0.179932,533
32544169,9988,0.972656,0.441895,0.180054,539
32554166,9997,0.939697,0.429810,0.180176,544
32564168,10002,0.903320,0.418091,0.175415,547
32579906,15738,0.827393,0.392578,0.165527,554
32585443,5537,0.000000,0.000000,0.000000,553
32594184,8741,0.792969,0.379761,0.162964,546
32604180,9996,0.748657,0.368042,0.145996,544
32614162,9982,0.751465,0.369141,0.137695,546
32624161,9999,0.776245,0.375000,0.126953,541
32634177,10016,0.816650,0.385620,0.120117,534
32644184,10007,0.859863,0.396240,0.117920,523
32654189,10005,0.941406,0.395020,0.117188,513
32668862,14673,0.972900,0.400269,0.116211,498
32675479,6617,0.983765,0.408325,0.104980,496
32684167,8688,0.999390,0.421631,0.108765,483
32694169,10002,1.004761,0.438599,0.106812,481
32704175,10006,1.001709,0.447144,0.101563,490
32714188,10013,0.980469,0.440063,0.089966,495
32724197,10009,0.971802,0.431274,0.085449,502
32734161,9964,0.956909,0.428101,0.083374,512
32744171,10010,0.939331,0.420288,0.083618,521
32754166,9995,0.921387,0.416382,0.084717,524
32764168,10002,0.881714,0.387817,0.093018,533
32774171,10003,0.859985,0.371216,0.096069,535
32784168,9997,0.837158,0.357666,0.102173,542
32794165,9997,0.811401,0.350098,0.107178,542
32804178,10013,0.787842,0.350830,0.111938,534
32814194,10016,0.764893,0.358521,0.115479,539
32824179,9985,0.738770,0.378174,0.116699,534
32834172,9993,0.732178,0.378296,0.118896,522
32844182,10010,0.728149,0.381836,0.116577,523
32854162,9980,0.732544,0.384277,0.114136,515
32864177,10015,0.738770,0.387817,0.112183,507
32874169,9992,0.762817,0.388672,0.107544,502
32884185,10016,0.778809,0.389282,0.106323,494
32894173,9988,0.795410,0.389038,0.102417,484
32904184,10011,0.812866,0.386108,0.098022,483
32914168,9984,0.828125,0.381348,0.091431,478
32924184,10016,0.842651,0.380005,0.084595,476
32934160,9976,0.861450,0.380005,0.069092,478
32944173,10013,0.868408,0.381226,0.061646,472
32954175,10002,0.878296,0.380371,0.053711,479
32964195,10020,0.886841,0.379517,0.044800,482
32974184,9989,0.900513,0.380493,0.035156,488
32984176,9992,0.952515,0.383911,0.037354,492
32994178,10002,0.981201,0.384766,0.040894,498
33004185,10007,1.001465,0.383667,0.042603,494
33014177,9992,1.020020,0.383911,0.039795,505
33024180,10003,1.030762,0.386841,0.035400,502
33034173,9993,1.032471,0.388794,0.033813,514
33044161,9988,0.994385,0.383301,0.063110,518
33054175,10014,0.963745,0.373169,0.083130,512
33064202,10027,0.925537,0.362549,0.097168,522
33074185,9983,0.881470,0.354858,0.107300,523
33084179,9994,0.832153,0.355347,0.118774,523
33094168,9989,0.756714,0.364868,0.140747,521
33104185,10017,0.749512,0.374390,0.145020,518
33114179,9994,0.765015,0.388916,0.150635,515
33124171,9992,0.803345,0.405518,0.158813,510
33134159,9988,0.855713,0.426392,0.169922,495
33144176,10017,0.915527,0.449463,0.179443,487
33154177,10001,1.032837,0.478149,0.186157,486
33164161,9984,1.074585,0.487305,0.184937,478
33174160,9999,1.095703,0.493042,0.180786,475
33184186,10026,1.100708,0.497925,0.172729,475
33194536,10350,1.093872,0.501831,0.164429,473
33204161,9625,1.068115,0.506226,0.147339,485
33214188,10027,1.058472,0.505005,0.143311,494
33224181,9993,1.048096,0.501587,0.145264,499
33234172,9991,1.032104,0.495728,0.150391,505
33244179,10007,1.010376,0.489258,0.156860,511
33254166,9987,0.987427,0.484131,0.165161,515
33264164,9998,0.918457,0.470703,0.177368,521
33274178,10014,0.880859,0.461304,0.184082,526
33284184,10006,0.844971,0.451172,0.188721,519
33294180,9996,0.810059,0.444458,0.190308,521
33304198,10018,0.779175,0.438721,0.186279,532
33314171,9973,0.751953,0.427979,0.178589,531
33324168,9997,0.757568,0.419678,0.172607,529
33334177,10009,0.770630,0.411499,0.169678,525
33344177,10000,0.781860,0.405151,0.166138,522
33354164,9987,0.804321,0.400879,0.163086,508
33364177,10013,0.808228,0.404175,0.161743,505
33374179,10002,0.830322,0.388794,0.162476,500
33384164,9985,0.841675,0.388184,0.164429,491
33394176,10012,0.836060,0.393188,0.163330,493
33404176,10000,0.826904,0.401611,0.164551,495
33414181,10005,0.826904,0.413940,0.165649,485
33424185,10004,0.843018,0.437622,0.159912,494
33434172,9987,0.855835,0.445801,0.159302,496
33444184,10012,0.868286,0.458862,0.158447,502
33454194,10010,0.875244,0.470215,0.157471,512
33464184,9990,0.880371,0.477417,0.151855,501
33474184,10000,0.885742,0.482178,0.135620,516
33484180,9996,0.896362,0.491455,0.135010,515
33494171,9991,0.899170,0.485474,0.137817,526
33504186,10015,0.897949,0.477417,0.134888,530
33514183,9997,0.890503,0.468384,0.130493,523
33524180,9997,0.877563,0.458618,0.128784,531
33534168,9988,0.874756,0.443726,0.131592,532
33544171,10003,0.909302,0.447632,0.128906,538
33554203,10032,0.948608,0.450928,0.130859,537
33564168,9965,0.976196,0.445190,0.135986,533
33574188,10020,0.995850,0.437378,0.144775,526
33584164,9976,1.001465,0.428101,0.153198,523
33594163,9999,0.964111,0.390869,0.154663,530
33604171,10008,0.923340,0.369873,0.152710,530
33614189,10018,0.884888,0.353516,0.147827,524
33624187,9998,0.846191,0.343994,0.139038,528
33634170,9983,0.819824,0.336914,0.129639,531
33644160,9990,0.812256,0.331543,0.118164,528
33654181,10021,0.830688,0.336792,0.113403,529
33664171,9990,0.857056,0.345337,0.106323,518
33674184,10013,0.889160,0.353149,0.101563,524
33684164,9980,0.929199,0.360718,0.097046,522
33694169,10005,0.973999,0.372314,0.090210,517
33704212,10043,1.053955,0.376343,0.085205,506
33714159,9947,1.076782,0.377563,0.082520,510
33724160,10001,1.089600,0.377686,0.081665,502
33734174,10014,1.090332,0.377319,0.080566,512
33744179,10005,1.086060,0.376221,0.076904,516
33754179,10000,1.065186,0.363892,0.067749,516
33764182,10003,1.052490,0.354370,0.064697,525
33774171,9989,1.038452,0.342896,0.062134,532
33784166,9995,1.026611,0.333130,0.063110,534
33800421,16255,0.997192,0.321045,0.056396,538
33805587,5166,0.974243,0.317627,0.053345,540
33814173,8586,0.951538,0.315552,0.055664,542
33824178,10005,0.927246,0.309326,0.057007,533
33834178,10000,0.904175,0.302002,0.060791,542
33844170,9992,0.882812,0.291748,0.066406,541
33854178,10008,0.864258,0.285034,0.069336,536
33864163,9985,0.833496,0.277832,0.075684,532
33874160,9997,0.824097,0.277100,0.080078,522
33884174,10014,0.821167,0.279541,0.085205,521
33894160,9986,0.821777,0.281982,0.088623,518
33904185,10025,0.821777,0.285645,0.090942,509
33914163,9978,0.822266,0.296875,0.090332,505
33924173,10010,0.831543,0.303467,0.088867,498
33934159,9986,0.840332,0.307983,0.087036,492
33944190,10031,0.851929,0.311157,0.085083,488
33954179,9989,0.863403,0.316040,0.084106,477
33964186,10007,0.871460,0.323853,0.078247,480
33974166,9980,0.884033,0.331909,0.071777,477
33984179,10013,0.893555,0.328491,0.072144,471
33994165,9986,0.905273,0.322266,0.070557,470
34004162,9997,0.918335,0.315796,0.070190,468
34014186,10024,0.923950,0.316284,0.066895,478
34024173,9987,0.919556,0.327515,0.063232,481
34034178,10005,0.910522,0.333496,0.068726,483
34044170,9992,0.903442,0.339966,0.073975,481
34054178,10008,0.899658,0.348267,0.075195,492
34064173,9995,0.895264,0.358154,0.076538,492
34074181,10008,0.894043,0.364380,0.079224,500
34084177,9996,0.914429,0.362427,0.092041,496
34094174,9997,0.940796,0.365356,0.091797,499
34104160,9986,0.959106,0.375854,0.088257,505
34114163,10003,0.964722,0.391724,0.090942,506
34124166,10003,0.966919,0.412109,0.108154,511
34134178,10012,0.933105,0.448242,0.127319,513
34144186,10008,0.895508,0.447998,0.118896,520
34154168,9982,0.852417,0.448608,0.111816,522
34164173,10005,0.804565,0.449463,0.115112,524
34174172,9999,0.771851,0.441895,0.126709,532
34184199,10027,0.754883,0.419678,0.143066,528
34194160,9961,0.775391,0.360962,0.161133,531
34204181,10021,0.804565,0.349976,0.158325,528
34214162,9981,0.840332,0.358154,0.143311,519
34224188,10026,0.873047,0.378296,0.118652,511
34234186,9998,0.898315,0.398804,0.116089,500
34244188,10002,1.001831,0.397339,0.137695,487
34254168,9980,1.056641,0.377930,0.157104,480
34264177,10009,1.101196,0.364746,0.172607,482
34274161,9984,1.126221,0.375488,0.174805,474
34284188,10027,1.122559,0.414185,0.170532,481
34294180,9992,1.104004,0.478271,0.165283,485
34304165,9985,1.047607,0.569580,0.165283,490
34314168,10003,1.016968,0.600342,0.173340,491
34324163,9995,0.984497,0.624512,0.181641,506
34334175,10012,0.942871,0.635986,0.192383,511
34344183,10008,0.898071,0.633179,0.197388,520
34354181,9998,0.815918,0.597900,0.202759,517
34364173,9992,0.789795,0.580811,0.192017,536
34374159,9986,0.767944,0.564575,0.177368,539
