t_us,dt_us,ax,ay,az,ppg
7312534,10023,0.912964,0.277710,0.346313,519
7322528,9994,0.918945,0.271118,0.349243,518
7332517,9989,0.922974,0.267212,0.348145,515
7342531,10014,0.924316,0.268188,0.343872,522
7352527,9996,0.926025,0.268311,0.336670,523
7362531,10004,0.926392,0.265381,0.322388,522
7372523,9992,0.929687,0.264526,0.317383,523
7382525,10002,0.931152,0.262939,0.313965,528
7392524,9999,0.930298,0.261841,0.309326,529
7402536,10012,0.932617,0.260864,0.303833,529
7412534,9998,0.938599,0.258545,0.297119,531
7422530,9996,0.943604,0.255249,0.295410,533
7432534,10004,0.947510,0.255371,0.288818,530
7442557,10023,0.955566,0.256470,0.278564,522
7452547,9990,0.965576,0.260376,0.269653,528
7462528,9981,0.975952,0.261719,0.266235,526
7472539,10011,0.995850,0.256226,0.289795,524
7482528,9989,1.031128,0.258179,0.293457,524
7492539,10011,1.092651,0.256226,0.283569,522
7502531,9992,1.189819,0.251953,0.279541,520
7512513,9982,1.286499,0.226929,0.289185,520
7522534,10021,1.342529,0.217407,0.312256,514
7532514,9980,1.334595,0.245239,0.316650,521
7542533,10019,1.265747,0.245361,0.325195,517
7552527,9994,1.180908,0.270142,0.324341,524
7562540,10013,1.109131,0.291992,0.312012,530
7572513,9973,1.045776,0.300781,0.297974,530
7582520,10007,0.955933,0.302368,0.272583,530
7592526,10006,0.926392,0.279419,0.266357,529
7602537,10011,0.909912,0.258179,0.260620,532
7612514,9977,0.911255,0.256714,0.255127,528
7622540,10026,0.921509,0.252075,0.250854,526
7632520,9980,0.936890,0.256104,0.240723,523
7642535,10015,0.973511,0.243164,0.237793,518
7652566,10031,0.983887,0.221802,0.231812,515
7662522,9956,1.032959,0.209961,0.203247,515
7672534,10012,1.031738,0.231323,0.218750,511
7682537,10003,1.053345,0.260132,0.218018,506
7692513,9976,1.041016,0.262329,0.242187,510
7702511,9998,1.024170,0.269043,0.235596,508
7712516,10005,1.004028,0.276367,0.234131,509
7722539,10023,0.971191,0.263306,0.235352,511
7732521,9982,0.938599,0.246338,0.227661,509
7742534,10013,0.904785,0.235718,0.213013,515
7752514,9980,0.855347,0.233643,0.197144,519
7762540,10026,0.833496,0.235107,0.196045,522
7772540,10000,0.812012,0.235962,0.195435,518
7782530,9990,0.795532,0.238037,0.193726,521
7792524,9994,0.782471,0.235962,0.191772,518
7802532,10008,0.765259,0.224365,0.185547,516
7812514,9982,0.763062,0.221313,0.181152,516
7824825,12311,0.762085,0.209473,0.177490,512
7832518,7693,0.762329,0.200439,0.174561,508
7842533,10015,0.762573,0.196655,0.173828,506
7852524,9991,0.766113,0.199829,0.170898,503
7862513,9989,0.769409,0.212646,0.172852,498
7872549,10036,0.770142,0.212524,0.170898,489
7882536,9987,0.770142,0.216553,0.167969,491
7892522,9986,0.771118,0.224487,0.164429,482
7902523,10001,0.771729,0.226685,0.162720,486
7912516,9993,0.775757,0.236328,0.158936,479
7922513,9997,0.777954,0.247559,0.157593,480
7932513,10000,0.778320,0.259644,0.151733,486
7942517,10004,0.781982,0.254639,0.150146,483
7952516,9999,0.786621,0.249756,0.151978,488
7962536,10020,0.791748,0.273438,0.146484,487
7972520,9984,0.807861,0.268311,0.150146,477
7982539,10019,0.813232,0.252441,0.154541,485
7992525,9986,0.822510,0.255737,0.162354,492
8002526,10001,0.837280,0.269409,0.180176,494
8012525,9999,0.840820,0.267944,0.195923,489
8022520,9995,0.862427,0.278809,0.202637,498
8032539,10019,0.877075,0.298828,0.200317,497
8042527,9988,0.886108,0.316040,0.201416,507
8052512,9985,0.901611,0.326538,0.204590,505
8062536,10024,0.930542,0.338135,0.208618,516
8072522,9986,1.045166,0.365112,0.212646,514
8082514,9992,1.114136,0.389160,0.225708,510
8092531,10017,1.173462,0.406006,0.245850,518
8102531,10000,1.207886,0.402100,0.278442,518
8112529,9998,1.226807,0.421021,0.301392,519
8122511,9982,1.222412,0.440063,0.321533,518
8132535,10024,1.118164,0.437256,0.358887,518
8142512,9977,1.048584,0.445557,0.373901,522
8152540,10028,0.993530,0.456543,0.383179,524
8162513,9973,0.943726,0.470581,0.391235,525
8172535,10022,0.904541,0.485840,0.395142,526
8182533,9998,0.862061,0.488037,0.392944,527
8192535,10002,0.854370,0.476562,0.388184,525
8202526,9991,0.848755,0.458984,0.379761,517
8212525,9999,0.855713,0.440308,0.377808,517
8222526,10001,0.878906,0.426270,0.391357,513
8232534,10008,0.922607,0.417847,0.402832,506
8242521,9987,1.040527,0.420654,0.430542,507
8252513,9992,1.083252,0.421021,0.451538,499
8262514,10001,1.100586,0.432617,0.463013,495
8272516,10002,1.090576,0.444702,0.461182,504
8282530,10014,1.055908,0.455811,0.449951,504
8292518,9988,0.984009,0.489136,0.415161,509
8302524,10006,0.936523,0.499634,0.408447,508
8312538,10014,0.908325,0.502075,0.400146,513
8322512,9974,0.885010,0.491943,0.390381,515
8332516,10004,0.861694,0.462769,0.380859,513
8342518,10002,0.843628,0.430298,0.377197,513
8352511,9993,0.836670,0.412476,0.369629,514
8362519,10008,0.829224,0.396973,0.365845,510
8372539,10020,0.821045,0.390259,0.359497,507
8382523,9984,0.819824,0.390015,0.346680,508
8392521,9998,0.825195,0.379517,0.333740,504
8402520,9999,0.835693,0.371948,0.320557,502
8412516,9996,0.842041,0.377075,0.320679,505
8422523,10007,0.849121,0.384521,0.316040,503
8432524,10001,0.859497,0.393921,0.314697,500
8442521,9997,0.868408,0.401367,0.313477,506
8452531,10010,0.879639,0.401367,0.312134,505
8462517,9986,0.889648,0.391724,0.312378,508
8472532,10015,0.896484,0.380615,0.319336,512
8482524,9992,0.890259,0.374512,0.331787,509
8492512,9988,0.880127,0.380249,0.339478,520
8502529,10017,0.877563,0.387329,0.333374,523
8512524,9995,0.883423,0.381470,0.316162,527
8522530,10006,0.894531,0.366943,0.312744,528
8532537,10007,0.909546,0.356201,0.314087,529
8542550,10013,0.926514,0.351440,0.313232,532
8552534,9984,0.942383,0.352417,0.307861,534
8562525,9991,0.951904,0.352295,0.302490,531
8572511,9986,0.948486,0.348877,0.307251,532
8582539,10028,0.943359,0.351807,0.312134,532
8592524,9985,0.946411,0.351440,0.306030,529
8602534,10010,0.948364,0.350342,0.301636,532
8612512,9978,0.954102,0.336548,0.299561,532
8622528,10016,0.983887,0.313232,0.294312,529
8632530,10002,0.998169,0.318848,0.309814,526
8642526,9996,1.008423,0.330566,0.342407,526
8652525,9999,1.000610,0.327637,0.350098,524
8662516,9991,0.983643,0.334717,0.315308,527
8672515,9999,0.983276,0.349365,0.265869,525
8682530,10015,1.119995,0.254639,0.313843,525
8692540,10010,1.238403,0.222900,0.380005,526
8702515,9975,1.337646,0.227783,0.421631,523
8712516,10001,1.384033,0.246460,0.444702,524
8722535,10019,1.366455,0.281616,0.451782,537
8732524,9989,1.177124,0.327026,0.409424,542
8742539,10015,1.062134,0.332642,0.380249,547
8752523,9984,0.976196,0.351685,0.348267,547
8762537,10014,0.915405,0.368286,0.326660,552
8772516,9979,0.884644,0.371704,0.307739,547
8782520,10004,0.884399,0.356567,0.300903,546
8792511,9991,0.908447,0.283936,0.311035,540
8802534,10023,0.936279,0.245972,0.298462,533
8812538,10004,0.959595,0.189819,0.277222,522
8822536,9998,0.991699,0.207397,0.243286,512
8832522,9986,1.022583,0.232422,0.246094,504
8842539,10017,1.051025,0.194946,0.232422,491
8852526,9987,1.082764,0.209961,0.224487,490
8862533,10007,1.101807,0.219971,0.222046,492
8872533,10000,1.099487,0.225952,0.218262,490
8882517,9984,1.081543,0.230591,0.213989,492
8892537,10020,1.043701,0.230103,0.193726,496
8902515,9978,0.959229,0.224243,0.181274,498
8912537,10022,0.913574,0.220459,0.170654,505
8922517,9980,0.867065,0.212524,0.160156,512
8932537,10020,0.823364,0.206787,0.152344,516
8942518,9981,0.785767,0.200195,0.144653,518
8952535,10017,0.725952,0.193481,0.144897,514
8962524,9989,0.708374,0.201172,0.139038,517
8972516,9992,0.692749,0.193970,0.137817,518
8982548,10032,0.687500,0.202271,0.131958,516
8992557,10009,0.685547,0.206055,0.124634,506
9002511,9954,0.678711,0.205811,0.120972,504
9012530,10019,0.693115,0.200073,0.119873,495
9022529,9999,0.707275,0.197510,0.130859,497
9032529,10000,0.721924,0.203125,0.137695,488
9042526,9997,0.735352,0.208496,0.139526,477
9052541,10015,0.747803,0.211182,0.141113,482
9062534,9993,0.771851,0.214478,0.141357,478
9072519,9985,0.781982,0.225708,0.146240,472
9082527,10008,0.792358,0.256836,0.154419,479
9092519,9992,0.801758,0.291870,0.160278,482
9102527,10008,0.808960,0.314453,0.163818,482
9112514,9987,0.841064,0.345825,0.163330,483
9122525,10011,0.821289,0.356079,0.161865,486
9132519,9994,0.838745,0.363647,0.155762,486
9142516,9997,0.840820,0.352905,0.160889,491
9152514,9998,0.851562,0.358521,0.171631,491
9162538,10024,0.869141,0.371094,0.181152,496
9172534,9996,0.883545,0.365723,0.189209,500
9182525,9991,0.893677,0.367310,0.192749,509
9192518,9993,0.908936,0.374390,0.200806,512
9202534,10016,0.914795,0.377441,0.209595,509
9212521,9987,0.922852,0.374146,0.219727,511
9222513,9992,0.966064,0.373291,0.232422,518
9232541,10028,0.990601,0.389404,0.232666,513
9242539,9998,1.030640,0.410522,0.222534,523
9252513,9974,1.084473,0.406372,0.222290,525
9262528,10015,1.138062,0.404907,0.234863,528
9272512,9984,1.181274,0.420410,0.255493,532
9282516,10004,1.177490,0.447876,0.302002,530
9292525,10009,1.136108,0.449585,0.325195,528
9302540,10015,1.074951,0.451782,0.339966,528
9312531,9991,0.998169,0.450317,0.353271,531
9322521,9990,0.931152,0.449219,0.359619,533
9332516,9995,0.842896,0.447876,0.363892,530
9342516,10000,0.834473,0.443604,0.368286,529
9352517,10001,0.833618,0.437866,0.374512,528
9362531,10014,0.838867,0.425415,0.380615,522
9372527,9996,0.850586,0.414307,0.385132,520
9382512,9985,0.873169,0.412354,0.387451,517
9392532,10020,0.935669,0.409790,0.394287,506
9402536,10004,0.969727,0.415649,0.404419,509
9412516,9980,1.002686,0.425049,0.411011,501
9422529,10013,1.036743,0.432251,0.418701,505
9432526,9997,1.066040,0.427856,0.423096,505
9442512,9986,1.084351,0.441650,0.425659,502
9452531,10019,1.063477,0.452026,0.418701,506
9462534,10003,1.035156,0.456543,0.408203,505
9472534,10000,1.005249,0.458008,0.392944,504
9482529,9995,0.981689,0.455078,0.379517,509
9492514,9985,0.961914,0.446899,0.372803,506
9502522,10008,0.922363,0.370483,0.376099,506
9512538,10016,0.906982,0.345825,0.375488,513
9522527,9989,0.894409,0.321411,0.375244,499
9532519,9992,0.883789,0.296997,0.376099,512
9542518,9999,0.871704,0.286011,0.373291,514
9552521,10003,0.858765,0.316284,0.355103,513
9562534,10013,0.858643,0.338623,0.346069,509
9572538,10004,0.862549,0.352783,0.343140,514
9582522,9984,0.873779,0.367676,0.341919,512
9592521,9999,0.888916,0.377319,0.342407,511
9602511,9990,0.904297,0.378662,0.340454,512
9612523,10012,0.923462,0.367065,0.338867,509
9622537,10014,0.923218,0.359985,0.335938,512
9632535,9998,0.915405,0.351440,0.336426,518
9642528,9993,0.904175,0.348999,0.339233,513
9652536,10008,0.885864,0.343750,0.343628,520
9662517,9981,0.865479,0.334839,0.344116,524
9672531,10014,0.858398,0.330811,0.339355,524
9682549,10018,0.860962,0.324219,0.334229,519
9692512,9963,0.869873,0.318237,0.330444,528
9702518,10006,0.880615,0.310669,0.329712,522
9712524,10006,0.892944,0.304688,0.330200,528
9722537,10013,0.910645,0.300903,0.327271,528
9732540,10003,0.914551,0.299072,0.323975,529
9742526,9986,0.911865,0.300415,0.321777,528
9752539,10013,0.908447,0.303955,0.318115,529
9762515,9976,0.904907,0.303833,0.312500,521
9772519,10004,0.902710,0.301392,0.306763,528
9782517,9998,0.902344,0.294189,0.305298,525
9792530,10013,0.903809,0.286621,0.300903,522
9802518,9988,0.909668,0.283569,0.296143,524
9812534,10016,0.921997,0.288574,0.292114,520
9822516,9982,0.939453,0.296631,0.252563,522
9832513,9997,0.987549,0.308960,0.269409,522
9842528,10015,1.021973,0.310303,0.257813,525
9852514,9986,1.075073,0.304443,0.247070,521
9862515,10001,1.140137,0.293213,0.242798,525
9872511,9996,1.201050,0.283325,0.243164,527
9882514,10003,1.267090,0.267578,0.251587,526
9892537,10023,1.259888,0.267700,0.251343,522
9902564,10027,1.223755,0.270264,0.251343,529
9912530,9966,1.168823,0.277344,0.244141,529
9922539,10009,1.111206,0.286621,0.225098,537
9932526,9987,1.050903,0.295410,0.186401,532
9942526,10000,0.996582,0.298828,0.173096,538
9952511,9985,0.991577,0.278809,0.169678,538
9962526,10015,1.001709,0.257813,0.171265,536
9972532,10006,1.014771,0.257324,0.166382,530
9982513,9981,1.028687,0.247925,0.164673,526
9992524,10011,1.038086,0.217041,0.177734,523
10002540,10016,1.038574,0.208374,0.225464,521
10012519,9979,1.040771,0.167847,0.215576,515
10022525,10006,1.033691,0.190918,0.231689,516
10032528,10003,1.040283,0.244263,0.239990,507
10042534,10006,1.041260,0.248047,0.198242,510
10052512,9978,1.029175,0.233765,0.175903,512
10062531,10019,1.019653,0.255737,0.171509,513
10072535,10004,1.001099,0.263794,0.181519,512
10082519,9984,0.985596,0.253052,0.197632,508
10092534,10015,0.966919,0.233276,0.212769,512
10102539,10005,0.914307,0.208008,0.225464,510
10112515,9976,0.884644,0.208130,0.225586,511
10122563,10048,0.856323,0.210693,0.230713,506
10132537,9974,0.821289,0.213745,0.234619,511
10142537,10000,0.791504,0.217773,0.227295,515
10152524,9987,0.765869,0.225342,0.207520,517
10162530,10006,0.719482,0.230957,0.205444,519
10172512,9982,0.712402,0.225098,0.206543,515
10182528,10016,0.713013,0.215454,0.210937,520
10192527,9999,0.715210,0.208130,0.215454,520
10202515,9988,0.723755,0.203857,0.218872,518
10212525,10010,0.740234,0.196533,0.225098,515
10222535,10010,0.750732,0.197144,0.223877,512
10232540,10005,0.759644,0.202026,0.224243,510
10242537,9997,0.766235,0.211548,0.220459,499
10252528,9991,0.773315,0.225098,0.216187,499
10262535,10007,0.789673,0.247314,0.208618,493
10272528,9993,0.801392,0.254028,0.207397,490
10282541,10013,0.811890,0.271240,0.204346,482
10292526,9985,0.819824,0.273071,0.205444,484
10302532,10006,0.827637,0.276123,0.204590,481
10312525,9993,0.829590,0.281738,0.200317,476
10322512,9987,0.835327,0.295166,0.184082,479
10332516,10004,0.844482,0.305786,0.185669,471
10342532,10016,0.851196,0.319458,0.186035,480
10352512,9980,0.852173,0.327393,0.181763,483
10362527,10015,0.859253,0.325562,0.184448,487
10372553,10026,0.872070,0.351074,0.188843,481
10382532,9979,0.875000,0.352173,0.193115,493
10392525,9993,0.879395,0.346802,0.197388,492
10402511,9986,0.883667,0.339966,0.199463,493
10412527,10016,0.891724,0.331543,0.199951,502
10422535,10008,0.903564,0.319092,0.204224,504
10432518,9983,0.937378,0.303589,0.206421,512
10442536,10018,0.964600,0.336670,0.197754,510
10452528,9992,1.006958,0.380981,0.195679,517
10462517,9989,1.087402,0.418823,0.198608,523
10472512,9995,1.180542,0.450195,0.233887,524
10482528,10016,1.286865,0.505249,0.303345,525
10492512,9984,1.284424,0.506104,0.307861,525
10502537,10025,1.232910,0.494263,0.306152,529
10512531,9994,1.161743,0.494507,0.317871,524
10522536,10005,1.068970,0.542236,0.335571,533
10532537,10001,0.981567,0.612183,0.373413,535
10542521,9984,0.813843,0.666504,0.421387,537
10552535,10014,0.765259,0.662720,0.432373,539
10562515,9980,0.735229,0.653198,0.422852,533
10572559,10044,0.723145,0.628052,0.401855,536
10582542,9983,0.727417,0.586304,0.379395,530
10592519,9977,0.738159,0.475708,0.366943,524
10602524,10005,0.753296,0.435059,0.369019,518
10612530,10006,0.772583,0.408691,0.371460,509
10622514,9984,0.810059,0.388306,0.367188,502
10632514,10000,0.834473,0.402954,0.377075,497
10642535,10021,0.860107,0.435791,0.390747,492
10652536,10001,0.892090,0.401123,0.373291,489
10662518,9982,0.896240,0.414917,0.359985,490
10672515,9997,0.890137,0.448242,0.355713,489
10682924,10409,0.884888,0.491943,0.358032,493
10692535,9611,0.879272,0.517212,0.364014,498
10702520,9985,0.863403,0.532471,0.381836,502
10712518,9998,0.845337,0.517334,0.387939,508
10722514,9996,0.829102,0.494263,0.392822,512
10732535,10021,0.809814,0.466797,0.390015,515
10742517,9982,0.792114,0.444458,0.384766,516
10752530,10013,0.781494,0.436768,0.372070,517
10762529,9999,0.787354,0.423096,0.359985,521
10772534,10005,0.802002,0.425293,0.356445,526
10782518,9984,0.807373,0.426880,0.356689,522
10792516,9998,0.799683,0.413696,0.364380,518
10802524,10008,0.790527,0.395508,0.375488,526
10812526,10002,0.795898,0.398438,0.360962,525
10822535,10009,0.813599,0.381104,0.351074,523
10832530,9995,0.834106,0.358887,0.343018,518
10842518,9988,0.855347,0.345947,0.347046,521
10852520,10002,0.875244,0.340576,0.360962,516
10862528,10008,0.889893,0.340332,0.379272,523
10872529,10001,0.877441,0.361938,0.412842,522
10882516,9987,0.849609,0.379150,0.393188,517
10892537,10021,0.832520,0.389648,0.324219,522
10902540,10003,0.835449,0.390625,0.248535,522
10912538,9998,0.886353,0.387451,0.206665,520
10922528,9990,0.935791,0.302490,0.335205,520
10932531,10003,0.960083,0.272705,0.476196,515
10942524,9993,0.973755,0.250977,0.557861,524
10952514,9990,0.950439,0.278931,0.540039,525
10962534,10020,0.919067,0.331787,0.484253,531
10972511,9977,0.898315,0.398193,0.342041,534
10982518,10007,0.872192,0.382813,0.280029,536
10992514,9996,0.892334,0.359009,0.234131,534
11002529,10015,0.936157,0.319336,0.224243,530
11012557,10028,0.986572,0.268677,0.239624,529
11022542,9985,0.996094,0.223999,0.276367,521
11032515,9973,0.990845,0.165039,0.349365,513
11042515,10000,0.969238,0.314453,0.319824,513
11052518,10003,0.949097,0.317993,0.264282,504
11062523,10005,0.930908,0.359497,0.170410,496
11072515,9992,0.914062,0.423584,0.068237,490
11082518,10003,1.005981,0.436401,-0.083374,477
11092515,9997,1.144165,0.386841,-0.073608,479
11102533,10018,1.274414,0.367554,-0.010742,473
11112511,9978,1.338135,0.359863,0.093628,465
11122522,10011,1.335815,0.348511,0.227417,470
11132513,9991,1.265259,0.351318,0.312012,468
11142534,10021,0.994507,0.295166,0.316162,473
11152534,10000,0.867065,0.269287,0.291870,474
11162541,10007,0.787842,0.278076,0.264771,487
11172518,9977,0.752441,0.310669,0.257202,481
11182528,10010,0.763672,0.333984,0.233398,490
11192521,9993,0.868774,0.393433,0.254761,494
11202517,9996,0.968384,0.472778,0.251587,500
11212540,10023,1.012817,0.514282,0.257813,508
11222567,10027,1.005493,0.493042,0.269165,511
11232517,9950,0.992187,0.478882,0.287354,514
11242556,10039,1.000610,0.489746,0.293823,514
11252535,9979,0.998169,0.482544,0.262451,516
11262534,9999,0.985962,0.456665,0.239258,520
11272526,9992,0.962524,0.410889,0.226440,525
11282535,10009,0.919800,0.378906,0.233643,530
11292541,10006,0.892578,0.347778,0.252441,531
11302536,9995,0.854858,0.252319,0.268555,542
11312526,9990,0.836792,0.228882,0.261108,546
11322540,10014,0.818726,0.229614,0.247925,547
11332519,9979,0.798096,0.233887,0.234741,549
11342530,10011,0.780518,0.228882,0.230713,549
11352526,9996,0.769897,0.222168,0.233154,553
11362538,10012,0.769409,0.213501,0.241577,550
11372525,9987,0.764648,0.213745,0.243042,544
11382527,10002,0.765137,0.220581,0.240967,539
11392534,10007,0.775757,0.225952,0.227905,533
11402515,9981,0.797607,0.237061,0.202637,528
11412523,10008,0.828613,0.239990,0.178589,513
11422534,10011,0.832153,0.246338,0.179932,510
11432518,9984,0.837036,0.262207,0.184082,499
11442530,10012,0.836914,0.264038,0.183105,488
11452540,10010,0.830200,0.263794,0.173950,483
11462525,9985,0.819214,0.263916,0.161255,483
11472533,10008,0.801758,0.278809,0.122559,479
11482534,10001,0.796753,0.280151,0.109375,480
11492515,9981,0.795044,0.284546,0.101318,479
11502538,10023,0.800293,0.286987,0.101318,478
11512536,9998,0.797119,0.282959,0.105957,479
11522513,9977,0.805298,0.265503,0.129272,476
11532522,10009,0.811523,0.247559,0.145386,480
11542526,10004,0.814453,0.228271,0.160278,481
11552529,10003,0.822144,0.209595,0.172119,495
11562519,9990,0.841919,0.208130,0.191284,501
11572533,10014,0.850098,0.214844,0.208130,500
11582529,9996,0.897949,0.321533,0.197754,511
11592529,10000,0.914307,0.411011,0.191528,514
11602516,9987,0.935425,0.520996,0.179932,518
11612515,9999,0.995972,0.627930,0.156250,512
11622528,10013,1.079224,0.698486,0.135132,516
11632531,10003,1.198120,0.688965,0.167358,515
11642522,9991,1.201172,0.642944,0.211426,513
11652511,9989,1.169556,0.592651,0.265015,512
11662548,10037,1.117432,0.533203,0.306152,510
11672512,9964,1.034546,0.480713,0.316162,515
11682535,10023,0.943481,0.431152,0.280273,514
11692539,10004,0.776367,0.370972,0.254150,526
11702534,9995,0.718628,0.359131,0.224365,526
11712529,9995,0.688599,0.359375,0.194824,534
11722530,10001,0.683228,0.360596,0.171265,537
11732540,10010,0.693726,0.355957,0.160645,536
11742518,9978,0.763428,0.397461,0.202515,535
11752521,10003,0.820435,0.438965,0.234009,525
11762526,10005,0.875732,0.483276,0.252075,527
11772524,9998,0.933960,0.531738,0.261963,514
11782526,10002,0.984985,0.574951,0.268677,514
11792534,10008,1.028931,0.635254,0.277222,507
11802514,9980,1.074097,0.625977,0.289429,500
11812518,10004,1.074707,0.595825,0.302368,495
11822520,10002,1.060303,0.553345,0.306030,492
11832537,10017,1.039429,0.519775,0.307983,496
11842528,9991,1.008423,0.493652,0.300659,501
11852530,10002,0.933105,0.471802,0.276978,507
11862526,9996,0.896240,0.458130,0.257080,505
11872532,10006,0.863647,0.443359,0.238159,518
11882511,9979,0.842651,0.428955,0.231079,525
11892557,10046,0.837402,0.425537,0.236938,529
11902537,9980,0.847168,0.425415,0.270874,527
11912553,10016,0.884644,0.416992,0.287842,527
11922521,9968,0.899658,0.407837,0.299438,523
11932521,10000,0.909180,0.401367,0.305176,521
11942514,9993,0.912476,0.396851,0.305420,519
11952541,10027,0.917847,0.395142,0.301025,511
11962533,9992,0.911255,0.386963,0.290039,513
11972511,9978,0.911987,0.387695,0.294556,513
11982523,10012,0.912109,0.410400,0.300537,511
11992521,9998,0.908325,0.449585,0.308105,504
12002537,10016,0.900146,0.475342,0.319946,507
12012515,9978,0.892212,0.476807,0.330933,511
12022527,10012,0.877441,0.462158,0.331177,507
12032511,9984,0.875244,0.441284,0.325806,508
12042521,10010,0.874023,0.415039,0.320068,507
12052513,9992,0.874512,0.389893,0.318848,499
12062540,10027,0.875732,0.369873,0.317505,509
12072533,9993,0.880127,0.349243,0.310547,510
12082525,9992,0.881714,0.337280,0.304321,510
12092519,9994,0.882446,0.323730,0.298096,507
12102567,10048,0.881958,0.318970,0.303589,515
12112549,9982,0.868042,0.313721,0.326294,514
12122528,9979,0.871704,0.323975,0.331665,518
12132517,9989,0.871216,0.353027,0.324951,523
12142535,10018,0.871948,0.387573,0.318970,526
12152520,9985,0.879272,0.428955,0.314453,523
12162535,10015,0.891113,0.501709,0.303101,526
12172516,9981,0.914429,0.554565,0.289917,520
12182517,10001,0.963867,0.571045,0.268555,506
12192516,9999,0.982910,0.523804,0.261963,502
12202537,10021,1.008667,0.451904,0.256958,498
12212517,9980,1.049072,0.389404,0.240234,494
12222518,10001,1.103760,0.345825,0.215820,494
12232518,10000,1.228394,0.257568,0.147949,488
12242539,10021,1.281738,0.201172,0.143188,494
12252535,9996,1.317871,0.167236,0.153320,499
12262516,9981,1.322876,0.157959,0.165894,502
12272522,10006,1.295532,0.170288,0.173096,505
12282534,10012,1.231323,0.219971,0.169922,510
12292518,9984,1.055908,0.352661,0.124146,502
12302511,9993,0.979858,0.379883,0.114746,507
12312531,10020,0.936279,0.371216,0.102539,511
12322560,10029,0.920532,0.336914,0.091797,510
12332527,9967,0.929199,0.316162,0.061890,504
12342528,10001,0.963013,0.332397,0.039917,510
12352538,10010,0.989868,0.328247,0.073242,505
12362516,9978,1.024414,0.316772,0.134277,504
12372512,9996,1.065430,0.318359,0.194824,512
12382514,10002,1.099609,0.333252,0.220093,514
12392535,10021,1.119873,0.342773,0.214355,519
12402518,9983,1.122070,0.360352,0.156738,523
12412525,10007,1.082275,0.347290,0.097534,529
12422514,9989,1.070557,0.341187,0.092529,533
12432531,10017,1.015747,0.296997,0.127686,537
12442516,9985,1.009521,0.333252,0.133789,538
12452529,10013,0.932617,0.298218,0.168823,541
12462517,9988,0.879761,0.288208,0.163208,538
12472519,10002,0.854126,0.309204,0.145508,539
12482524,10005,0.831177,0.321655,0.139160,537
12492531,10007,0.795532,0.309692,0.133057,534
12502536,10005,0.770264,0.250854,0.129395,524
12512526,9990,0.758545,0.262451,0.130615,525
12522543,10017,0.748291,0.257935,0.132324,517
12532513,9970,0.738403,0.252197,0.132935,507
12542549,10036,0.734985,0.249268,0.134399,502
12552513,9964,0.735840,0.251831,0.136230,500
12562526,10013,0.741943,0.255615,0.141357,494
12572527,10001,0.742798,0.252197,0.147095,488
12582511,9984,0.746948,0.247437,0.153687,478
12592532,10021,0.751831,0.251953,0.155884,480
12602519,9987,0.756470,0.261230,0.155396,473
12612530,10011,0.763306,0.285889,0.157593,474
12622515,9985,0.780396,0.296753,0.152954,473
12632518,10003,0.790283,0.303345,0.159058,472
12642530,10012,0.794189,0.297607,0.155518,474
12652522,9992,0.798096,0.309814,0.158081,474
12662539,10017,0.801147,0.314453,0.158447,475
12672511,9972,0.802368,0.319214,0.161987,479
12682516,10005,0.802612,0.324585,0.158447,478
12692528,10012,0.804565,0.329346,0.157471,481
12702513,9985,0.807007,0.331665,0.157715,482
12712519,10006,0.812256,0.329346,0.157593,482
12722539,10020,0.824951,0.323853,0.156616,483
12732567,10028,0.814941,0.320557,0.161133,483
12742528,9961,0.824463,0.336060,0.163696,486
12752515,9987,0.838379,0.354614,0.166138,488
12762545,10030,0.842529,0.358643,0.165405,494
12772524,9979,0.851440,0.351685,0.159912,493
12782521,9997,0.943359,0.373535,0.132446,500
12792524,10003,1.019531,0.387695,0.141602,496
12802536,10012,1.091919,0.391113,0.176636,497
12812534,9998,1.145508,0.408691,0.207153,509
12822519,9985,1.167969,0.443604,0.222412,510
12832511,9992,1.077148,0.510986,0.223633,513
12842537,10026,0.995117,0.513306,0.226807,519
12852521,9984,0.916382,0.506592,0.235229,520
12862515,9994,0.848389,0.497803,0.244385,526
12872511,9996,0.795898,0.496216,0.250854,527
12882511,10000,0.767212,0.493774,0.252930,532
12892521,10010,0.752686,0.477539,0.241821,534
12902539,10018,0.764771,0.464233,0.234863,529
12912511,9972,0.792725,0.454102,0.228882,524
12922518,10007,0.821533,0.448608,0.226318,525
12932534,10016,0.850342,0.450317,0.226562,525
12942534,10000,0.926880,0.464355,0.239502,519
12952534,10000,0.970093,0.471924,0.249146,512
12962522,9988,1.012573,0.486938,0.258301,516
12972558,10036,1.048828,0.503662,0.263184,507
12982531,9973,1.072998,0.515747,0.264893,504
12992529,9998,1.077515,0.524780,0.262573,509
13002534,10005,1.019531,0.520996,0.247681,511
13012519,9985,0.989746,0.511475,0.244141,515
13022516,9997,0.952759,0.512451,0.245483,517
13032514,9998,0.920044,0.522217,0.244873,513
13042539,10025,0.891235,0.529175,0.242432,518
13052526,9987,0.835205,0.498901,0.247070,517
13062533,10007,0.810181,0.481689,0.256714,524
13072531,9998,0.795044,0.474121,0.265503,524
13082519,9988,0.786499,0.473022,0.275269,517
13092528,10009,0.789551,0.471191,0.282349,516
13102519,9991,0.799438,0.467407,0.286987,516
13112528,10009,0.832397,0.460937,0.286011,513
13122518,9990,0.852295,0.461670,0.283081,509
13132522,10004,0.859375,0.462280,0.281738,511
13142514,9992,0.875732,0.474487,0.278320,508
13152511,9997,0.878906,0.482910,0.278564,509
13162536,10025,0.875854,0.504272,0.285156,504
13172535,9999,0.870728,0.520142,0.291138,509
13182531,9996,0.863647,0.522705,0.293823,505
13192528,9997,0.861206,0.510254,0.300049,503
13202549,10021,0.856689,0.496704,0.303955,505
13212512,9963,0.845703,0.480347,0.302490,506
13222537,10025,0.839111,0.466309,0.300903,508
13232535,9998,0.829102,0.468628,0.305664,509
13242538,10003,0.821533,0.467651,0.313477,505
13252530,9992,0.821289,0.466675,0.316406,507
13262525,9995,0.821289,0.469727,0.314575,512
13272535,10010,0.832031,0.445068,0.311279,513
13282515,9980,0.838501,0.444458,0.307251,513
13292524,10009,0.840210,0.438110,0.305054,516
13302522,9998,0.840576,0.437866,0.299072,511
13312511,9989,0.842407,0.438965,0.290405,518
13322525,10014,0.847900,0.437500,0.250366,518
13332517,9992,0.861328,0.448975,0.259399,520
13342531,10014,0.873657,0.445312,0.252930,514
13352540,10009,0.889038,0.435059,0.249390,509
13362523,9983,0.913330,0.426147,0.243530,514
13372517,9994,0.953857,0.415894,0.236450,514
13382539,10022,1.067505,0.406860,0.235107,513
13392537,9998,1.130737,0.414185,0.240845,512
13402530,9993,1.181763,0.423218,0.253784,513
13412533,10003,1.200928,0.426758,0.273193,516
13422557,10024,1.183105,0.416992,0.285400,521
13432524,9967,1.139526,0.414307,0.276001,527
13442522,9998,1.010132,0.444824,0.251343,530
13452518,9996,0.959839,0.452515,0.227539,536
13462533,10015,0.929810,0.454346,0.211914,541
13472530,9997,0.919189,0.452759,0.205078,540
13482524,9994,0.930908,0.435669,0.206177,548
13492518,9994,0.959961,0.363647,0.210327,544
13502517,9999,0.981079,0.341431,0.208740,547
13512514,9997,1.001953,0.328247,0.196289,538
13522534,10020,1.024536,0.317993,0.184326,537
13532522,9988,1.060913,0.311646,0.173462,534
13542513,9991,1.117920,0.316162,0.166504,533
13552523,10010,1.187378,0.326050,0.171997,527
13562512,9989,1.191528,0.334351,0.184326,523
13572532,10020,1.180542,0.347778,0.199707,524
13582511,9979,1.155151,0.360474,0.206421,521
13592529,10018,1.105591,0.363525,0.209717,520
13602538,10009,1.016113,0.300537,0.182373,517
13612527,9989,0.997192,0.327637,0.165771,513
13622517,9990,0.970093,0.358887,0.160645,519
13632528,10011,0.925171,0.317383,0.164917,520
13642535,10007,0.890503,0.288574,0.165649,521
13652542,10007,0.871216,0.283325,0.170532,524
13662517,9975,0.832153,0.275024,0.172729,514
13672511,9994,0.814453,0.259277,0.172485,519
13682532,10021,0.801880,0.247681,0.168823,518
13692526,9994,0.792969,0.240601,0.161743,514
13702521,9995,0.782715,0.230957,0.154785,507
13712540,10019,0.781860,0.213745,0.142456,507
13722533,9993,0.782959,0.210327,0.135742,497
13732526,9993,0.784180,0.204590,0.128662,490
13742525,9999,0.778442,0.196411,0.128540,487
13752514,9989,0.775024,0.190796,0.137817,488
13762517,10003,0.777222,0.185547,0.174927,489
13772534,10017,0.763672,0.183960,0.184692,486
13782533,9999,0.753174,0.191040,0.187012,486
13792532,9999,0.741211,0.206543,0.181763,486
13802531,9999,0.728271,0.222168,0.174927,486
13812537,10006,0.716064,0.226074,0.170410,489
13822512,9975,0.712402,0.220093,0.172241,490
13832530,10018,0.720337,0.229614,0.175781,493
13842526,9996,0.726807,0.252686,0.180664,489
13852540,10014,0.735718,0.276978,0.190918,494
13862528,9988,0.750244,0.293823,0.205322,500
13872529,10001,0.769775,0.311157,0.229126,497
13882540,10011,0.771973,0.323730,0.219727,494
13892536,9996,0.784424,0.344604,0.216675,499
13902511,9975,0.807495,0.377319,0.211914,499
13912537,10026,0.840576,0.394897,0.213379,495
13922511,9974,0.887451,0.400269,0.219971,499
13932518,10007,1.025024,0.424805,0.252441,500
13942532,10014,1.088867,0.450684,0.266602,504
13952539,10007,1.124146,0.469849,0.281738,502
13962538,9999,1.124634,0.479858,0.297363,502
13972537,9999,1.089233,0.480835,0.310425,501
13982523,9986,0.964111,0.494995,0.323730,510
13992518,9995,0.908447,0.512695,0.319092,519
14002513,9995,0.855835,0.522095,0.314087,527
14012538,10025,0.817627,0.507935,0.307861,528
14022530,9992,0.802490,0.484131,0.307007,531
14032539,10009,0.812744,0.458130,0.308838,536
14042525,9986,0.840454,0.440308,0.297119,545
14052530,10005,0.848877,0.426636,0.294189,542
14062525,9995,0.864624,0.422852,0.299194,540
14072534,10009,0.889282,0.423584,0.304077,534
14082523,9989,0.918091,0.417847,0.309448,530
14092542,10019,0.982056,0.406250,0.312622,526
14102539,9997,1.004883,0.413452,0.316895,517
14112540,10001,1.018433,0.421143,0.318848,508
14122525,9985,1.017090,0.425903,0.322876,514
14132538,10013,0.999512,0.427612,0.325928,509
14142512,9974,0.972168,0.428101,0.325073,509
14152528,10016,0.921021,0.437866,0.324341,503
14162529,10001,0.896851,0.440552,0.325073,506
14172515,9986,0.875122,0.441650,0.329590,510
14182527,10012,0.859131,0.437134,0.335327,501
14192518,9991,0.844360,0.429810,0.341064,505
14202523,10005,0.830933,0.406494,0.349609,502
14212536,10013,0.827026,0.401611,0.351196,506
14222519,9983,0.826050,0.404663,0.351685,505
14232540,10021,0.824341,0.410645,0.353760,505
14242515,9975,0.822266,0.412720,0.357300,505
14252533,10018,0.820435,0.416870,0.361694,505
14262514,9981,0.828003,0.426270,0.370605,504
14272511,9997,0.833374,0.427124,0.377808,505
14282531,10020,0.833374,0.422607,0.381592,498
14292525,9994,0.840942,0.427490,0.387817,502
14302526,10001,0.845825,0.433716,0.394287,502
14312522,9996,0.840698,0.443359,0.403687,508
14322517,9995,0.839844,0.446045,0.399780,508
14332534,10017,0.831909,0.443237,0.392700,505
14342540,10006,0.825073,0.440430,0.392090,505
14352530,9990,0.817993,0.442993,0.391113,514
14362538,10008,0.819336,0.442383,0.391357,506
14372534,9996,0.825806,0.427612,0.392090,509
14382530,9996,0.834351,0.420166,0.392578,514
14392531,10001,0.845947,0.413330,0.389404,512
14402531,10000,0.855225,0.412109,0.387817,512
14412523,9992,0.865112,0.410767,0.380981,512
14422525,10002,0.888550,0.407959,0.356934,513
14432525,10000,0.892578,0.404053,0.345825,511
14442534,10009,0.890747,0.399536,0.339966,508
14452517,9983,0.887817,0.394287,0.331177,517
14462512,9995,0.890259,0.390869,0.322998,517
14472526,10014,0.892822,0.389160,0.312256,515
14482526,10000,0.903198,0.373657,0.280396,522
14492519,9993,0.936890,0.366211,0.260742,526
14502537,10018,0.998291,0.354370,0.245239,526
14512540,10003,1.072754,0.341797,0.244385,529
14522514,9974,1.133545,0.327881,0.259155,529
14532517,10003,1.181396,0.323364,0.299805,525
14542534,10017,1.158691,0.347656,0.305664,533
14552512,9978,1.116089,0.362427,0.296509,532
14562527,10015,1.047729,0.364990,0.274048,531
14572535,10008,0.986206,0.370239,0.246216,541
14582525,9990,0.928711,0.370605,0.196899,537
14592523,9998,0.858887,0.329956,0.183594,539
14602534,10011,0.851074,0.305664,0.174561,536
14612515,9981,0.858521,0.281738,0.178467,537
14622535,10020,0.883789,0.262573,0.177612,531
14632516,9981,0.912720,0.254883,0.178833,525
14642512,9996,0.982910,0.243652,0.177246,523
14652513,10001,1.004639,0.233032,0.184570,516
14662511,9998,1.045288,0.229858,0.192383,514
14672530,10019,1.082886,0.235718,0.199829,513
14682536,10006,1.114014,0.250244,0.208008,511
14692523,9987,1.137207,0.284790,0.212402,504
14702537,10014,1.167236,0.275879,0.223389,510
14712522,9985,1.174194,0.318359,0.221313,510
14722540,10018,1.152100,0.332397,0.231934,511
14732523,9983,1.109497,0.310913,0.239746,509
14742512,9989,1.069214,0.301392,0.232910,513
14752512,10000,0.986206,0.281372,0.224243,519
14762528,10016,0.942139,0.275635,0.221436,520
14772532,10004,0.904541,0.269165,0.217773,525
14782535,10003,0.869629,0.259888,0.218384,531
14792533,9998,0.839722,0.245728,0.219116,533
14802533,10000,0.814819,0.232544,0.216187,529
14812558,10025,0.778198,0.213257,0.216064,528
14822525,9967,0.766357,0.208618,0.215698,527
14832537,10012,0.759155,0.206177,0.215698,521
14842534,9997,0.755493,0.205688,0.217041,513
14852538,10004,0.755615,0.207275,0.219360,510
14862536,9998,0.757568,0.212524,0.221069,502
14872518,9982,0.761475,0.213867,0.223755,493
14882524,10006,0.768921,0.215820,0.226929,491
14892528,10004,0.772217,0.218262,0.228271,488
14902536,10008,0.772217,0.219238,0.226685,487
14912523,9987,0.772461,0.250000,0.232788,489
14922511,9988,0.771118,0.259766,0.225708,482
14932527,10016,0.772217,0.268433,0.226196,487
14942532,10005,0.776367,0.281738,0.227417,485
14952532,10000,0.781250,0.290527,0.228882,494
14962534,10002,0.790527,0.296997,0.233643,494
14972513,9979,0.817017,0.314087,0.239746,489
14982515,10002,0.823975,0.318237,0.239502,497
14992538,10023,0.834106,0.328857,0.239380,500
15002529,9991,0.849731,0.354370,0.237183,503
15012524,9995,0.858154,0.380249,0.237549,507
15022517,9993,0.865723,0.409058,0.243042,507
15032537,10020,0.876343,0.425415,0.245483,514
15042532,9995,0.871460,0.437622,0.245361,520
15052528,9996,0.864868,0.437378,0.245850,515
15062530,10002,0.862671,0.424194,0.242798,527
15072512,9982,0.864868,0.415283,0.238403,532
15082516,10004,0.865967,0.408081,0.239990,532
15092515,9999,0.871094,0.401123,0.238892,533
15102511,9996,0.895630,0.402710,0.222900,531
15112540,10029,0.948608,0.410400,0.209229,531
15122515,9975,1.016479,0.419678,0.208252,527
15132532,10017,1.163452,0.442993,0.234741,528
15142525,9993,1.195679,0.451660,0.259521,523
15152535,10010,1.173462,0.453003,0.294434,519
15162539,10004,1.096558,0.468140,0.321533,524
15172522,9983,0.997925,0.489624,0.321533,524
15182529,10007,0.892578,0.485352,0.307983,522
15192541,10012,0.731934,0.474487,0.274780,525
15202538,9997,0.679687,0.468628,0.266479,525
15212519,9981,0.664062,0.446655,0.265381,525
15222525,10006,0.666626,0.407837,0.272095,527
15232533,10008,0.679077,0.375610,0.287720,528
15242539,10006,0.735596,0.355225,0.328491,526
15252535,9996,0.772949,0.359009,0.345093,521
15262531,9996,0.819702,0.369751,0.355347,523
15272522,9991,0.872192,0.392944,0.363647,510
15282518,9996,0.923706,0.428467,0.369507,497
15292518,10000,0.969116,0.462646,0.381348,500
15302519,10001,1.001221,0.509888,0.406616,495
15312525,10006,0.994995,0.515747,0.408203,494
15322521,9996,0.975952,0.519409,0.398682,488
15332537,10016,0.955078,0.521484,0.391479,494
15342513,9976,0.931885,0.528442,0.380127,496
15352540,10027,0.880859,0.551147,0.345459,502
15362520,9980,0.856567,0.534912,0.338013,507
15372517,9997,0.836670,0.503418,0.342529,509
15382514,9997,0.824097,0.462891,0.350464,510
15392524,10010,0.818481,0.432373,0.353638,514
15402512,9988,0.822144,0.411987,0.351440,514
15412534,10022,0.825806,0.371948,0.343506,514
15422520,9986,0.832275,0.356689,0.347778,505
15432540,10020,0.839966,0.353394,0.346069,507
15442533,9993,0.845093,0.361694,0.342896,501
15452540,10007,0.849731,0.372192,0.335693,499
15462539,9999,0.870239,0.385620,0.325195,493
15472540,10001,0.879272,0.384888,0.327759,493
15482511,9971,0.885132,0.387695,0.335571,503
15492511,10000,0.890015,0.381592,0.346436,505
15502518,10007,0.895508,0.384644,0.350708,509
15512546,10028,0.891357,0.393066,0.350464,510
15522518,9972,0.880981,0.393188,0.355103,516
15532512,9994,0.879639,0.395020,0.357300,525
15542518,10006,0.881958,0.401978,0.354370,525
15552532,10014,0.887329,0.403076,0.351563,529
15562514,9982,0.893921,0.395752,0.350342,537
15572511,9997,0.906982,0.372925,0.351807,542
15582514,10003,0.907349,0.367554,0.352417,541
15592536,10022,0.899658,0.366211,0.348022,539
15602516,9980,0.890015,0.367065,0.342407,538
15612512,9996,0.879883,0.367798,0.333252,543
15622526,10014,0.873291,0.370605,0.320923,539
15632537,10011,0.870605,0.362793,0.303223,537
15642528,9991,0.871460,0.354248,0.296631,534
15652529,10001,0.869995,0.348022,0.287476,531
15662526,9997,0.877930,0.344849,0.274414,526
15672530,10004,0.903931,0.344238,0.255005,523
15682535,10005,1.060425,0.341309,0.226929,522
15692522,9987,1.149170,0.341187,0.242187,520
15702523,10001,1.207764,0.336670,0.268921,519
15712524,10001,1.234741,0.342163,0.294312,517
15722525,10001,1.225586,0.362305,0.307373,521
15732524,9999,1.188965,0.383179,0.269409,519
15742526,10002,1.052124,0.399902,0.240356,527
15752536,10010,0.994873,0.406860,0.201538,525
15762539,10003,0.955200,0.401489,0.170288,534
15772531,9992,0.937988,0.367798,0.151978,536
15782518,9987,0.934204,0.321777,0.145142,530
15792529,10011,0.964844,0.253296,0.141235,535
15802515,9986,0.987061,0.244385,0.142944,531
15812525,10010,0.999023,0.234497,0.136841,531
15822522,9997,1.006958,0.232056,0.139160,522
15832528,10006,1.037720,0.228760,0.151001,524
15842527,9999,1.063599,0.188599,0.140869,518
15852518,9991,1.151733,0.237671,0.165039,516
15862527,10009,1.180054,0.306274,0.163818,511
15872517,9990,1.185181,0.333618,0.173218,504
15882539,10022,1.156982,0.304932,0.179687,510
15892537,9998,1.125854,0.295654,0.177979,508
15902538,10001,1.029785,0.287598,0.180176,506
15912519,9981,0.982178,0.269287,0.181152,512
15922530,10011,0.943115,0.248657,0.182373,510
15932528,9998,0.907837,0.230835,0.186401,508
15942533,10005,0.862671,0.224365,0.181763,502
15952561,10028,0.820801,0.204956,0.152466,496
15962522,9961,0.759888,0.194336,0.136597,488
15972519,9997,0.741333,0.186890,0.124756,480
15982517,9998,0.724487,0.181274,0.124512,475
15992520,10003,0.710693,0.179443,0.132812,471
16002525,10005,0.705566,0.182861,0.141968,467
16012522,9997,0.707886,0.193237,0.152832,460
16022525,10003,0.713745,0.195312,0.152222,462
16032533,10008,0.720825,0.194946,0.155029,473
16042511,9978,0.728882,0.196655,0.157837,477
16052515,10004,0.735229,0.193848,0.160156,484
16062514,9999,0.741943,0.196167,0.165405,492
16072538,10024,0.757446,0.203125,0.166382,502
16082526,9988,0.770874,0.213989,0.167236,505
16092512,9986,0.788574,0.225220,0.168457,516
16102528,10016,0.802246,0.235107,0.168457,518
16112534,10006,0.831665,0.254517,0.168579,525
16122537,10003,0.858276,0.277588,0.162842,530
16132516,9979,0.878296,0.287720,0.162842,530
16142534,10018,0.892944,0.295776,0.166260,533
16152530,9996,0.901733,0.307617,0.166626,537
16162516,9986,0.913696,0.326050,0.167236,539
16172568,10052,0.933960,0.351807,0.175659,539
16182532,9964,0.936157,0.348022,0.179687,544
16192513,9981,0.938110,0.345337,0.181396,546
16202526,10013,0.935547,0.344727,0.180908,550
16212523,9997,0.931885,0.347656,0.183105,553
16222516,9993,0.922485,0.348999,0.184814,551
16232522,10006,0.914429,0.347534,0.195679,555
16242527,10005,0.913208,0.347290,0.199585,548
16252532,10005,0.920776,0.350830,0.199585,552
16262536,10004,0.945312,0.354736,0.187744,552
16272518,9982,1.001343,0.362793,0.171875,546
16282537,10019,1.135742,0.365723,0.179810,540
16292515,9978,1.184814,0.371704,0.183716,543
16302522,10007,1.230225,0.379639,0.192505,542
16312522,10000,1.250977,0.384521,0.211792,540
16322521,9999,1.223999,0.394043,0.232544,536
16332522,10001,1.159546,0.406006,0.251221,534
16342519,9997,0.989868,0.426270,0.264038,529
16352539,10020,0.900024,0.406250,0.260498,526
16362517,9978,0.823364,0.390259,0.260864,529
16372532,10015,0.780151,0.377930,0.260132,524
16382567,10035,0.760254,0.360962,0.260254,516
16392529,9962,0.763062,0.336060,0.264282,520
16402511,9982,0.786255,0.329712,0.269043,515
16412525,10014,0.822144,0.331543,0.278564,512
16422516,9991,0.864380,0.345093,0.293701,510
16432534,10018,0.911133,0.357544,0.306030,506
16442513,9979,0.968506,0.368530,0.318604,505
16452523,10010,1.060791,0.404541,0.348755,499
16462514,9991,1.080933,0.424561,0.361206,497
16472521,10007,1.079956,0.444580,0.363770,498
16482515,9994,1.066284,0.447998,0.359741,499
16492529,10014,1.039185,0.435547,0.352905,502
16502537,10008,0.986816,0.448120,0.337524,505
16512512,9975,0.954468,0.461914,0.335571,511
16522520,10008,0.924072,0.461670,0.340698,517
16532531,10011,0.896729,0.443604,0.350464,522
16542513,9982,0.873535,0.424438,0.361572,528
16552513,10000,0.859131,0.409302,0.367920,529
16562519,10006,0.833496,0.371582,0.370361,532
16572530,10011,0.823486,0.363770,0.366455,532
16582516,9986,0.817871,0.362915,0.361206,539
16592532,10016,0.812500,0.364502,0.358032,531
16602559,10027,0.813599,0.369263,0.354248,541
16612532,9973,0.817505,0.372803,0.349121,530
16622512,9980,0.821411,0.374878,0.349609,537
16632555,10043,0.819336,0.373047,0.350098,534
16642530,9975,0.823242,0.368042,0.349365,527
16652515,9985,0.829590,0.364990,0.348633,529
16662533,10018,0.840210,0.364502,0.342773,520
16672514,9981,0.874146,0.363037,0.343628,526
16682511,9997,0.888794,0.361694,0.348267,524
16692526,10015,0.894165,0.363403,0.348877,522
16702516,9990,0.898193,0.363403,0.350830,517
16712529,10013,0.897095,0.363403,0.352051,514
16722520,9991,0.890137,0.369019,0.340942,515
16732529,10009,0.885376,0.367188,0.330688,520
16742514,9985,0.886230,0.364136,0.323975,520
16752531,10017,0.888062,0.359985,0.319824,520
16762517,9986,0.895142,0.359131,0.316650,520
16772537,10020,0.901611,0.360107,0.308716,514
16782527,9990,0.907471,0.354614,0.301514,520
16792538,10011,0.906372,0.355347,0.294189,521
16802535,9997,0.898560,0.354004,0.283325,518
16812524,9989,0.891235,0.348511,0.271118,527
16822561,10037,0.887329,0.345703,0.257446,523
16832530,9969,0.904053,0.332886,0.235596,519
16842518,9988,0.931396,0.317383,0.225220,528
16852548,10030,0.983643,0.302979,0.211182,525
16862512,9964,1.072632,0.294678,0.201294,526
16872537,10025,1.161255,0.280273,0.214355,522
16882534,9997,1.253052,0.267700,0.262939,526
16892524,9990,1.282837,0.292358,0.274902,526
16902535,10011,1.278442,0.322510,0.279541,526
16912527,9992,1.245483,0.331665,0.272949,529
16922528,10001,1.187378,0.338989,0.250732,528
16932535,10007,1.119507,0.346802,0.219604,531
16942517,9982,1.009399,0.339722,0.159302,530
16952527,10010,0.978638,0.309448,0.142212,538
16962539,10012,0.961914,0.272461,0.131836,536
16972520,9981,0.951172,0.241333,0.128662,534
16982530,10010,0.955566,0.220337,0.127563,525
16992520,9990,0.956177,0.208618,0.154175,525
17002533,10013,0.961182,0.180054,0.149048,517
17012540,10007,0.980469,0.212280,0.135376,512
17022516,9976,0.998291,0.245605,0.144897,506
17032511,9995,1.000610,0.233643,0.159546,503
17042531,10020,0.992432,0.220093,0.159180,497
17052525,9994,1.028564,0.247192,0.143799,495
17062549,10024,1.040527,0.246948,0.147705,494
17072526,9977,1.042236,0.234009,0.148315,494
17082516,9990,1.030396,0.222290,0.156006,503
17092544,10028,1.014771,0.219849,0.168457,511
17102528,9984,0.969604,0.225952,0.176147,513
17112514,9986,0.935181,0.233276,0.169312,524
17122541,10027,0.904907,0.245361,0.163574,528
17132538,9997,0.872925,0.258423,0.161743,536
17142519,9981,0.843140,0.269531,0.160522,534
17152527,10008,0.818604,0.270874,0.162720,545
17162526,9999,0.775024,0.255981,0.169067,547
17172531,10005,0.756836,0.251343,0.169434,545
17182515,9984,0.742065,0.249023,0.168945,546
17192525,10010,0.731445,0.245117,0.167969,540
17202531,10006,0.728027,0.239136,0.167603,537
17212528,9997,0.734741,0.228760,0.169434,528
17222529,10001,0.747192,0.227905,0.173096,514
17232515,9986,0.758789,0.232666,0.177368,516
17242511,9996,0.771851,0.234497,0.186035,509
17252519,10008,0.786255,0.238525,0.192139,499
17262519,10000,0.799438,0.246582,0.191528,497
17272538,10019,0.818726,0.276123,0.186401,489
17282540,10002,0.826538,0.290161,0.185547,487
17292522,9982,0.832031,0.304321,0.184448,472
17302538,10016,0.833618,0.316895,0.179932,474
17312556,10018,0.833008,0.317383,0.178101,479
17322535,9979,0.849609,0.345581,0.186523,478
17332524,9989,0.846924,0.333862,0.185913,480
17342558,10034,0.850220,0.328125,0.182495,477
17352519,9961,0.861450,0.339355,0.184448,483
17362523,10004,0.871338,0.346924,0.182739,485
17372527,10004,0.875854,0.346680,0.185913,483
17382537,10010,0.900146,0.350952,0.194580,494
17392536,9999,0.903076,0.354004,0.197998,495
17402535,9999,0.908081,0.357422,0.198608,500
17412526,9991,0.915405,0.363525,0.197144,504
17422526,10000,0.922974,0.365356,0.190430,506
17432523,9997,0.991821,0.378784,0.172363,513
17442536,10013,1.045532,0.381104,0.182007,512
17452530,9994,1.095581,0.378052,0.197388,512
17462524,9994,1.139404,0.387817,0.212158,522
17472537,10013,1.173950,0.399536,0.225830,524
17482518,9981,1.180298,0.402588,0.237671,529
17492513,9995,1.097412,0.435059,0.242187,531
17502522,10009,1.013916,0.422852,0.244263,535
17512515,9993,0.927856,0.403931,0.242310,534
17522531,10016,0.853516,0.397217,0.240356,541
17532537,10006,0.793457,0.394287,0.239624,540
17542561,10024,0.727539,0.369507,0.260742,538
17552519,9958,0.729004,0.346436,0.276489,537
17562539,10020,0.740601,0.327515,0.289795,530
17572522,9983,0.759888,0.317627,0.300537,525
17582517,9995,0.793701,0.325317,0.310791,517
17592511,9994,0.840210,0.343994,0.318359,512
17602527,10016,0.938232,0.387695,0.338257,509
17612513,9986,0.992554,0.404541,0.349976,505
17622515,10002,1.037720,0.427002,0.362427,496
17632527,10012,1.078369,0.450439,0.376953,495
17642525,9998,1.104248,0.468872,0.389526,495
17652535,10010,1.069946,0.492798,0.410034,506
17662521,9986,1.026489,0.500366,0.409546,508
17672519,9998,0.982544,0.498901,0.402954,519
17682537,10018,0.935791,0.496094,0.390747,522
17692522,9985,0.900024,0.493896,0.382690,522
17702524,10002,0.868530,0.488647,0.377808,534
17712536,10012,0.840698,0.454712,0.379150,535
17722539,10003,0.834961,0.421143,0.384033,540
17732528,9989,0.825928,0.404907,0.383057,538
17742520,9992,0.821899,0.399536,0.380127,531
17752533,10013,0.817871,0.391724,0.371338,533
17762521,9988,0.819092,0.386230,0.357056,530
17772513,9992,0.821045,0.383301,0.351318,519
17782517,10004,0.825562,0.379395,0.345459,515
17792538,10021,0.833496,0.378662,0.340088,520
17802513,9975,0.840698,0.378540,0.332397,516
17812537,10024,0.847046,0.384766,0.326904,514
17822527,9990,0.862183,0.382690,0.316772,507
17832513,9986,0.866333,0.382202,0.312744,505
17842536,10023,0.869873,0.380493,0.316162,507
17852526,9990,0.869873,0.375732,0.319946,506
17862523,9997,0.868652,0.372437,0.320190,507
17872541,10018,0.865112,0.372192,0.318115,510
17882514,9973,0.864868,0.371216,0.313354,510
17892526,10012,0.869629,0.368774,0.306396,517
17902517,9991,0.875854,0.364136,0.302490,511
17912537,10020,0.883545,0.362305,0.301392,520
17922538,10001,0.891846,0.361572,0.315552,516
17932530,9992,0.885620,0.367798,0.334229,517
17942540,10010,0.883545,0.372314,0.338867,518
17952529,9989,0.889893,0.370117,0.336182,521
17962517,9988,0.889771,0.370239,0.330444,520
17972540,10023,0.889282,0.365601,0.327393,522
17982531,9991,0.889771,0.353149,0.323608,519
17992520,9989,0.896851,0.360352,0.318481,523
18002514,9994,0.909058,0.373535,0.313477,526
18012530,10016,0.922607,0.379761,0.304688,526
18022528,9998,0.943848,0.385986,0.294678,525
18032524,9996,0.990234,0.388184,0.259521,525
18042541,10017,1.129150,0.375854,0.255615,524
18052539,9998,1.183105,0.371094,0.256226,521
18062519,9980,1.230713,0.374023,0.265747,522
18072539,10020,1.260010,0.382324,0.275513,523
18082520,9981,1.275879,0.399048,0.282104,522
18092526,10006,1.205688,0.390869,0.288208,526
18102533,10007,1.134155,0.379395,0.271973,527
18112529,9996,1.066284,0.378052,0.244629,531
18122523,9994,1.001831,0.362183,0.223267,532
18132538,10015,0.947510,0.340942,0.210449,537
18142537,9999,0.905762,0.268311,0.210083,534
18152529,9992,0.871948,0.225098,0.215698,536
18162540,10011,0.877197,0.259644,0.199585,540
18172525,9985,0.882446,0.280640,0.197876,532
18182530,10005,0.871826,0.257813,0.203613,530
18192540,10010,0.875122,0.249146,0.203369,530
18202539,9999,0.941772,0.274414,0.219238,525
18212536,9997,0.971191,0.291382,0.226562,518
18222520,9984,0.984619,0.301147,0.236206,516
18232531,10011,0.990479,0.309082,0.240356,517
18242513,9982,0.980957,0.311401,0.235107,514
18252567,10054,0.928467,0.318115,0.209595,512
18262539,9972,0.899048,0.312012,0.201416,512
18272513,9974,0.876709,0.304932,0.194214,513
18282557,10044,0.857422,0.299561,0.190918,513
18292514,9957,0.843384,0.298950,0.192139,512
18302522,10008,0.827881,0.290894,0.194702,516
18312528,10006,0.789429,0.277832,0.197754,516
18322520,9992,0.773437,0.274414,0.194458,513
18332540,10020,0.758911,0.275879,0.185059,516
18342536,9996,0.744385,0.278442,0.177368,515
18352512,9976,0.733154,0.279053,0.167603,516
18362531,10019,0.726074,0.274658,0.159058,514
18372512,9981,0.721313,0.273560,0.161743,511
18382526,10014,0.723267,0.274536,0.162231,507
18392529,10003,0.721802,0.271973,0.165771,507
18402511,9982,0.723389,0.261719,0.172729,492
18412512,10001,0.726318,0.254639,0.180908,495
18422521,10009,0.734741,0.274536,0.181885,489
18432536,10015,0.738525,0.262817,0.182983,485
18442536,10000,0.745239,0.259155,0.181519,482
18452523,9987,0.749023,0.266724,0.178589,481
18462525,10002,0.752808,0.282349,0.179810,480
18472514,9989,0.760376,0.325684,0.184082,480
18482524,10010,0.772217,0.342407,0.183228,479
18492515,9991,0.782837,0.353760,0.183960,481
18502546,10031,0.791992,0.360229,0.191284,478
18512535,9989,0.802856,0.364136,0.192139,482
18522535,10000,0.819336,0.380371,0.194946,479
18532512,9977,0.843872,0.386719,0.203003,487
18542536,10024,0.857178,0.393555,0.203369,489
18552520,9984,0.878662,0.409546,0.205811,491
18562533,10013,0.889893,0.408447,0.211792,494
18572519,9986,0.901733,0.407837,0.221191,499
18582535,10016,0.917603,0.440308,0.222412,502
18592520,9985,0.961182,0.462158,0.216553,509
18602531,10011,1.004150,0.479492,0.207397,505
18612536,10005,1.065430,0.490601,0.202759,509
18622538,10002,1.115479,0.504028,0.210693,512
18632520,9982,1.153198,0.536255,0.220947,515
18642521,10001,1.158081,0.509888,0.260742,516
18652534,10013,1.131348,0.496460,0.274536,520
18662511,9977,1.078369,0.491699,0.280640,524
18672516,10005,1.004395,0.499146,0.277832,532
18682540,10024,0.924927,0.500732,0.280762,534
18692530,9990,0.798340,0.512085,0.290283,538
18702529,9999,0.765381,0.525024,0.294678,539
18712512,9983,0.746704,0.524170,0.298828,537
18722533,10021,0.735596,0.511963,0.301025,540
18732531,9998,0.736328,0.493408,0.298584,535
18742522,9991,0.751465,0.471558,0.296753,535
18752529,10007,0.797607,0.468628,0.305542,527
18762537,10008,0.828857,0.481445,0.319214,524
18772512,9975,0.867432,0.492920,0.330322,513
18782555,10043,0.914185,0.505005,0.338623,515
18792540,9985,0.956543,0.512085,0.348755,515
18802539,9999,1.014404,0.544800,0.366333,512
18812535,9996,1.025146,0.547363,0.366821,517
18822536,10001,1.020874,0.536255,0.367432,514
18832538,10002,0.999390,0.533813,0.361816,519
18842538,10000,0.971069,0.538574,0.357300,526
18852534,9996,0.935791,0.545654,0.350586,534
18862522,9988,0.850464,0.544556,0.343384,535
18872519,9997,0.812866,0.531860,0.347290,538
18882522,10003,0.789185,0.496582,0.349609,540
18892513,9991,0.779175,0.442749,0.358643,532
18902526,10013,0.782593,0.416016,0.362061,532
18912533,10007,0.790771,0.372925,0.358154,534
18922516,9983,0.800049,0.366699,0.352783,525
18932515,9999,0.814087,0.372681,0.345825,523
18942539,10024,0.827881,0.373779,0.341431,519
18952525,9986,0.842285,0.381226,0.337402,511
18962517,9992,0.856445,0.403320,0.336792,505
18972561,10044,0.887085,0.437256,0.338989,500
18982528,9967,0.896240,0.447998,0.340576,499
18992538,10010,0.903198,0.454712,0.340454,500
19002526,9988,0.909790,0.453979,0.341064,506
19012545,10019,0.905151,0.449219,0.340332,506
19022521,9976,0.887207,0.430298,0.331177,511
19032533,10012,0.881592,0.423462,0.329712,511
19042540,10007,0.877563,0.414185,0.329346,515
19052527,9987,0.877075,0.407593,0.329712,519
19062536,10009,0.877197,0.402832,0.326782,519
19072529,9993,0.878296,0.397827,0.332031,516
19082532,10003,0.886719,0.385132,0.326904,525
19092537,10005,0.899902,0.378662,0.328735,526
19102522,9985,0.906860,0.370605,0.329956,528
19112539,10017,0.918335,0.367554,0.327515,532
19122536,9997,0.924316,0.364136,0.322021,529
19132515,9979,0.930664,0.354736,0.309570,531
19142532,10017,0.929321,0.354370,0.305176,531
19152540,10008,0.932129,0.356689,0.297119,531
19162519,9979,0.935059,0.357910,0.290039,530
19172516,9997,0.942139,0.350464,0.284180,530
19182534,10018,0.950562,0.340576,0.250000,528
19192539,10005,1.001343,0.327759,0.259399,526
19202517,9978,1.064941,0.328735,0.247925,524
19212518,10001,1.134644,0.319946,0.244263,524
19222514,9996,1.195313,0.308350,0.251709,525
19232512,9998,1.253296,0.302490,0.265015,525
19242519,10007,1.291870,0.319336,0.303101,532
19252539,10020,1.240723,0.334473,0.310791,529
19262533,9994,1.162598,0.331421,0.305298,534
19272517,9984,1.061646,0.317993,0.280762,538
19282519,10002,0.977783,0.317627,0.253174,539
19292518,9999,0.909668,0.321289,0.204468,540
19302529,10011,0.822876,0.282715,0.194946,539
19312539,10010,0.810181,0.249878,0.195679,537
19322520,9981,0.807129,0.243896,0.197388,541
19332522,10002,0.814697,0.213745,0.217163,537
19342540,10018,0.838867,0.178101,0.223633,531
19352535,9995,0.903320,0.279907,0.217773,525
19362511,9976,0.898315,0.258789,0.216675,515
19372514,10003,0.919922,0.251587,0.211914,513
19382520,10006,0.949829,0.259766,0.214966,506
19392525,10005,0.967651,0.270142,0.225220,507
19402531,10006,0.979004,0.275146,0.241943,496
19412527,9996,0.954834,0.263428,0.244019,490
19422524,9997,0.919800,0.259277,0.233398,502
19432545,10021,0.875854,0.257324,0.220337,505
19442534,9989,0.838745,0.242187,0.216797,506
19452536,10002,0.815430,0.232422,0.216309,508
19462556,10020,0.777466,0.242310,0.222778,512
19472535,9979,0.756958,0.251343,0.222412,515
19482530,9995,0.739258,0.255127,0.222046,517
19492528,9998,0.725586,0.258057,0.218384,519
19502532,10004,0.712891,0.257080,0.212280,517
19512520,9988,0.705933,0.252563,0.207520,517
19522521,10001,0.704712,0.248047,0.208252,516
19532540,10019,0.705688,0.248535,0.209229,508
19542521,9981,0.715820,0.251587,0.211304,512
19552524,10003,0.720825,0.249756,0.212036,508
19562532,10008,0.733154,0.250000,0.214600,504
19572530,9998,0.758057,0.273193,0.214355,499
19582536,10006,0.771118,0.277222,0.211792,492
19592523,9987,0.785767,0.286987,0.213745,490
19602534,10011,0.795044,0.296143,0.217041,485
19612511,9977,0.804077,0.304565,0.217773,483
19622512,10001,0.813110,0.322632,0.213867,474
19632528,10016,0.823242,0.335693,0.212769,482
19642512,9984,0.826782,0.343140,0.212891,473
19652534,10022,0.835205,0.351196,0.214355,479
19662547,10013,0.845703,0.356445,0.217773,481
19672531,9984,0.860352,0.360718,0.218506,480
19682513,9982,0.882690,0.373413,0.222656,488
19692514,10001,0.891602,0.378052,0.222046,490
19702540,10026,0.898071,0.381836,0.218994,492
19712522,9982,0.904541,0.384155,0.219604,492
19722536,10014,0.909790,0.386963,0.219604,499
19732520,9984,0.918335,0.389404,0.216187,498
19742537,10017,0.942383,0.389038,0.215210,505
19752528,9991,0.959473,0.390381,0.214722,507
19762521,9993,0.997559,0.394775,0.206543,514
19772525,10004,1.052002,0.399902,0.200928,516
19782533,10008,1.120483,0.419189,0.204468,518
19792516,9983,1.222534,0.444458,0.257690,516
19802518,10002,1.224365,0.438843,0.286499,514
19812522,10004,1.187988,0.441772,0.304932,522
19822530,10008,1.121338,0.443359,0.313965,523
19832537,10007,1.036865,0.422974,0.315552,524
19842529,9992,0.866943,0.424561,0.308716,527
19852511,9982,0.807861,0.428589,0.302246,530
19862518,10007,0.776123,0.419800,0.299683,525
19872564,10046,0.769409,0.409424,0.295288,526
19882549,9985,0.776489,0.394287,0.292480,519
19892531,9982,0.794312,0.378052,0.292969,521
19902532,10001,0.851074,0.373169,0.311401,522
19912525,9993,0.885986,0.385620,0.322388,518
19922532,10007,0.920776,0.392822,0.331909,508
19932521,9989,0.968018,0.401367,0.340820,511
19942532,10011,1.008789,0.418701,0.348389,510
19952540,10008,1.059204,0.443115,0.368774,511
19962512,9972,1.053223,0.457275,0.379272,512
19972519,10007,1.031860,0.465088,0.382080,513
19982519,10000,1.000366,0.470703,0.374390,518
19992518,9999,0.968018,0.477295,0.369385,522
20002520,10002,0.937012,0.478516,0.364502,527
20012517,9997,0.878174,0.481079,0.344360,529
20022525,10008,0.862915,0.458862,0.340332,534
20032534,10009,0.852051,0.420166,0.346558,534
20042518,9984,0.846436,0.395508,0.349121,535
20052535,10017,0.850342,0.383789,0.350098,534
20062527,9992,0.839722,0.357056,0.351563,525
20072512,9985,0.838257,0.348999,0.349609,527
20082537,10025,0.841187,0.348999,0.350220,523
20092529,9992,0.851074,0.343872,0.354370,522
20102555,10026,0.860107,0.341675,0.360352,517
20112517,9962,0.870850,0.347412,0.365967,512
20122526,10009,0.881104,0.367554,0.387573,516
20132511,9985,0.889038,0.368530,0.396484,514
20142528,10017,0.894897,0.369629,0.401123,513
20152529,10001,0.905029,0.375732,0.403076,508
20162526,9997,0.907227,0.381348,0.403076,506
20172529,10003,0.907227,0.382935,0.400146,512
20182520,9991,0.901733,0.382813,0.398438,515
20192520,10000,0.895386,0.379517,0.397095,513
20202538,10018,0.896118,0.379028,0.389893,514
20212523,9985,0.897339,0.376465,0.381226,519
20222530,10007,0.900879,0.367065,0.371582,520
20232517,9987,0.913086,0.331055,0.349243,520
20242511,9994,0.920410,0.314697,0.339844,519
20252529,10018,0.926880,0.304443,0.328369,519
20262530,10001,0.935303,0.299072,0.318359,514
20272519,9989,0.940796,0.295532,0.308960,513
20282515,9996,0.941162,0.289795,0.296997,518
20292524,10009,0.939819,0.287964,0.283936,514
20302537,10013,0.944214,0.286621,0.271484,517
20312521,9984,0.949219,0.285278,0.256592,518
20322539,10018,0.960571,0.280396,0.240234,515
20332516,9977,1.000000,0.279053,0.215454,516
20342520,10004,1.101685,0.273560,0.222290,515
20352511,9991,1.138184,0.269531,0.230469,514
20362536,10025,1.170288,0.269653,0.234131,510
20372526,9990,1.195557,0.278687,0.233765,518
20382526,10000,1.212891,0.293335,0.228149,520
20392531,10005,1.182495,0.316040,0.221436,520
20402526,9995,1.137939,0.323120,0.213257,525
20412515,9989,1.088623,0.325562,0.199097,528
20422531,10016,1.024414,0.319702,0.187866,524
20432535,10004,0.973755,0.293091,0.159058,529
20442521,9986,0.962524,0.255249,0.153931,529
20452538,10017,0.866333,0.290649,0.148437,526
20462522,9984,0.849731,0.280029,0.155762,527
20472535,10013,0.828613,0.237427,0.162476,525
20482527,9992,0.812988,0.223022,0.168213,520
20492527,10000,0.831055,0.230713,0.161987,517
20502522,9995,0.910522,0.229492,0.148315,513
20512535,10013,0.970825,0.223022,0.134277,511
20522522,9987,1.037720,0.209106,0.131836,507
20532519,9997,1.101196,0.197144,0.140137,502
20542547,10028,1.147339,0.188354,0.157959,502
20552536,9989,1.173828,0.198364,0.208618,499
20562539,10003,1.171387,0.237671,0.220703,499
20572525,9986,1.142700,0.285645,0.217041,497
20582556,10031,1.086182,0.301514,0.205566,505
20592538,9982,1.022705,0.311157,0.184937,505
20602520,9982,0.964355,0.310303,0.170044,520
20612540,10020,0.860229,0.286011,0.164429,530
20622528,9988,0.820557,0.271484,0.168213,531
20632516,9988,0.783447,0.250122,0.171997,541
20642516,10000,0.752441,0.221924,0.177734,543
20652531,10015,0.731689,0.198608,0.180176,542
20662872,10341,0.716187,0.168091,0.180664,537
20672532,9660,0.721436,0.161621,0.185547,529
20682513,9981,0.731812,0.161743,0.189575,522
20692533,10020,0.742554,0.166382,0.193237,514
20702527,9994,0.755737,0.173340,0.195068,506
20712539,10012,0.771484,0.181030,0.193237,495
20722530,9991,0.798706,0.199585,0.191895,484
20732540,10010,0.806152,0.208130,0.196045,473
20742537,9997,0.810303,0.216553,0.201538,473
20752524,9987,0.809814,0.223755,0.207275,463
20762539,10015,0.805664,0.223267,0.210327,464
20772524,9985,0.795166,0.228027,0.212158,462
20782533,10009,0.788208,0.233154,0.214111,461
20792562,10029,0.783203,0.235229,0.214966,465
20802530,9968,0.783325,0.238647,0.214355,468
20812521,9991,0.790161,0.246216,0.216187,471
20822531,10010,0.806152,0.260742,0.223267,476
20832540,10009,0.837036,0.291016,0.236572,482
20842556,10016,0.864624,0.312988,0.242065,486
20852521,9965,0.876465,0.323364,0.244141,492
20862540,10019,0.913330,0.343506,0.241333,492
20872515,9975,0.964600,0.362427,0.232544,491
20882532,10017,1.067627,0.374878,0.235840,503
20892528,9996,1.111328,0.388428,0.249146,507
20902523,9995,1.139648,0.404297,0.256714,511
20912531,10008,1.147339,0.416626,0.263428,508
20922517,9986,1.132568,0.419678,0.265747,511
20932517,10000,1.094116,0.423828,0.266479,521
20942539,10022,0.975098,0.415649,0.261108,524
20952511,9972,0.916992,0.410034,0.259399,528
20962540,10029,0.874023,0.402710,0.261230,524
20972539,9999,0.841797,0.399902,0.268677,526
20982519,9980,0.809692,0.472168,0.335449,531
20992521,10002,0.834839,0.070190,0.335083,536
21002528,10007,0.929443,-0.104004,0.268555,534
21012526,9998,0.850952,0.298706,0.301147,537
21022557,10031,0.840454,0.452026,0.288940,532
21032532,9975,0.920044,0.354614,0.299683,521
21042538,10006,0.972168,0.278442,0.321289,514
21052538,10000,1.037720,0.365845,0.380127,509
21062531,9993,1.069824,0.411865,0.390625,501
21072534,10003,1.084717,0.393677,0.397339,498
21082518,9984,1.102295,0.362793,0.411865,499
21092523,10005,1.094116,0.357422,0.421997,500
21102530,10007,1.035278,0.420654,0.426147,504
21112537,10007,0.997314,0.436279,0.418579,512
21122522,9985,0.953735,0.432373,0.414795,514
21132531,10009,0.913330,0.425293,0.417603,519
21142525,9994,0.874268,0.415771,0.421875,525
21152530,10005,0.850830,0.392456,0.423584,526
21162533,10003,0.844360,0.347168,0.429199,521
21172519,9986,0.851562,0.321777,0.420776,522
21182539,10020,0.863647,0.308350,0.416504,524
21192531,9992,0.874023,0.306152,0.411865,519
21202515,9984,0.883179,0.306885,0.408936,516
21212518,10003,0.904175,0.303711,0.398071,510
21222519,10001,0.907593,0.309814,0.394287,503
21232518,9999,0.910522,0.316528,0.392578,500
21242519,10001,0.911011,0.323608,0.389893,505
21252512,9993,0.913818,0.322876,0.390869,502
21262559,10047,0.914062,0.318359,0.388916,503
21272538,9979,0.914429,0.306641,0.383423,504
21282536,9998,0.915894,0.313843,0.379883,498
21292533,9997,0.908691,0.316040,0.377197,502
21302539,10006,0.897949,0.315063,0.383423,508
21312513,9974,0.887207,0.310669,0.387817,512
21322536,10023,0.883057,0.315796,0.390503,509
21332531,9995,0.887817,0.317017,0.390015,517
21342524,9993,0.894775,0.315186,0.390259,522
21352523,9999,0.896973,0.312866,0.387207,521
21362512,9989,0.902222,0.308350,0.384277,523
21372529,10017,0.906738,0.306274,0.380493,524
21382525,9996,0.908447,0.306152,0.371948,526
21392537,10012,0.904785,0.309448,0.362671,522
21402512,9975,0.901733,0.313354,0.356201,521
21412512,10000,0.902222,0.321777,0.347534,523
21422530,10018,0.903564,0.332397,0.334717,523
21432522,9992,0.902466,0.317749,0.324219,516
21442511,9989,0.912842,0.311279,0.316772,520
21452531,10020,0.931152,0.306519,0.309082,513
21462525,9994,0.950562,0.297974,0.303223,516
21472518,9993,0.967896,0.288818,0.300415,516
21482539,10021,0.986694,0.283203,0.296509,514
21492511,9972,1.025513,0.280396,0.289063,515
21502523,10012,1.047729,0.286865,0.283936,510
21512562,10039,1.075317,0.293701,0.275879,511
21522548,9986,1.114868,0.300415,0.267822,517
21532523,9975,1.159790,0.296631,0.266235,520
21542539,10016,1.194092,0.286865,0.287231,520
21552517,9978,1.177734,0.289185,0.284058,522
21562517,10000,1.146851,0.291138,0.274292,523
21572524,10007,1.100708,0.281128,0.260620,532
21582530,10006,1.051270,0.272705,0.254028,528
21592523,9993,1.012451,0.273926,0.240234,525
21602539,10016,0.947510,0.259155,0.220093,528
21612538,9999,0.924438,0.256836,0.212158,519
21622539,10001,0.913086,0.226318,0.209473,524
21632541,10002,0.897461,0.190552,0.212524,522
21642520,9979,0.911377,0.229004,0.192749,519
21652531,10011,0.892578,0.224609,0.201050,516
21662537,10006,0.897095,0.232056,0.198975,513
21672523,9986,0.916504,0.245117,0.204346,510
21682530,10007,0.917969,0.240112,0.209595,508
21692535,10005,0.916382,0.237671,0.210693,498
21702537,10002,0.927734,0.230469,0.210815,503
21712534,9997,0.944092,0.225952,0.213867,502
21722528,9994,0.946045,0.228394,0.219360,501
21732537,10009,0.938599,0.232666,0.221680,505
21742554,10017,0.917114,0.231201,0.219604,503
21752521,9967,0.889771,0.237915,0.212036,513
21762521,10000,0.843994,0.273804,0.195190,516
21772511,9990,0.824707,0.283081,0.189209,525
21782535,10024,0.809570,0.292358,0.189575,523
21792520,9985,0.797974,0.299194,0.191895,530
21802533,10013,0.788696,0.294189,0.193604,532
21812536,10003,0.777710,0.253296,0.190308,538
21822524,9988,0.759521,0.270386,0.188354,538
21832513,9989,0.752441,0.266968,0.185059,536
21842532,10019,0.748535,0.266113,0.181152,531
21852528,9996,0.740723,0.260864,0.183838,529
21862513,9985,0.753296,0.269775,0.179932,517
21872521,10008,0.767212,0.290649,0.172607,512
21882514,9993,0.783081,0.298340,0.172241,510
21892526,10012,0.792969,0.302246,0.174561,494
21902530,10004,0.804321,0.321655,0.174927,499
21912512,9982,0.818604,0.332153,0.175293,492
21922526,10014,0.830811,0.327881,0.172974,487
21932512,9986,0.848633,0.323853,0.168945,480
21942540,10028,0.854370,0.322754,0.160889,486
21952562,10022,0.857300,0.323242,0.155640,484
21962521,9959,0.863159,0.328003,0.150391,483
21972515,9994,0.866211,0.327759,0.148804,478
21982538,10023,0.879150,0.345215,0.145874,479
21992527,9989,0.888306,0.355957,0.145874,487
22002531,10004,0.898193,0.364990,0.145386,489
22012523,9992,0.908691,0.368530,0.145508,484
22022523,10000,0.921265,0.367310,0.147949,492
22032523,10000,0.943726,0.369995,0.147949,491
22042515,9992,0.958496,0.368042,0.149048,504
22052511,9996,0.971313,0.367920,0.152954,506
22062514,10003,0.979736,0.369263,0.158081,509
22072519,10005,0.990723,0.371338,0.165161,512
22082518,9999,0.998047,0.371704,0.172485,515
22092522,10004,1.016602,0.377563,0.171875,517
22102537,10015,1.047241,0.380859,0.169556,518
22112529,9992,1.098267,0.383667,0.168579,524
22122530,10001,1.162964,0.389648,0.181885,526
22132529,9999,1.217896,0.392334,0.209839,529
22142535,10006,1.250000,0.398071,0.271851,527
22152531,9996,1.207886,0.408569,0.296997,524
22162561,10030,1.116577,0.411377,0.316895,529
22172539,9978,1.000122,0.410278,0.325562,529
22182535,9996,0.884644,0.419800,0.326660,533
22192536,10001,0.790039,0.433472,0.334229,529
22202557,10021,0.708008,0.414795,0.353882,524
22212532,9975,0.703857,0.391113,0.363281,519
22222516,9984,0.719116,0.366943,0.375732,515
22232534,10018,0.747192,0.353027,0.386108,504
22242520,9986,0.780762,0.348633,0.396851,501
22252524,10004,0.858398,0.380859,0.410645,495
22262537,10013,0.911621,0.394409,0.420410,491
22272515,9978,0.980469,0.407715,0.432251,487
22282531,10016,1.037964,0.419312,0.446899,481
22292526,9995,1.074951,0.436279,0.452759,480
22302534,10008,1.086914,0.445068,0.445679,481
22312511,9977,1.031128,0.449951,0.417847,486
22322521,10010,0.997192,0.453247,0.405640,492
22332540,10019,0.961792,0.454956,0.399780,498
22342512,9972,0.924316,0.453369,0.395264,499
22352515,10003,0.889404,0.432861,0.396362,511
22362525,10010,0.846558,0.371704,0.391113,518
22372513,9988,0.831909,0.349121,0.379395,525
22382554,10041,0.817871,0.326050,0.364624,528
22392538,9984,0.815552,0.309082,0.349731,531
22402527,9989,0.822510,0.299805,0.340454,533
22412520,9993,0.833252,0.294067,0.331177,534
22422513,9993,0.861206,0.289673,0.319824,535
22432514,10001,0.876343,0.292847,0.317261,531
22442537,10023,0.880249,0.299805,0.321289,530
22452537,10000,0.882935,0.309937,0.325439,525
22462534,9997,0.880981,0.316162,0.334717,521
22472520,9986,0.882568,0.332275,0.347778,523
22482514,9994,0.889038,0.337524,0.344604,517
22492532,10018,0.892334,0.337280,0.340698,511
22502518,9986,0.896484,0.332886,0.339355,513
22512525,10007,0.906006,0.326660,0.339233,513
22522520,9995,0.911133,0.325684,0.346558,514
22532535,10015,0.924927,0.336670,0.350342,515
22542521,9986,0.928223,0.343018,0.356323,507
22552520,9999,0.925171,0.349731,0.357666,516
22562540,10020,0.925171,0.358032,0.350952,518
22572517,9977,0.927856,0.364136,0.341187,518
22582526,10009,0.940308,0.354370,0.326904,520
22592559,10033,0.945312,0.341431,0.321899,522
22602520,9961,0.950562,0.333618,0.320679,522
22612514,9994,0.957642,0.330444,0.316772,523
22622521,10007,0.961304,0.331787,0.309814,520
22632542,10021,0.964233,0.332397,0.282471,522
22642521,9979,0.975342,0.321045,0.271118,521
22652523,10002,0.995361,0.313354,0.263672,518
22662517,9994,1.022339,0.309937,0.263062,520
22672539,10022,1.043091,0.311157,0.270630,522
22682539,10000,1.055542,0.314819,0.277466,521
22692534,9995,1.067993,0.327393,0.251953,522
22702540,10006,1.061523,0.315552,0.232178,516
22712531,9991,1.057861,0.292114,0.218994,521
22722516,9985,1.061523,0.270508,0.210571,519
22732528,10012,1.069214,0.268921,0.211426,530
22742532,10004,1.088501,0.267578,0.218750,530
22752531,9999,1.077759,0.236694,0.251953,531
22762513,9982,1.072632,0.222900,0.277954,531
22772537,10024,1.068604,0.294067,0.263916,531
22782518,9981,1.046631,0.324585,0.255005,531
22792533,10015,1.003052,0.285645,0.240356,531
22802556,10023,0.988770,0.269287,0.197144,530
22812512,9956,0.971313,0.253174,0.187744,525
22822531,10019,0.946655,0.230835,0.189941,529
22832522,9991,0.939697,0.215942,0.196777,528
22842512,9990,0.943604,0.201294,0.205811,527
22852541,10029,0.938354,0.191406,0.201538,523
22862529,9988,0.925659,0.190796,0.198608,518
22872520,9991,0.923828,0.200928,0.190308,517
22882518,9998,0.921509,0.213867,0.186768,513
22892519,10001,0.916260,0.225952,0.188843,514
22902534,10015,0.905396,0.232178,0.192139,513
22912526,9992,0.870483,0.260254,0.186279,513
22922523,9997,0.852051,0.276001,0.179321,514
22932530,10007,0.832153,0.279541,0.169800,509
22942537,10007,0.799438,0.272583,0.159058,511
22952525,9988,0.757080,0.260010,0.157227,510
22962517,9992,0.680420,0.236816,0.168457,504
22972536,10019,0.659424,0.221924,0.180664,506
22982525,9989,0.642700,0.201172,0.193115,504
22992535,10010,0.638306,0.194946,0.204834,503
23002540,10005,0.637573,0.204102,0.211670,491
23012521,9981,0.639771,0.218628,0.212524,487
23022533,10012,0.667114,0.252686,0.211914,486
23032515,9982,0.689453,0.270996,0.211182,480
23042536,10021,0.713379,0.291504,0.208984,472
23052516,9980,0.741211,0.308960,0.206055,470
23062550,10034,0.767456,0.320435,0.209839,457
23072512,9962,0.805664,0.367432,0.227539,459
23082526,10014,0.819092,0.381836,0.238525,456
23092520,9994,0.841187,0.401245,0.246094,447
23102513,9993,0.860596,0.425293,0.245239,451
23112514,10001,0.866333,0.443848,0.239868,453
23122537,10023,0.881348,0.449219,0.227905,446
23132511,9974,0.918945,0.465576,0.220215,457
23142518,10007,0.924438,0.472534,0.219727,461
23152517,9999,0.931396,0.477539,0.212524,467
23162519,10002,0.946289,0.484131,0.205078,472
23172535,10016,0.957642,0.493286,0.195923,479
23182517,9982,0.954834,0.494263,0.184692,484
23192529,10012,0.952759,0.486572,0.182739,492
23202525,9996,0.953491,0.473511,0.179932,498
23212516,9991,0.948730,0.453979,0.179321,499
23222561,10045,0.950562,0.443848,0.181274,503
23232531,9970,0.956421,0.433350,0.186523,515
23242537,10006,0.961548,0.427734,0.187500,517
23252532,9995,0.969849,0.433594,0.191040,513
23262511,9979,0.994751,0.449341,0.191162,522
23272522,10011,1.022705,0.463867,0.188232,524
23282512,9990,1.057617,0.475586,0.186279,524
23292533,10021,1.116089,0.500122,0.205688,521
23302523,9990,1.132202,0.510010,0.219482,518
23312511,9988,1.129761,0.518677,0.238525,518
23322529,10018,1.103638,0.523071,0.260254,519
23332532,10003,1.055420,0.520630,0.281006,518
23342534,10002,0.989258,0.522583,0.302856,511
23352528,9994,0.834351,0.519165,0.305298,511
23362515,9987,0.779785,0.520264,0.304199,510
23372525,10010,0.760132,0.523804,0.292236,514
23382514,9989,0.740356,0.512329,0.280151,512
23392522,10008,0.728638,0.495972,0.270386,508
23402511,9989,0.751465,0.455566,0.277588,500
23412539,10028,0.789551,0.434814,0.288208,500
23422516,9977,0.841431,0.435181,0.299927,497
23432528,10012,0.907715,0.445068,0.303345,488
23442557,10029,0.966187,0.448364,0.302124,494
23452540,9983,1.046997,0.494629,0.296875,490
23462514,9974,1.075684,0.515991,0.302002,484
23472520,10006,1.082642,0.517700,0.320923,486
23482534,10014,1.070435,0.507202,0.345459,489
23492532,9998,1.042969,0.496704,0.363647,492
23502536,10004,1.003784,0.471191,0.372192,496
23512540,10004,0.932861,0.442627,0.382324,502
23522526,9986,0.899414,0.455566,0.363647,501
23532523,9997,0.872070,0.459717,0.342041,514
23542527,10004,0.849365,0.449097,0.324951,517
23552516,9989,0.840942,0.433228,0.315674,527
23562528,10012,0.854126,0.394043,0.328003,532
23572533,10005,0.864502,0.383423,0.335938,534
23582517,9984,0.863770,0.368042,0.346558,532
23592540,10023,0.852905,0.356201,0.348145,532
23602526,9986,0.849609,0.358521,0.338623,529
23612533,10007,0.856323,0.360474,0.324951,529
23622519,9986,0.873535,0.366821,0.288208,521
23632525,10006,0.886230,0.361816,0.278687,523
23642521,9996,0.891357,0.350952,0.274170,522
23652537,10016,0.894897,0.345703,0.273926,519
23662544,10007,0.891113,0.345215,0.274292,517
23672526,9982,0.893799,0.354614,0.260986,516
23682535,10009,0.912842,0.365967,0.247314,511
23692528,9993,0.953003,0.273315,0.258179,510
23702519,9991,0.956543,0.296143,0.255249,503
23712531,10012,0.933228,0.354492,0.249878,501
23722513,9982,0.910889,0.405273,0.237793,504
23732525,10012,0.938477,0.367188,0.220337,505
23742530,10005,0.949585,0.307739,0.221680,506
23752520,9990,0.941528,0.315430,0.217285,502
23762513,9993,0.949341,0.337402,0.221436,508
23772529,10016,0.960449,0.317871,0.216064,509
23782533,10004,0.980347,0.314819,0.209717,503
23792528,9995,1.003540,0.334229,0.218628,507
23802520,9992,1.019043,0.370850,0.221313,514
23812524,10004,1.026611,0.379883,0.218750,518
23822537,10013,1.027588,0.374878,0.226196,518
23832532,9995,1.051147,0.379028,0.231567,522
23842636,10104,1.150269,0.414551,0.229004,520
23852538,9902,1.209595,0.415039,0.240723,530
23862521,9983,1.282837,0.398315,0.232422,528
23872534,10013,1.290527,0.404419,0.251465,532
23882536,10002,1.289795,0.433350,0.256714,527
23892516,9980,1.187378,0.397705,0.245850,527
23902521,10005,1.121826,0.390625,0.229980,533
23912532,10011,1.081299,0.393188,0.210693,535
23922517,9985,1.040283,0.386719,0.205566,532
23932530,10013,1.011841,0.362305,0.201904,528
23942530,10000,0.993652,0.322876,0.197021,532
23952540,10010,0.967163,0.261475,0.190063,528
23962556,10016,0.949585,0.237427,0.173706,523
23972514,9958,0.933838,0.225586,0.161377,515
23982512,9998,0.928833,0.221313,0.149780,507
23992516,10004,0.928711,0.220947,0.140869,495
24002533,10017,0.926025,0.217651,0.131470,497
24012513,9980,0.930176,0.220337,0.133789,495
24022530,10017,0.949951,0.227173,0.133179,484
24032539,10009,0.964478,0.233765,0.129761,486
24042897,10358,0.972046,0.238281,0.132568,484
24052525,9628,0.976685,0.235718,0.139282,473
24062536,10011,0.941284,0.246704,0.133667,478
24072534,9998,0.910767,0.255371,0.123047,481
24082534,10000,0.879395,0.260132,0.111816,482
24092540,10006,0.846680,0.260498,0.100708,481
24102521,9981,0.813721,0.261597,0.093750,484
24112530,10009,0.750244,0.261963,0.086792,496
24122523,9993,0.722534,0.250122,0.086426,499
24132534,10011,0.699951,0.232178,0.090210,507
24142532,9998,0.677979,0.215576,0.093628,511
24152564,10032,0.672729,0.211060,0.099854,510
24162545,9981,0.665894,0.196411,0.108398,511
24172518,9973,0.667114,0.217163,0.119263,507
24182532,10014,0.675781,0.229248,0.122192,506
24192518,9986,0.685913,0.227783,0.122681,502
24202552,10034,0.697876,0.228638,0.122803,498
24212525,9973,0.715332,0.239258,0.120483,492
24222517,9992,0.762451,0.256470,0.111938,478
24232517,10000,0.795898,0.267700,0.108521,472
24242531,10014,0.822998,0.295288,0.105835,476
24252517,9986,0.843506,0.334717,0.104858,473
24262528,10011,0.860229,0.376221,0.106567,475
24272534,10006,0.883301,0.417236,0.108398,469
24282526,9992,0.912720,0.470581,0.111450,472
24292517,9991,0.927124,0.489502,0.108643,472
24302529,10012,0.945190,0.501099,0.108521,472
24312532,10003,0.958008,0.514648,0.106445,474
24322536,10004,0.972412,0.527344,0.110474,474
24332528,9992,0.986450,0.527466,0.110474,477
24342528,10000,0.991943,0.531982,0.126099,489
24352513,9985,0.980225,0.524292,0.131104,487
24362531,10018,0.973633,0.525269,0.127319,498
24372531,10000,0.968628,0.542847,0.125732,502
24382535,10004,0.962402,0.556641,0.132446,514
24392520,9985,0.947266,0.562622,0.134888,518
24402512,9992,0.953857,0.569946,0.137817,515
24412539,10027,0.966064,0.580200,0.138428,521
24422514,9975,0.988525,0.585327,0.143433,527
24432536,10022,1.015869,0.599365,0.148315,529
24442526,9990,1.109619,0.613770,0.139404,529
24453736,11210,1.162354,0.640747,0.163452,523
24462522,8786,1.238037,0.651123,0.195190,521
24472536,10014,1.225220,0.643921,0.211182,514
24482538,10002,1.172241,0.618042,0.221436,518
24492520,9982,1.152222,0.651367,0.256592,517
24502518,9998,1.026611,0.629883,0.283936,515
24512520,10002,0.945801,0.628418,0.309204,514
24522512,9992,0.884155,0.623657,0.329956,509
24532527,10015,0.823486,0.606934,0.335205,516
24542528,10001,0.781616,0.598022,0.326782,516
24552537,10009,0.735107,0.581665,0.316284,514
24562523,9986,0.722534,0.559326,0.309082,514
24572517,9994,0.717163,0.539917,0.305420,512
24582536,10019,0.720825,0.525635,0.311157,510
24592554,10018,0.732300,0.512695,0.321289,508
24602524,9970,0.789795,0.494873,0.325806,500
24612520,9996,0.839722,0.480225,0.325439,498
24622513,9993,0.886963,0.468262,0.321777,491
24632532,10019,0.931885,0.466187,0.318726,488
24642522,9990,0.963745,0.469360,0.320801,478
24652525,10003,0.976807,0.482300,0.324219,474
24662521,9996,0.964722,0.490601,0.321289,476
24672529,10008,0.932983,0.479980,0.314331,474
24682516,9987,0.897461,0.471680,0.308472,477
24692536,10020,0.868164,0.459106,0.301147,481
24702528,9992,0.846802,0.448730,0.296143,482
24712540,10012,0.824341,0.403442,0.295044,479
24722532,9992,0.817627,0.375854,0.291626,489
24732536,10004,0.815430,0.362061,0.285767,492
24742525,9989,0.820801,0.349487,0.279175,493
24752523,9998,0.825806,0.340820,0.276489,499
24762525,10002,0.833496,0.334717,0.280273,501
24772512,9987,0.828369,0.329956,0.302856,507
24782536,10024,0.830444,0.338013,0.306885,509
24792518,9982,0.836426,0.354370,0.304199,506
24802536,10018,0.847412,0.362793,0.300049,512
24812561,10025,0.856323,0.362549,0.299316,507
24822526,9965,0.891724,0.359985,0.301147,514
24832520,9994,0.910889,0.359985,0.303223,514
24842531,10011,0.926270,0.359985,0.303955,513
24852525,9994,0.950317,0.371582,0.304565,511
24862521,9996,0.965332,0.375000,0.309448,512
24872516,9995,0.980835,0.378174,0.310303,509
24882537,10021,1.001709,0.381104,0.302979,510
24892524,9987,1.008911,0.385254,0.297241,511
24902534,10010,1.015747,0.384888,0.294556,506
24912523,9989,1.017456,0.380859,0.295044,513
24922512,9989,1.017212,0.379150,0.293579,516
24932511,9999,1.014771,0.379883,0.286865,519
24942518,10007,1.010498,0.378540,0.286011,519
24952539,10021,1.006470,0.376221,0.282593,522
24962529,9990,1.005005,0.369995,0.277222,524
24972539,10010,1.006714,0.364502,0.271851,517
24982531,9992,1.009644,0.351440,0.267944,525
24992534,10003,1.000244,0.315796,0.260742,518
25002524,9990,1.014038,0.305786,0.252930,522
25012536,10012,1.024170,0.305786,0.239746,525
25022536,10000,1.039185,0.328857,0.240356,526
25032517,9981,1.044678,0.342041,0.218872,525
25042519,10002,1.039063,0.303345,0.251465,515
25052530,10011,1.068848,0.351074,0.230347,520
25062530,10000,1.107178,0.374268,0.217285,520
25072524,9994,1.115723,0.339966,0.213867,518
25082522,9998,1.146851,0.328247,0.211304,518
25092533,10011,1.160889,0.338135,0.244751,518
25102524,9991,1.122314,0.330078,0.231689,514
25112539,10015,1.092041,0.310425,0.231689,515
25122531,9992,1.057007,0.288086,0.225586,512
25132517,9986,1.005859,0.266968,0.208618,515
25142513,9996,0.969727,0.263916,0.184814,519
25152515,10002,0.917236,0.265015,0.149780,523
25162514,9999,0.905396,0.255249,0.138550,527
25172523,10009,0.898437,0.243774,0.126343,522
25182537,10014,0.888550,0.229858,0.114990,516
25192521,9984,0.876099,0.218018,0.112183,519
25202516,9995,0.867065,0.216553,0.111694,515
25212537,10021,0.846558,0.214966,0.115967,509
25222536,9999,0.828613,0.207764,0.125366,497
25232525,9989,0.817017,0.209473,0.128418,498
25242520,9995,0.809937,0.213989,0.119873,487
25252564,10044,0.812256,0.218384,0.109741,482
25262516,9952,0.838135,0.214966,0.102905,483
25272517,10001,0.852905,0.206543,0.110107,483
25282519,10002,0.868530,0.208252,0.119507,479
25292555,10036,0.873535,0.220215,0.133301,480
25302540,9985,0.873047,0.232056,0.146729,478
25312540,10000,0.858521,0.240479,0.166138,482
25322541,10001,0.816284,0.257813,0.176270,477
25332511,9970,0.794800,0.281372,0.184082,488
25342538,10027,0.766479,0.296631,0.189209,494
25352517,9979,0.746338,0.310669,0.191650,495
25362519,10002,0.728149,0.316040,0.195312,499
25372514,9995,0.708252,0.325806,0.189941,507
25382518,10004,0.706299,0.329102,0.191406,505
25392515,9997,0.713745,0.334595,0.197144,508
25402529,10014,0.727661,0.335083,0.203735,510
25412526,9997,0.743774,0.337280,0.213257,504
25422527,10001,0.797852,0.343506,0.235718,508
25432540,10013,0.811279,0.350098,0.240479,504
25442537,9997,0.825928,0.355103,0.240112,496
25452530,9993,0.853882,0.377075,0.234253,492
25462539,10009,0.879272,0.396362,0.228271,490
25472516,9977,0.894775,0.401611,0.220947,487
25482516,10000,0.940063,0.422974,0.207886,483
25492515,9999,0.964233,0.448364,0.207275,489
25502526,10011,0.978271,0.460083,0.205078,490
25512536,10010,0.989746,0.467651,0.199829,488
25522516,9980,1.006592,0.473267,0.190186,491
25532528,10012,1.032959,0.491943,0.168701,492
25542537,10009,1.033325,0.493774,0.164062,499
25552518,9981,1.037354,0.500732,0.161743,497
25562522,10004,1.039429,0.507080,0.163696,504
25572516,9994,1.036865,0.503540,0.169434,508
25582513,9997,1.040405,0.500488,0.174438,512
25592520,10007,1.054321,0.509521,0.177856,510
25602522,10002,1.062744,0.512207,0.180298,516
25612522,10000,1.066895,0.509521,0.186157,519
25622520,9998,1.071411,0.504028,0.195190,522
25632514,9994,1.077759,0.498047,0.204224,524
25642519,10005,1.121460,0.512695,0.218262,523
25652537,10018,1.143921,0.541504,0.221680,523
25662518,9981,1.160400,0.574341,0.222900,523
25672538,10020,1.151978,0.596191,0.230835,523
25682561,10023,1.135498,0.606079,0.247803,518
25692534,9973,1.104858,0.607544,0.265137,521
25702540,10006,0.996826,0.608765,0.303101,518
25712523,9983,0.927856,0.600342,0.310059,521
25722531,10008,0.856445,0.592529,0.309204,512
25732551,10020,0.795532,0.580078,0.301147,513
25742535,9984,0.745483,0.569580,0.291260,514
25752512,9977,0.690552,0.529419,0.284302,507
25762512,10000,0.676880,0.510620,0.283325,501
25772536,10024,0.684692,0.484863,0.285278,503
25782515,9979,0.704224,0.454346,0.289307,501
25792514,9999,0.733154,0.441895,0.292847,498
25802525,10011,0.762817,0.442017,0.290894,492
25812523,9998,0.849121,0.464478,0.298096,491
25822537,10014,0.894775,0.470337,0.303833,486
25832516,9979,0.934570,0.484619,0.307129,487
25842520,10004,0.953491,0.494873,0.313354,479
25852531,10011,0.954224,0.496826,0.316284,483
25862532,10001,0.925049,0.490601,0.296265,485
25872534,10002,0.908936,0.482788,0.282471,488
25882526,9992,0.900635,0.477905,0.272583,490
25892513,9987,0.897339,0.474121,0.265137,489
25902532,10019,0.894653,0.453491,0.270630,493
25912523,9991,0.895020,0.425659,0.277710,495
25922530,10007,0.889648,0.382568,0.278564,499
25932534,10004,0.885132,0.370728,0.271118,499
25942512,9978,0.882568,0.357300,0.263184,507
25952517,10005,0.887695,0.349121,0.258057,508
25962529,10012,0.897339,0.345581,0.261353,510
25972543,10014,0.927490,0.354126,0.261230,511
25982540,9997,0.938477,0.360718,0.258423,515
25992538,9998,0.946289,0.365112,0.260254,509
26002530,9992,0.955933,0.369385,0.265747,512
26012523,9993,0.971680,0.372437,0.266357,513
26022515,9992,0.983765,0.375977,0.267578,510
26032537,10022,0.997314,0.378052,0.267090,516
26042511,9974,0.996338,0.380737,0.269775,516
26052527,10016,0.991211,0.382568,0.271240,515
26062521,9994,1.072144,0.393311,0.297974,515
26072524,10003,0.920288,0.343140,0.268921,519
26082519,9995,0.989746,0.354614,0.282471,522
26092538,10019,0.977173,0.320313,0.262451,524
26102531,9993,0.972534,0.300171,0.266602,522
26112531,10000,0.996826,0.317993,0.281616,524
26122518,9987,1.002563,0.356812,0.295898,526
26132520,10002,0.987671,0.381714,0.273926,526
26142541,10021,0.990112,0.389038,0.290405,525
26152535,9994,0.965454,0.358765,0.280273,528
26162522,9987,0.979126,0.392944,0.270508,527
26172511,9989,0.976929,0.397827,0.270996,529
26182521,10010,0.979370,0.387207,0.265747,522
26192556,10035,0.985962,0.368286,0.260010,519
26202533,9977,1.000366,0.379639,0.259033,524
26212539,10006,1.003906,0.393066,0.260010,522
26222531,9992,1.001465,0.392456,0.260986,522
26232535,10004,1.007690,0.384399,0.257202,519
26242514,9979,1.019531,0.373047,0.239136,522
26252511,9997,1.067993,0.384277,0.246582,524
26262531,10020,1.072510,0.363403,0.250610,518
26272531,10000,1.064087,0.325562,0.261108,521
26282526,9995,1.059814,0.322998,0.256958,522
26292519,9993,1.045776,0.333496,0.244751,517
26302519,10000,0.981934,0.321411,0.217041,521
26312533,10014,0.948730,0.330688,0.207275,525
26322525,9992,0.910645,0.341553,0.203613,520
26332525,10000,0.873047,0.332275,0.194336,527
26342526,10001,0.835815,0.304077,0.181152,526
26352562,10036,0.805542,0.255615,0.143188,524
26362528,9966,0.785400,0.235840,0.128296,523
26372512,9984,0.778931,0.225586,0.113403,518
26382520,10008,0.777222,0.215942,0.110840,510
26392534,10014,0.786743,0.216064,0.106567,509
26402542,10008,0.795776,0.219727,0.105713,504
26412536,9994,0.832397,0.233032,0.124023,491
26422518,9982,0.840942,0.252930,0.143433,489
26432529,10011,0.840698,0.271484,0.163574,486
26442516,9987,0.830444,0.280884,0.172729,487
26452534,10018,0.810791,0.283081,0.167114,489
26462537,10003,0.765015,0.275635,0.139038,483
26472523,9986,0.745117,0.273560,0.131836,487
26482513,9990,0.727051,0.275391,0.132690,496
26492523,10010,0.716309,0.286499,0.139526,499
26502538,10015,0.713135,0.309814,0.151245,506
26512516,9978,0.718750,0.338379,0.161011,501
26522520,10004,0.741943,0.399414,0.152344,506
26532517,9997,0.747192,0.407837,0.144897,513
26542529,10012,0.772705,0.411377,0.135254,512
26552514,9985,0.780151,0.381104,0.132690,512
26562516,10002,0.796509,0.376465,0.134644,512
26572535,10019,0.827515,0.437866,0.153198,507
26582518,9983,0.844849,0.432251,0.151001,495
26592532,10014,0.869751,0.408813,0.176514,496
26602524,9992,0.903564,0.369873,0.202393,495
26612513,9989,0.935181,0.346802,0.201782,491
26622530,10017,0.962524,0.350220,0.180908,497
26632512,9982,1.001099,0.417847,0.136719,499
26642536,10024,1.011963,0.443481,0.122070,502
26652527,9991,1.016602,0.472168,0.113159,502
26662529,10002,1.017822,0.511719,0.117188,511
26672519,9990,1.017578,0.562012,0.126465,506
26682536,10017,1.035767,0.639038,0.115356,513
26692527,9991,1.078857,0.647827,0.112305,515
26702534,10007,1.036133,0.660278,0.074585,512
26712515,9981,0.992432,0.618652,0.073853,514
26722522,10007,1.055420,0.561768,0.073608,514
26732520,9998,1.024658,0.536743,0.092651,507
26742521,10001,1.000610,0.503540,0.072632,514
26752517,9996,1.002319,0.489868,0.071167,517
26762531,10014,1.018311,0.476318,0.072632,515
26772536,10005,1.045898,0.469116,0.071411,517
26782519,9983,1.076538,0.465576,0.063843,523
26792524,10005,1.172852,0.448364,0.072998,526
26802540,10016,1.210083,0.453003,0.095825,524
26812535,9995,1.220093,0.469849,0.122070,531
26822527,9992,1.221558,0.487915,0.143066,532
26832520,9993,1.201904,0.513550,0.154419,534
26842537,10017,1.160278,0.537231,0.165405,533
26852531,9994,1.024414,0.533691,0.192139,535
26862532,10001,0.948242,0.522949,0.206055,534
26872530,9998,0.874634,0.510620,0.226196,535
26882511,9981,0.804932,0.497803,0.236694,533
26892516,10005,0.747925,0.478638,0.244507,528
26902527,10011,0.702026,0.456177,0.237183,527
26912535,10008,0.711060,0.447632,0.224609,521
26922535,10000,0.733643,0.439453,0.219360,514
26932536,10001,0.771729,0.439209,0.222046,506
26942512,9976,0.819092,0.436890,0.234497,492
26952517,10005,0.859985,0.438477,0.251099,489
26962530,10013,0.941406,0.417236,0.293579,487
26972516,9986,0.958496,0.393921,0.311646,478
26982518,10002,0.961426,0.392700,0.311768,472
26992518,10000,0.950195,0.408569,0.297241,474
27002527,10009,0.932983,0.415405,0.281738,475
27012519,9992,0.917725,0.413086,0.269775,471
27022559,10040,0.912109,0.397217,0.275024,466
27032535,9976,0.910767,0.378784,0.281372,480
27042519,9984,0.908936,0.360840,0.292603,486
27052530,10011,0.912964,0.343506,0.301025,494
27062529,9999,0.900024,0.318359,0.301392,497
27072531,10002,0.873779,0.297485,0.299194,499
27082529,9998,0.868530,0.296143,0.295776,503
27092535,10006,0.866455,0.297974,0.299438,507
27102540,10005,0.876343,0.312378,0.312012,512
27112540,10000,0.887817,0.324951,0.328857,517
27122521,9981,0.906494,0.324951,0.339722,519
27132515,9994,0.910889,0.332520,0.341431,525
27142513,9998,0.918335,0.328125,0.340820,524
27152522,10009,0.926880,0.320313,0.341431,530
27162524,10002,0.934326,0.323853,0.339600,528
27172519,9995,0.943237,0.325439,0.338501,539
27182535,10016,0.962158,0.307129,0.339111,540
27192520,9985,0.966187,0.305542,0.336060,541
27202523,10003,0.971436,0.303833,0.328979,537
27212538,10015,0.977173,0.308350,0.316406,540
27222526,9988,0.986450,0.309692,0.304199,546
27232537,10011,1.000732,0.308105,0.279663,544
27242539,10002,1.003418,0.306641,0.269653,540
27252551,10012,1.001221,0.304688,0.257202,533
27262532,9981,0.999878,0.303345,0.243408,532
27272532,10000,1.000488,0.298218,0.234985,533
27282529,9997,1.003174,0.273682,0.223633,532
27292517,9988,1.033081,0.262939,0.220703,524
27302550,10033,1.055664,0.252197,0.222778,527
27312512,9962,1.074585,0.246338,0.223145,526
27322513,10001,1.088257,0.247192,0.222534,526
27332516,10003,1.093384,0.252930,0.222900,520
27342537,10021,1.110107,0.273315,0.208496,530
27352533,9996,1.110840,0.274536,0.198242,529
27362537,10004,1.129028,0.286621,0.187134,528
27372517,9980,1.144653,0.310303,0.169678,528
27382515,9998,1.196411,0.313110,0.153809,528
27392511,9996,1.325073,0.264893,0.161621,530
27402532,10021,1.372681,0.273682,0.198486,527
27412539,10007,1.389160,0.265747,0.255249,520
27422515,9976,1.352173,0.250488,0.281128,526
27432535,10020,1.270386,0.294678,0.262085,525
27442512,9977,1.172974,0.320313,0.245117,528
27452526,10014,0.995605,0.285156,0.201050,531
27462525,9999,0.963867,0.284058,0.170776,534
27472565,10040,0.940796,0.258911,0.147217,534
27482552,9987,0.927856,0.214111,0.130737,530
27492527,9975,0.931030,0.181396,0.125854,525
27502538,10011,0.916138,0.135254,0.142578,525
27512541,10003,0.908447,0.137573,0.147827,520
27522524,9983,0.907959,0.139526,0.146118,509
27532553,10029,0.927490,0.147095,0.140625,507
27542514,9961,0.962158,0.161621,0.136108,499
27552535,10021,0.989502,0.178467,0.125977,495
27562534,9999,0.992676,0.201538,0.098633,491
27572536,10002,0.982056,0.192505,0.102539,488
27582524,9988,0.960693,0.179932,0.116089,487
27592527,10003,0.927979,0.182861,0.124512,487
27602511,9984,0.885132,0.198853,0.120728,489
27612536,10025,0.778687,0.206909,0.093506,493
27622528,9992,0.729736,0.197266,0.089233,501
27632531,10003,0.684814,0.193970,0.103760,506
27642514,9983,0.650635,0.187256,0.130249,515
27652537,10023,0.629517,0.176025,0.145996,514
27662534,9997,0.612915,0.165649,0.150879,525
27672536,10002,0.598755,0.166504,0.154175,524
27682515,9979,0.619141,0.179443,0.140869,525
27692555,10040,0.651855,0.203247,0.115112,527
27702532,9977,0.673950,0.222168,0.092285,521
27712532,10000,0.687988,0.232788,0.085083,518
27722535,10003,0.742920,0.271973,0.110474,511
27732518,9983,0.791382,0.309448,0.119507,505
27742518,10000,0.839111,0.318848,0.120361,496
27752540,10022,0.872070,0.317505,0.126587,486
27762530,9990,0.910278,0.338745,0.128540,483
27772531,10001,0.937012,0.345825,0.140381,469
27782536,10005,0.973999,0.314697,0.134888,471
27792519,9983,0.989746,0.330811,0.139160,471
27802532,10013,0.992065,0.361694,0.139160,471
27812520,9988,0.991943,0.387207,0.138306,468
27822515,9995,0.999023,0.421143,0.134766,478
27832518,10003,1.015259,0.474976,0.131348,485
27842514,9996,1.013306,0.476196,0.132812,491
27852536,10022,1.023315,0.466064,0.140747,498
27862520,9984,1.037842,0.459595,0.148315,504
27872532,10012,1.051147,0.447144,0.161011,509
27882518,9986,0.994751,0.873779,0.585571,517
27892529,10011,0.645996,2.977539,0.520020,549
27902527,9998,1.139038,1.262695,0.812622,589
27912549,10022,1.598877,-0.692627,1.095459,608
27922540,9991,1.105469,-0.270386,0.470337,644
27932520,9980,1.038208,0.001465,0.293579,678
27942515,9995,1.371826,-0.822510,0.072876,718
27952517,10002,1.162109,-0.651855,-0.157715,738
27962530,10013,1.207031,-0.162476,-0.097778,737
27972526,9996,1.082031,0.617432,-0.032959,707
27982532,10006,0.920410,0.907104,-0.054565,650
27992588,10056,0.826172,0.805664,0.018433,576
28002515,9927,0.774292,0.772705,0.072998,497
28012535,10020,0.774048,0.765381,0.137329,428
28022516,9981,0.811768,0.711426,0.209106,363
28032518,10002,0.898682,0.626587,0.268921,314
28042521,10003,0.987915,0.539551,0.273804,296
28052525,10004,1.015259,0.413818,0.163086,292
28062513,9988,1.012817,0.354248,0.107544,304
28072533,10020,0.998779,0.304321,0.056274,331
28082524,9991,0.977295,0.255493,0.023071,352
28092515,9991,0.967773,0.224487,0.007690,404
28102526,10011,0.937622,0.281250,0.032959,439
28112557,10031,0.944946,0.363403,0.062378,463
28122528,9971,0.930908,0.464478,0.102051,485
28132523,9995,0.919434,0.559814,0.136719,506
28142511,9988,0.913208,0.600464,0.157715,514
28152532,10021,0.900269,0.582764,0.163940,518
28162527,9995,0.863281,0.507202,0.164185,523
28172539,10012,0.855469,0.497437,0.163330,537
28182525,9986,0.846191,0.475586,0.158081,526
28192534,10009,0.830200,0.437256,0.154053,527
28202513,9979,0.807251,0.396606,0.141479,526
28212535,10022,0.766479,0.349487,0.107788,533
28222520,9985,0.760254,0.338501,0.100708,533
28232512,9992,0.761353,0.344482,0.099243,534
28242532,10020,0.776611,0.363159,0.109131,533
28252519,9987,0.797241,0.374390,0.122803,526
28262525,10006,0.812622,0.381714,0.137207,523
28272537,10012,0.834473,0.407227,0.156250,516
28282538,10001,0.846313,0.422729,0.160522,506
28292537,9999,0.857056,0.437378,0.173584,503
28302516,9979,0.869507,0.481445,0.178345,503
28312523,10007,0.882080,0.517578,0.173218,499
28322538,10015,0.914062,0.514282,0.180908,489
28332563,10025,0.945679,0.504883,0.190796,495
28342527,9964,0.967285,0.492310,0.198364,489
28352537,10010,0.975220,0.472778,0.203735,491
28362531,9994,0.971680,0.454590,0.204102,499
28372540,10009,0.959106,0.438354,0.200562,506
28382524,9984,0.903931,0.414795,0.188477,511
28392529,10005,0.878784,0.408325,0.181396,507
28402528,9999,0.865845,0.409302,0.174438,513
28412536,10008,0.865845,0.406006,0.166870,519
28422529,9993,0.872681,0.402344,0.160645,519
28432518,9989,0.901245,0.379761,0.150146,520
28443047,10529,0.917603,0.361328,0.148804,517
28452514,9467,0.946411,0.342651,0.147949,521
28462514,10000,0.991089,0.324707,0.148437,520
28472514,10000,1.053589,0.317627,0.150513,521
28482513,9999,1.123413,0.321655,0.154785,517
28492524,10011,1.213379,0.338135,0.194946,526
28502538,10014,1.225464,0.375488,0.206421,524
28512513,9975,1.227417,0.408081,0.204956,524
28522538,10025,1.219971,0.423218,0.194946,530
28532536,9998,1.189697,0.424072,0.181763,528
28542540,10004,1.104736,0.402222,0.151245,531
28552527,9987,1.072266,0.387573,0.138428,532
28562517,9990,1.052124,0.369141,0.135986,534
28572540,10023,1.051758,0.348389,0.133545,528
28582520,9980,1.054810,0.322266,0.127075,530
28592527,10007,1.064697,0.301880,0.132446,538
28602515,9988,1.086426,0.276733,0.159790,537
28612528,10013,1.104126,0.286011,0.140747,539
28622519,9991,1.099609,0.285645,0.155640,530
28633373,10854,1.115723,0.270508,0.169800,531
28642524,9151,1.146362,0.334473,0.152954,522
28652535,10011,1.204346,0.350220,0.171997,532
28662538,10003,1.202881,0.322632,0.177979,522
28672532,9994,1.196777,0.315308,0.183350,514
28682526,9994,1.184204,0.307373,0.188232,515
28692531,10005,1.157349,0.301392,0.185059,519
28702532,10001,1.112549,0.289673,0.163574,519
28712536,10004,1.010132,0.269531,0.151001,518
28722520,9984,0.964600,0.265259,0.142944,514
28732526,10006,0.922974,0.261475,0.139038,519
28742513,9987,0.880249,0.255493,0.138550,520
28752568,10055,0.839111,0.247559,0.139893,520
28762536,9968,0.763062,0.226074,0.140869,519
28772530,9994,0.734497,0.219116,0.138184,515
28782518,9988,0.709106,0.210083,0.135254,505
28792514,9996,0.691162,0.206055,0.130615,502
28802556,10042,0.676025,0.204590,0.126099,497
28812520,9964,0.663452,0.199097,0.120117,494
28823690,11170,0.660522,0.193115,0.118408,488
28834035,10345,0.660767,0.183228,0.120117,479
28842537,8502,0.664429,0.178833,0.119751,467
28852528,9991,0.673584,0.176758,0.117188,465
28862522,9994,0.681641,0.174316,0.114380,462
28872515,9993,0.697144,0.179687,0.107666,458
28882529,10014,0.704956,0.184448,0.103271,452
28892518,9989,0.714722,0.196899,0.099365,441
28902539,10021,0.725952,0.210937,0.098022,445
28912524,9985,0.744263,0.224731,0.102661,442
28922532,10008,0.758789,0.236450,0.116821,439
28932533,10001,0.769287,0.241943,0.121948,435
28942517,9984,0.775146,0.248535,0.119995,443
28952515,9998,0.779297,0.250610,0.118042,446
28962560,10045,0.782593,0.254395,0.115723,447
28972515,9955,0.790405,0.259277,0.115356,452
28982521,10006,0.824585,0.270996,0.124512,457
28992538,10017,0.857178,0.275635,0.130981,461
29002532,9994,0.906372,0.281250,0.130981,469
29012515,9983,0.936401,0.271240,0.124146,468
29022533,10018,0.988770,0.287354,0.116211,484
29032513,9980,1.120850,0.365845,0.122192,492
29042527,10014,1.167603,0.375854,0.132080,493
29052532,10005,1.219604,0.383179,0.144165,502
29062517,9985,1.262085,0.398438,0.156494,510
29072516,9999,1.277466,0.409058,0.168701,514
29082518,10002,1.259155,0.410645,0.182617,511
29092512,9994,1.168823,0.408936,0.196655,520
29102521,10009,1.113403,0.400391,0.197144,530
29112527,10006,1.071533,0.378784,0.201538,532
29122533,10006,1.033081,0.374878,0.198730,533
29132537,10004,1.004150,0.368530,0.197144,534
29142526,9989,0.980225,0.363647,0.210937,522
29152524,9998,0.985107,0.380371,0.222778,520
29162523,9999,0.999268,0.395874,0.231812,507
29172512,9989,1.022705,0.402222,0.241211,496
29182536,10024,1.062256,0.398926,0.257080,485
29192519,9983,1.109131,0.394897,0.270264,479
29202535,10016,1.209595,0.390503,0.299072,472
29212517,9982,1.236938,0.394287,0.318237,467
29222533,10016,1.245728,0.398560,0.337891,475
29232554,10021,1.232056,0.405640,0.358643,476
29242527,9973,1.201050,0.415039,0.372314,490
29252705,10178,1.085693,0.433350,0.371826,499
29262521,9816,1.026855,0.442627,0.358398,508
29272524,10003,0.982300,0.446899,0.342651,515
29282533,10009,0.942749,0.448853,0.338257,516
29292535,10002,0.910645,0.439331,0.340210,522
29302536,10001,0.886841,0.423340,0.342529,520
29312527,9991,0.866699,0.404541,0.351685,520
29322518,9991,0.859497,0.391724,0.357544,525
29332519,10001,0.856079,0.369507,0.363647,526
29342512,9993,0.855103,0.349731,0.364136,520
29352523,10011,0.858276,0.340942,0.363159,518
29362516,9993,0.867432,0.342529,0.352051,521
29372523,10007,0.871460,0.344727,0.344482,517
29382519,9996,0.879150,0.350464,0.340332,520
29392520,10001,0.884766,0.351807,0.335693,512
29402530,10010,0.897461,0.350342,0.335205,514
29412541,10011,0.901733,0.315186,0.331543,514
29422511,9970,0.895386,0.331299,0.330688,515
29432512,10001,0.891602,0.328613,0.329346,513
29442512,10000,0.886475,0.319946,0.326538,516
29452529,10017,0.875732,0.310791,0.322144,510
29462520,9991,0.865967,0.308716,0.317383,514
29472519,9999,0.852783,0.309448,0.305176,516
29482523,10004,0.849487,0.313599,0.301758,517
29492518,9995,0.855103,0.316895,0.306274,516
29502518,10000,0.867432,0.319946,0.302002,517
29512512,9994,0.875732,0.321899,0.296387,510
29522515,10003,0.883545,0.322144,0.286255,512
29533600,11085,0.890259,0.312988,0.281372,536
29542527,8927,0.892944,0.310059,0.276001,514
29552528,10001,0.900024,0.309814,0.268677,515
29562540,10012,0.913696,0.311890,0.263184,515
29572540,10000,0.931274,0.316284,0.256226,508
29582539,9999,0.966431,0.316528,0.248047,507
29592515,9976,0.988892,0.315918,0.244629,512
29602517,10002,1.020752,0.316528,0.239380,514
29612536,10019,1.065918,0.316040,0.234863,511
29622516,9980,1.109619,0.315918,0.235840,515
29632513,9997,1.153931,0.324219,0.243042,514
29642512,9999,1.237549,0.332153,0.248413,519
29652524,10012,1.253906,0.339355,0.251831,514
29662536,10012,1.245239,0.347412,0.250610,517
29672516,9980,1.209717,0.349365,0.242920,528
29682534,10018,1.157104,0.351196,0.228394,529
29692515,9981,1.073242,0.335449,0.192627,529
29702535,10020,1.056641,0.319092,0.173584,531
29712524,9989,1.054443,0.299072,0.160645,531
29722515,9991,1.070190,0.280762,0.155029,532
29732536,10021,1.081543,0.264771,0.155396,534
29742540,10004,1.109375,0.255005,0.152954,534
29752512,9972,1.129272,0.262329,0.148926,523
29762527,10015,1.147217,0.261719,0.146118,523
29772523,9996,1.160156,0.260986,0.155273,526
29782533,10010,1.177002,0.262939,0.166382,526
29792536,10003,1.199707,0.272339,0.173096,517
29802526,9990,1.225220,0.290405,0.174683,523
29812520,9994,1.217041,0.302856,0.169678,514
29822526,10006,1.160278,0.312012,0.208984,520
29832522,9996,1.178589,0.272827,0.161011,520
29842524,10002,1.116333,0.293579,0.156860,522
29852528,10004,1.049683,0.318970,0.164917,514
29862527,9999,1.009521,0.292358,0.176514,519
29872546,10019,0.962891,0.278809,0.177856,525
29882519,9973,0.938110,0.274536,0.163086,524
29892529,10010,0.908569,0.266968,0.165405,521
29902538,10009,0.874878,0.247925,0.165771,527
29912529,9991,0.819702,0.208862,0.151733,519
29922522,9993,0.801392,0.202881,0.144897,525
29932529,10007,0.788696,0.199097,0.140625,520
29942537,10008,0.776611,0.195435,0.136108,517
29952520,9983,0.765503,0.191772,0.131348,507
29962540,10020,0.750000,0.175903,0.130493,499
29972535,9995,0.748047,0.165161,0.136475,498
29982531,9996,0.760864,0.170776,0.149292,495
29992540,10009,0.798950,0.185425,0.177490,486
30002534,9994,0.846558,0.216431,0.203247,487
30012520,9986,0.864136,0.290283,0.199097,481
30022534,10014,0.826416,0.385132,0.155762,484
30032535,10001,0.814453,0.368774,0.142456,480
30042511,9976,0.799927,0.345337,0.125244,486
30052537,10026,0.784058,0.328003,0.114014,485
30062522,9985,0.770630,0.326538,0.111450,486
30072535,10013,0.765869,0.339233,0.135132,480
30082525,9990,0.764404,0.358032,0.155151,478
30092518,9993,0.757935,0.362915,0.176758,482
30102518,10000,0.747437,0.348877,0.196167,480
30112533,10015,0.735840,0.330322,0.211304,473
30122533,10000,0.727295,0.318726,0.225342,476
30132528,9995,0.702271,0.316284,0.260010,482
30142531,10003,0.699341,0.302734,0.295776,480
30152521,9990,0.713257,0.288452,0.303833,484
30162520,9999,0.737915,0.285522,0.297485,487
30172519,9999,0.769165,0.287842,0.288452,493
30182520,10001,0.823486,0.311646,0.267090,489
30192531,10011,0.839111,0.321655,0.269775,498
30202519,9988,0.838623,0.342651,0.293213,499
30212514,9995,0.831299,0.374268,0.310425,501
30222540,10026,0.818237,0.410889,0.323608,501
30232527,9987,0.787231,0.430054,0.292114,507
30242523,9996,0.719116,0.415039,0.289429,506
30252518,9995,0.717407,0.417114,0.269897,511
30262554,10036,0.728516,0.425537,0.255737,516
30272518,9964,0.743530,0.422485,0.241699,517
30282537,10019,0.770874,0.409302,0.233643,514
30292534,9997,0.782104,0.377563,0.221436,513
30302511,9977,0.891357,0.351563,0.221680,506
30312540,10029,0.958862,0.349731,0.243896,496
30322555,10015,0.989624,0.343628,0.251953,497
30332533,9978,1.035889,0.327148,0.250854,494
30342531,9998,1.096924,0.316406,0.272217,487
30352533,10002,1.163452,0.354004,0.294678,489
30362531,9998,1.169312,0.392212,0.314575,490
30372527,9996,1.163940,0.419434,0.334229,493
30382531,10004,1.139893,0.432251,0.344727,497
30392524,9993,1.118164,0.449585,0.345825,501
30402534,10010,1.071533,0.489136,0.333984,507
30412538,10004,1.049683,0.494995,0.322754,508
30422534,9996,1.034058,0.493286,0.316162,508
30432515,9981,1.027588,0.484009,0.313599,507
30442516,10001,1.021851,0.469238,0.316650,507
30452536,10020,1.023438,0.454468,0.341309,513
30462540,10004,1.025269,0.453247,0.354492,510
30472513,9973,1.019897,0.458740,0.361206,508
30482520,10007,1.016602,0.469971,0.362793,507
30492514,9994,1.007324,0.473877,0.360718,484
30502526,10012,0.999878,0.473267,0.352661,499
30512519,9993,0.982422,0.443604,0.340942,496
30522516,9997,0.972778,0.419922,0.346069,497
30532535,10019,0.962646,0.398193,0.347778,492
30542532,9997,0.953491,0.376587,0.344849,493
30552531,9999,0.947021,0.360596,0.342407,492
30562530,9999,0.907471,0.355591,0.334717,494
30572533,10003,0.918091,0.347168,0.334473,494
30582525,9992,0.909058,0.339966,0.337280,491
30592517,9992,0.898926,0.332642,0.334106,496
30602511,9994,0.892334,0.327026,0.330078,495
30612521,10010,0.887085,0.322266,0.329346,501
30622516,9995,0.879761,0.326904,0.326538,501
30632536,10020,0.875000,0.331665,0.326172,501
30642533,9997,0.870483,0.330566,0.323242,505
30652535,10002,0.866455,0.331299,0.319580,503
30662520,9985,0.855225,0.328491,0.312988,509
30672536,10016,0.842529,0.320435,0.298828,504
30682517,9981,0.845337,0.316406,0.293457,506
30692511,9994,0.852417,0.309692,0.295044,515
30702512,10001,0.862061,0.302490,0.305542,518
30712519,10007,0.876709,0.300781,0.314697,518
30722548,10029,0.895264,0.301880,0.312256,519
30732523,9975,0.979126,0.293335,0.290771,521
30742531,10008,1.031128,0.283813,0.282715,522
30752534,10003,1.086792,0.275879,0.281372,519
30762539,10005,1.136353,0.274292,0.287476,522
30772550,10011,1.181030,0.281494,0.297119,519
30782521,9971,1.197266,0.309570,0.306519,525
30792537,10016,1.166260,0.328003,0.296265,529
30802530,9993,1.119873,0.340454,0.272339,529
30812527,9997,1.074463,0.343872,0.240723,530
30822512,9985,1.039551,0.348511,0.216675,528
30832523,10011,1.032349,0.351563,0.199951,522
30842512,9989,1.023926,0.330200,0.137817,517
30852519,10007,1.027466,0.301758,0.117676,510
30862534,10015,1.030884,0.281982,0.106567,506
30872518,9984,1.035034,0.280762,0.101196,503
30882535,10017,1.046387,0.318970,0.087524,493
30892525,9990,1.084839,0.446289,0.055298,486
30902533,10008,1.101685,0.480957,0.044922,483
30912515,9982,1.125244,0.484253,0.031128,481
30922539,10024,1.162476,0.470947,0.018677,473
30932547,10008,1.195801,0.442627,0.013306,474
30942516,9969,1.209595,0.414917,0.010498,472
30952518,10002,1.180542,0.377197,0.037109,482
30962511,9993,1.136353,0.345947,0.051636,484
30972539,10028,1.091064,0.318115,0.049316,496
30982515,9976,1.054077,0.309326,0.036133,503
30992533,10018,1.036133,0.312256,0.035156,512
31002519,9986,1.001465,0.345337,0.028442,520
31012511,9992,1.015503,0.421753,0.045776,522
31022530,10019,1.016113,0.472656,0.088135,521
31032522,9992,0.994141,0.500366,0.143311,525
31042530,10008,0.951172,0.507446,0.175415,534
31052540,10010,0.929199,0.511963,0.162476,532
31062539,9999,0.891602,0.497070,0.118774,536
31072519,9980,0.876465,0.459351,0.102783,534
31082539,10020,0.872559,0.411865,0.097168,530
31092539,10000,0.873047,0.363281,0.109009,533
31102517,9978,0.874023,0.326294,0.121948,530
31112533,10016,0.870728,0.269043,0.140381,528
31122519,9986,0.858398,0.250244,0.142578,524
31132530,10011,0.843872,0.239136,0.141602,517
31142567,10037,0.832397,0.225220,0.147827,518
31152538,9971,0.817017,0.209961,0.152710,514
31162528,9990,0.803833,0.208008,0.149170,515
31172522,9994,0.782959,0.211548,0.144775,512
31182527,10005,0.776123,0.212158,0.138428,516
31192513,9986,0.769775,0.214355,0.134644,514
31202528,10015,0.765625,0.212891,0.134766,517
31212519,9991,0.763672,0.210815,0.137695,512
31222514,9995,0.757690,0.217163,0.143921,513
31232523,10009,0.757568,0.229614,0.143433,504
31242513,9990,0.757690,0.230713,0.143433,509
31252513,10000,0.760010,0.227661,0.142822,506
31262534,10021,0.765747,0.226074,0.144409,503
31272530,9996,0.771118,0.217651,0.149658,502
31282512,9982,0.779663,0.196899,0.151611,496
31292534,10022,0.789062,0.198853,0.148437,499
31302520,9986,0.818237,0.211548,0.140747,497
31312522,10002,0.857056,0.229980,0.134888,500
31322532,10010,0.895874,0.255127,0.132812,495
31332517,9985,0.962646,0.302856,0.134644,495
31342528,10011,0.980957,0.318359,0.144897,494
31352512,9984,0.980103,0.327026,0.162231,500
31362543,10031,0.959473,0.337646,0.180298,502
31372531,9988,0.925781,0.357544,0.194092,502
31382512,9981,0.881104,0.386353,0.203979,503
31392532,10020,0.797241,0.399658,0.213989,512
31402526,9994,0.774170,0.404175,0.228882,516
31412521,9995,0.761230,0.399902,0.233398,515
31422522,10001,0.779297,0.416138,0.239746,520
31432539,10017,0.811035,0.445312,0.238647,523
31442524,9985,0.847046,0.468750,0.243774,524
31452529,10005,0.881714,0.505493,0.253540,522
31462513,9984,0.985962,0.527954,0.285522,520
31472533,10020,0.971436,0.561401,0.276001,514
31482521,9988,0.974487,0.562988,0.309448,513
31492525,10004,1.095947,0.578125,0.362549,512
31502526,10001,1.090698,0.606079,0.359741,511
31512511,9985,1.074097,0.618652,0.341187,507
31522536,10025,1.048828,0.607910,0.316284,512
31532539,10003,1.015747,0.590698,0.307739,513
31542511,9972,0.986450,0.577759,0.317749,516
31552519,10008,0.883545,0.575317,0.336060,512
31562512,9993,0.875732,0.572266,0.349243,515
31572536,10024,0.876587,0.560425,0.353149,521
31582545,10009,0.863281,0.555054,0.359253,517
31592539,9994,0.849976,0.555786,0.357178,520
31602524,9985,0.800049,0.603027,0.388550,519
31612525,10001,0.784546,0.650146,0.409180,519
31622523,9998,0.783936,0.702393,0.439819,516
31632530,10007,0.788330,0.757935,0.462158,510
31642551,10021,0.801514,0.802612,0.487305,499
31652511,9960,0.820923,0.822388,0.513794,499
31662517,10006,0.840332,0.822266,0.540161,491
31672519,10002,0.833008,0.802368,0.535034,495
31682524,10005,0.826782,0.793335,0.518799,498
31692528,10004,0.812378,0.791870,0.500000,495
31702535,10007,0.797607,0.790894,0.470825,500
31712515,9980,0.762695,0.805176,0.429687,508
31722520,10005,0.750488,0.809326,0.417969,508
31732520,10000,0.751099,0.803467,0.412476,513
31742515,9995,0.757812,0.792480,0.405518,514
31752525,10010,0.766846,0.777588,0.389160,517
31762514,9989,0.766235,0.747803,0.369507,513
31772530,10016,0.764282,0.676758,0.332520,510
31782534,10004,0.769653,0.648560,0.313599,516
31792531,9997,0.776733,0.625366,0.294434,514
31802552,10021,0.787476,0.600586,0.274780,514
31812519,9967,0.800537,0.572266,0.258179,513
31822533,10014,0.821167,0.549927,0.226074,516
31832539,10006,0.838013,0.558716,0.207275,513
31842523,9984,0.844360,0.556030,0.203979,506
31852536,10013,0.856567,0.547974,0.205566,507
31862554,10018,0.877808,0.550293,0.207153,507
31872512,9958,0.891602,0.547119,0.210083,510
31882512,10000,0.950684,0.543823,0.187378,507
31892523,10011,1.006104,0.541748,0.175415,505
31902519,9996,1.074951,0.530762,0.169800,505
31912534,10015,1.149658,0.518799,0.171875,511
31922513,9979,1.221313,0.504272,0.182861,507
31932524,10011,1.276123,0.479980,0.250122,514
31942519,9995,1.223389,0.472778,0.290283,526
31952536,10017,1.128784,0.462280,0.315796,531
31962525,9989,1.036621,0.459595,0.296509,540
31972535,10010,0.954712,0.448853,0.261963,543
31986661,14126,0.867920,0.425537,0.197998,541
31997021,10360,0.881348,0.414673,0.197998,546
32003417,6396,0.914551,0.397339,0.212646,544
32012547,9130,0.941895,0.369141,0.228760,550
32022537,9990,0.958740,0.352661,0.266846,545
32032521,9984,1.028320,0.317139,0.226074,536
32042529,10008,1.054810,0.336304,0.198242,538
32052533,10004,1.099854,0.324097,0.186279,531
32062534,10001,1.111206,0.314087,0.182739,528
32072540,10006,1.146851,0.318115,0.171265,520
32082511,9971,1.178467,0.319458,0.174683,514
32092511,10000,1.184326,0.286865,0.184692,518
32102532,10021,1.132080,0.292358,0.180054,515
32112514,9982,1.094971,0.284058,0.174316,515
32122536,10022,1.041016,0.270874,0.168091,511
32132515,9979,0.992065,0.250977,0.156250,515
32142536,10021,0.945923,0.229248,0.150635,516
32152536,10000,0.863281,0.192993,0.150024,505
32162523,9987,0.826660,0.175293,0.162109,517
32172525,10002,0.795654,0.169434,0.176636,515
32182511,9986,0.770264,0.172607,0.176392,510
32192517,10006,0.744873,0.171143,0.167358,516
32202518,10001,0.717041,0.173340,0.158081,510
32212511,9993,0.692505,0.176758,0.155884,516
32222513,10002,0.688599,0.172485,0.159546,513
32232535,10022,0.691406,0.171143,0.163086,509
32242512,9977,0.702393,0.176514,0.172974,510
32252521,10009,0.711060,0.182007,0.175659,506
32262525,10004,0.717529,0.178955,0.171143,504
32272518,9993,0.725220,0.180786,0.163818,498
32282524,10006,0.729370,0.186035,0.157227,496
32292517,9993,0.733521,0.194092,0.152954,491
32302540,10023,0.739990,0.204346,0.145752,490
32312516,9976,0.741089,0.214478,0.145020,492
32322536,10020,0.735107,0.223877,0.149292,493
32332514,9978,0.731689,0.230713,0.153564,490
32342520,10006,0.731323,0.233154,0.162354,488
32352539,10019,0.732056,0.227661,0.171753,485
32362521,9982,0.739258,0.225708,0.171875,489
32372540,10019,0.768433,0.254639,0.174316,492
32382539,9999,0.793457,0.288574,0.175781,494
32396496,13957,0.816650,0.316650,0.179565,492
32402513,6017,0.837158,0.339600,0.184814,495
32412530,10017,0.852539,0.357666,0.192871,499
32422534,10004,0.912720,0.404907,0.207031,499
32432561,10027,0.950439,0.436035,0.230225,502
32442526,9965,0.975586,0.454224,0.238037,495
32452525,9999,1.016479,0.471802,0.230957,506
32462513,9988,1.077393,0.490356,0.223267,507
32472527,10014,1.138916,0.509888,0.223022,513
32482515,9988,1.244019,0.548096,0.235962,515
32492529,10014,1.264160,0.565186,0.245850,522
32502539,10010,1.247437,0.575195,0.262207,524
32512537,9998,1.200195,0.583130,0.272583,524
32522520,9983,1.124146,0.585449,0.275635,535
32532539,10019,0.985962,0.569336,0.263306,531
32542513,9974,0.931030,0.553711,0.260376,540
32552512,9999,0.888306,0.539673,0.254761,542
32562531,10019,0.858032,0.523926,0.247803,536
32572537,10006,0.835693,0.500732,0.245361,540
32582523,9986,0.816284,0.475098,0.255981,538
32592538,10015,0.784912,0.446533,0.300171,536
32603122,10584,0.788086,0.447266,0.307739,532
32612803,9681,0.818970,0.452393,0.315186,526
32622532,9729,0.856689,0.464478,0.326660,521
32632511,9979,0.891235,0.479736,0.337524,519
32642534,10023,0.967407,0.500854,0.366333,512
32652523,9989,0.999512,0.513916,0.380981,511
32662550,10027,1.015869,0.528931,0.395630,511
32672522,9972,1.020996,0.548950,0.409424,509
32682525,10003,1.010132,0.565552,0.415405,507
32692524,9999,0.988281,0.569336,0.422974,509
32702517,9993,0.920410,0.614624,0.416504,511
32712518,10001,0.870850,0.618286,0.421021,509
32722544,10026,0.828247,0.610596,0.424072,514
32732526,9982,0.799194,0.595825,0.423340,514
32742534,10008,0.781128,0.583130,0.426636,517
32752524,9990,0.764160,0.525146,0.429199,517
32762516,9992,0.764648,0.492432,0.431519,519
32772537,10021,0.761597,0.484741,0.430786,519
32782533,9996,0.766968,0.494629,0.426880,522
32792515,9982,0.785645,0.505127,0.426270,522
32802515,10000,0.802002,0.515137,0.429565,516
32812533,10018,0.825684,0.518188,0.429077,524
32822519,9986,0.828491,0.509399,0.427368,526
32832516,9997,0.831787,0.500244,0.423828,524
32842519,10003,0.833862,0.492065,0.419434,526
32852511,9992,0.840088,0.482788,0.422852,528
32862511,10000,0.861572,0.478760,0.441162,528
32872528,10017,0.868164,0.502808,0.438477,527
32882548,10020,0.870850,0.520142,0.431274,530
32892517,9969,0.874512,0.517700,0.424561,532
32902519,10002,0.881836,0.508545,0.420288,529
32912536,10017,0.888184,0.469971,0.411011,531
32922531,9995,0.890381,0.493408,0.400391,526
32932514,9983,0.892822,0.486084,0.392090,530
32942549,10035,0.895752,0.477539,0.381348,529
32952541,9992,0.899292,0.467285,0.373657,523
32962521,9980,0.905884,0.460205,0.364380,530
32972529,10008,0.922607,0.452026,0.343262,528
32982534,10005,0.935669,0.453369,0.331421,527
32992515,9981,0.947388,0.453613,0.323364,523
33002531,10016,0.963867,0.458252,0.311157,523
33012518,9987,0.983032,0.463013,0.295166,527
33022530,10012,1.000854,0.474487,0.259766,528
33032517,9987,1.070068,0.477295,0.249634,523
33042528,10011,1.104858,0.479370,0.251221,523
33052538,10010,1.133789,0.483643,0.254883,521
33062520,9982,1.162354,0.489746,0.252197,520
33072538,10018,1.186401,0.491699,0.251709,522
33082527,9989,1.186523,0.500000,0.260864,518
33092538,10011,1.148071,0.521362,0.260742,524
33102569,10031,1.083496,0.529297,0.257568,525
33112527,9958,1.025391,0.511841,0.251587,526
33122523,9996,0.985596,0.481323,0.239014,529
33132516,9993,0.876099,0.449707,0.208862,529
33142520,10004,0.893555,0.456665,0.192993,535
33152536,10016,0.910034,0.450562,0.178589,530
33162535,9999,0.933960,0.423950,0.134277,533
33172543,10008,0.940674,0.360352,0.149414,537
33182527,9984,0.931519,0.329590,0.190552,533
33192513,9986,1.004395,0.381104,0.179199,532
33202531,10018,1.045288,0.368530,0.197021,530
33212540,10009,1.072632,0.354370,0.218506,527
33222540,10000,1.099487,0.368652,0.218872,523
33232540,10000,1.110962,0.412231,0.224487,520
33242518,9978,1.033203,0.437378,0.234497,524
33252518,10000,1.016357,0.422607,0.226685,524
33262538,10020,0.966187,0.402954,0.221558,525
33272529,9991,0.917847,0.378540,0.219360,526
33282522,9993,0.878784,0.356934,0.218994,527
33292515,9993,0.846924,0.333618,0.221680,521
33302517,10002,0.787231,0.306396,0.219971,528
33312531,10014,0.760986,0.298218,0.219238,529
33322534,10003,0.739380,0.292358,0.217773,529
33332534,10000,0.719604,0.283447,0.217407,531
33342520,9986,0.704590,0.275269,0.217163,531
33352530,10010,0.685181,0.257202,0.206787,524
33362536,10006,0.676636,0.239014,0.203125,520
33372528,9992,0.678589,0.228149,0.200684,516
33382538,10010,0.685181,0.221924,0.198608,518
33392511,9973,0.690918,0.218628,0.197632,517
33402530,10019,0.693726,0.222412,0.196045,513
33412520,9990,0.703369,0.228271,0.193970,509
33422527,10007,0.708130,0.233398,0.193237,506
33432523,9996,0.708618,0.237671,0.190796,500
33442532,10009,0.703979,0.236328,0.190674,493
33452511,9979,0.704346,0.239624,0.189575,493
33462523,10012,0.706177,0.249634,0.192627,491
33472536,10013,0.703613,0.248291,0.198853,490
33482522,9986,0.704834,0.246460,0.205811,483
33492540,10018,0.701416,0.244507,0.217529,488
33502532,9992,0.701172,0.250244,0.225708,489
33512529,9997,0.698608,0.261353,0.245239,493
33522518,9989,0.709229,0.291016,0.273193,490
33532534,10016,0.715942,0.306641,0.267456,495
33542540,10006,0.723022,0.325562,0.256470,499
33552525,9985,0.726807,0.332886,0.250977,495
33562525,10000,0.745117,0.337036,0.250122,502
33572533,10008,0.816162,0.389526,0.263062,495
33582568,10035,0.870361,0.411865,0.285400,503
33592541,9973,0.929199,0.426758,0.306519,501
33602528,9987,0.976196,0.450195,0.328857,502
33612540,10012,1.005981,0.473145,0.347046,499
33622540,10000,1.044556,0.499512,0.351074,500
33632524,9984,1.027100,0.543823,0.350708,498
33642534,10010,1.014648,0.570923,0.362915,506
33652513,9979,0.981323,0.583252,0.372925,510
33662533,10020,0.922241,0.556152,0.394287,514
33672539,10006,0.861938,0.546509,0.392700,515
33682530,9991,0.810547,0.522949,0.412720,517
33692534,10004,0.798706,0.517578,0.418457,531
33702541,10007,0.796753,0.505615,0.418579,536
33712533,9992,0.807251,0.500000,0.418579,538
