t_us,dt_us,ax,ay,az,ppg
8874185,10021,-0.102905,0.460815,0.851685,511
8884174,9989,-0.103638,0.458252,0.853394,517
8894178,10004,-0.103638,0.457520,0.856689,520
8904194,10016,-0.104126,0.458496,0.855469,519
8914177,9983,-0.103882,0.457642,0.855957,522
8924175,9998,-0.103882,0.455933,0.855957,524
8934180,10005,-0.104858,0.455566,0.857666,523
8944169,9989,-0.104492,0.453979,0.858276,524
8954184,10015,-0.106689,0.456787,0.857056,524
8964185,10001,-0.105957,0.459229,0.857910,526
8974185,10000,-0.106812,0.460693,0.857666,523
8984168,9983,-0.106323,0.463379,0.856445,523
8994175,10007,-0.105591,0.463013,0.855591,520
9004180,10005,-0.105713,0.459717,0.848877,517
9014193,10013,-0.107544,0.459351,0.850220,520
9024197,10004,-0.106323,0.457886,0.853394,519
9034189,9992,-0.106079,0.458740,0.852539,515
9044183,9994,-0.106323,0.461304,0.852051,518
9054179,9996,-0.107178,0.461914,0.852051,512
9064170,9991,-0.106689,0.460693,0.852051,516
9074185,10015,-0.104370,0.458252,0.851074,509
9084191,10006,-0.104614,0.456299,0.851196,511
9094186,9995,-0.104980,0.454712,0.852905,509
9104187,10001,-0.104736,0.453247,0.852295,512
9114168,9981,-0.104370,0.456543,0.852539,508
9124175,10007,-0.105957,0.458740,0.853638,510
9134180,10005,-0.104370,0.461304,0.853394,507
9144199,10019,-0.103638,0.462158,0.852417,507
9154172,9973,-0.104980,0.460571,0.851685,511
9164175,10003,-0.104614,0.458374,0.853027,511
9174193,10018,-0.104736,0.457031,0.852295,513
9184186,9993,-0.104736,0.459839,0.852661,511
9194188,10002,-0.105225,0.462158,0.851562,514
9204176,9988,-0.107056,0.464355,0.851440,512
9214167,9991,-0.106201,0.464478,0.851562,512
9224168,10001,-0.106567,0.460815,0.850098,512
9234168,10000,-0.106445,0.459106,0.849976,512
9244190,10022,-0.107178,0.457886,0.850952,511
9254173,9983,-0.108276,0.457153,0.851685,513
9264174,10001,-0.108643,0.459717,0.852783,512
9274191,10017,-0.109131,0.461792,0.852783,511
9284193,10002,-0.109253,0.463379,0.852295,507
9294187,9994,-0.108398,0.460205,0.852905,509
9304165,9978,-0.108765,0.457153,0.852295,512
9314172,10007,-0.108643,0.454956,0.852783,510
9324173,10001,-0.110474,0.452881,0.853394,509
9334173,10000,-0.111084,0.456421,0.855103,511
9344175,10002,-0.110718,0.461548,0.855713,510
9354167,9992,-0.110962,0.464478,0.853027,507
9364184,10017,-0.111450,0.465088,0.851929,509
9374203,10019,-0.111206,0.461670,0.853027,509
9384172,9969,-0.111084,0.458008,0.851562,509
9394165,9993,-0.111084,0.456299,0.853027,509
9404177,10012,-0.111084,0.457275,0.854736,503
9414180,10003,-0.110596,0.457520,0.852661,508
9424184,10004,-0.110962,0.459717,0.851196,510
9434189,10005,-0.111328,0.459717,0.852661,511
9444181,9992,-0.110962,0.457397,0.849976,507
9454167,9986,-0.110474,0.453491,0.851074,510
9464210,10043,-0.110352,0.450684,0.851318,512
9474193,9983,-0.111084,0.452759,0.852417,511
9484189,9996,-0.110352,0.456055,0.851685,506
9494174,9985,-0.110718,0.458496,0.849731,508
9504172,9998,-0.112305,0.459351,0.849121,509
9514169,9997,-0.111206,0.457153,0.850708,510
9524172,10003,-0.109375,0.455322,0.850708,509
9534189,10017,-0.109375,0.455811,0.852295,508
9544166,9977,-0.109009,0.456787,0.852051,509
9554186,10020,-0.108154,0.456909,0.851318,506
9564166,9980,-0.107178,0.457153,0.849854,505
9574182,10016,-0.108032,0.458252,0.849365,507
9584186,10004,-0.108521,0.458984,0.848511,512
9594183,9997,-0.108276,0.459473,0.848267,513
9604189,10006,-0.110107,0.459351,0.848999,512
9614177,9988,-0.110840,0.457642,0.852783,514
9624191,10014,-0.110962,0.459717,0.852173,513
9634183,9992,-0.111328,0.460815,0.852173,514
9644186,10003,-0.111816,0.460693,0.850952,515
9654172,9986,-0.111450,0.460815,0.852295,521
9664184,10012,-0.111450,0.458374,0.853638,517
9674165,9981,-0.113281,0.456787,0.854980,521
9684173,10008,-0.113647,0.457153,0.855957,524
9694206,10033,-0.114380,0.455933,0.856079,521
9704166,9960,-0.114624,0.457642,0.856812,521
9714187,10021,-0.114746,0.458496,0.857300,524
9724189,10002,-0.114136,0.459595,0.856812,525
9734186,9997,-0.115112,0.459229,0.856445,516
9744188,10002,-0.114502,0.459961,0.853271,519
9754169,9981,-0.115234,0.458618,0.852173,521
9764192,10023,-0.114990,0.458862,0.850098,519
9774180,9988,-0.115112,0.457886,0.855347,513
9784188,10008,-0.112915,0.459229,0.855225,516
9794188,10000,-0.113037,0.460327,0.851929,515
9804171,9983,-0.112549,0.460205,0.849365,509
9814187,10016,-0.112671,0.458740,0.849365,515
9824167,9980,-0.113037,0.457764,0.851807,515
9834181,10014,-0.111084,0.456665,0.853394,512
9844193,10012,-0.111694,0.457886,0.854126,507
9854183,9990,-0.112427,0.459717,0.853149,511
9864190,10007,-0.111084,0.461670,0.853027,512
9874173,9983,-0.111694,0.461426,0.852539,503
9884164,9991,-0.111450,0.461548,0.851685,513
9894183,10019,-0.111694,0.461304,0.851318,511
9904168,9985,-0.112305,0.461060,0.853027,506
9914171,10003,-0.110962,0.460571,0.851562,510
9924196,10025,-0.111938,0.461914,0.853760,511
9934178,9982,-0.112305,0.462891,0.852539,506
9944178,10000,-0.112427,0.461182,0.850708,505
9954170,9992,-0.112671,0.459839,0.852173,510
9964190,10020,-0.113281,0.460327,0.854370,510
9974175,9985,-0.111816,0.458984,0.854858,510
9984186,10011,-0.110962,0.457642,0.853760,508
9994190,10004,-0.113403,0.455322,0.856201,513
10004182,9992,-0.113281,0.453491,0.856812,510
10014185,10003,-0.112793,0.454590,0.856079,507
10024178,9993,-0.114136,0.455688,0.854492,504
10034192,10014,-0.113647,0.455444,0.853638,505
10044168,9976,-0.114502,0.454712,0.853638,507
10054203,10035,-0.113770,0.455078,0.851929,513
10064172,9969,-0.113647,0.457275,0.851807,512
10074177,10005,-0.113037,0.458130,0.852539,510
10084192,10015,-0.112793,0.458252,0.851929,510
10094191,9999,-0.114258,0.457275,0.850342,511
10104178,9987,-0.113037,0.459106,0.849365,506
10114172,9994,-0.113037,0.457764,0.849609,510
10124185,10013,-0.112671,0.459717,0.849609,506
10134191,10006,-0.112305,0.460571,0.853394,508
10144179,9988,-0.111816,0.458496,0.853027,512
10154185,10006,-0.112549,0.458984,0.855469,510
10164178,9993,-0.111572,0.459961,0.854980,509
10174188,10010,-0.111450,0.458008,0.855957,508
10184175,9987,-0.110962,0.457153,0.857056,509
10194176,10001,-0.109619,0.456543,0.856689,509
10204180,10004,-0.110840,0.455811,0.855469,503
10214173,9993,-0.110229,0.456543,0.856812,510
10224186,10013,-0.108276,0.457642,0.856689,510
10234177,9991,-0.109253,0.458008,0.855469,506
10244190,10013,-0.109619,0.460327,0.852783,511
10254182,9992,-0.110840,0.459351,0.849121,509
10264174,9992,-0.111450,0.454956,0.852051,508
10274166,9992,-0.109863,0.455688,0.849609,509
10284166,10000,-0.108643,0.457764,0.850586,510
10294195,10029,-0.108765,0.459106,0.850952,509
10304164,9969,-0.107056,0.458374,0.850586,503
10314165,10001,-0.107178,0.456177,0.849487,510
10324165,10000,-0.108887,0.455322,0.850098,505
10334187,10022,-0.107788,0.455444,0.849365,511
10344181,9994,-0.109985,0.455444,0.851685,512
10354182,10001,-0.111694,0.454834,0.853638,513
10364193,10011,-0.111450,0.455811,0.855835,515
10374166,9973,-0.113037,0.457397,0.852417,518
10384205,10039,-0.112793,0.457397,0.853638,521
10394190,9985,-0.111816,0.453979,0.854126,522
10404189,9999,-0.111206,0.453125,0.854004,521
10414184,9995,-0.112061,0.453613,0.854370,520
10424181,9997,-0.114258,0.455078,0.854980,526
10434191,10010,-0.114014,0.457764,0.856689,524
10444170,9979,-0.114258,0.459595,0.857056,524
10454174,10004,-0.113770,0.460205,0.859131,524
10464178,10004,-0.112305,0.458984,0.858521,522
10474165,9987,-0.112793,0.458740,0.856445,521
10484191,10026,-0.112183,0.457764,0.857422,521
10494186,9995,-0.112549,0.457886,0.857422,516
10504171,9985,-0.112549,0.457886,0.856934,516
10514181,10010,-0.112305,0.461060,0.856201,516
10524193,10012,-0.110962,0.461670,0.853882,516
10534186,9993,-0.111206,0.460449,0.855713,515
10544164,9978,-0.109253,0.457397,0.855469,507
10554171,10007,-0.109131,0.456787,0.854492,511
10564166,9995,-0.108154,0.458618,0.852905,512
10574179,10013,-0.108887,0.460205,0.851440,509
10584188,10009,-0.108521,0.459229,0.851074,504
10594208,10020,-0.107056,0.455078,0.850830,512
10604172,9964,-0.106567,0.456177,0.853027,510
10614180,10008,-0.107178,0.456909,0.853027,512
10624168,9988,-0.105957,0.455688,0.855713,505
10634192,10024,-0.105835,0.455811,0.854126,508
10644188,9996,-0.106201,0.455688,0.855591,511
10654172,9984,-0.105591,0.453491,0.853516,510
10664186,10014,-0.105713,0.453003,0.853271,512
10674188,10002,-0.106079,0.453857,0.854980,509
10684175,9987,-0.105957,0.455566,0.853882,512
10694183,10008,-0.106567,0.454956,0.853271,514
10704188,10005,-0.107300,0.458008,0.851440,512
10714187,9999,-0.108154,0.457520,0.852539,514
10724184,9997,-0.108276,0.459351,0.851685,512
10734170,9986,-0.108887,0.460571,0.852295,512
10744186,10016,-0.109253,0.460815,0.852539,503
10754169,9983,-0.110107,0.460815,0.852051,512
10764168,9999,-0.108276,0.460327,0.850952,511
10774164,9996,-0.109741,0.458618,0.851318,512
10784183,10019,-0.108643,0.457886,0.851807,505
10794171,9988,-0.110229,0.458740,0.852783,508
10804165,9994,-0.111938,0.458862,0.855347,506
10814169,10004,-0.110474,0.457520,0.856323,509
10824181,10012,-0.111328,0.457153,0.856567,511
10834166,9985,-0.112427,0.457520,0.856689,510
10844184,10018,-0.112549,0.459473,0.856323,507
10854186,10002,-0.110474,0.459351,0.855103,510
10864168,9982,-0.111084,0.459229,0.854126,503
10874186,10018,-0.112671,0.458618,0.855591,506
10884192,10006,-0.111816,0.459595,0.855957,511
10894178,9986,-0.111328,0.462158,0.854004,509
10904187,10009,-0.112183,0.462524,0.854004,503
10914170,9983,-0.112793,0.461670,0.853394,506
10924189,10019,-0.111450,0.461792,0.852539,506
10934166,9977,-0.111816,0.461182,0.852661,509
10944198,10032,-0.110229,0.461304,0.853516,508
10954186,9988,-0.110596,0.461182,0.853271,509
10964193,10007,-0.110229,0.461792,0.852905,509
10974165,9972,-0.108887,0.460693,0.850708,510
10984192,10027,-0.107178,0.460937,0.849243,510
10994174,9982,-0.109009,0.458374,0.847900,504
11004166,9992,-0.108398,0.455200,0.847656,509
11014178,10012,-0.106567,0.454712,0.849609,502
11024186,10008,-0.105713,0.457031,0.851074,507
11034165,9979,-0.105835,0.460205,0.852295,506
11044164,9999,-0.104980,0.457397,0.851074,507
11054190,10026,-0.104248,0.456543,0.848877,507
11064182,9992,-0.105225,0.455322,0.851074,510
11074179,9997,-0.104614,0.454956,0.849243,509
11084192,10013,-0.105591,0.458008,0.851440,504
11094171,9979,-0.106445,0.460571,0.849731,506
11104170,9999,-0.107788,0.462280,0.850098,512
11114190,10020,-0.108032,0.463623,0.852539,512
11124171,9981,-0.105835,0.463745,0.850586,517
11134190,10019,-0.105713,0.462402,0.849854,513
11144166,9976,-0.105713,0.464233,0.852173,512
11154181,10015,-0.105103,0.463867,0.851562,521
11164189,10008,-0.105835,0.464600,0.852539,516
11174193,10004,-0.107666,0.462402,0.853760,522
11184180,9987,-0.108154,0.461060,0.856079,522
11194168,9988,-0.106323,0.462036,0.855957,516
11204165,9997,-0.106934,0.463013,0.856445,521
11214178,10013,-0.105713,0.462646,0.855835,522
11224176,9998,-0.106201,0.462402,0.854370,520
11234186,10010,-0.107056,0.461426,0.853882,512
11244182,9996,-0.106323,0.462280,0.851318,520
11254173,9991,-0.105713,0.459839,0.852661,519
11264168,9995,-0.105225,0.461182,0.854858,517
11274173,10005,-0.103149,0.462891,0.856689,516
11284192,10019,-0.102905,0.464233,0.854248,509
11294186,9994,-0.103394,0.463623,0.850708,510
11304183,9997,-0.102173,0.463257,0.848999,512
11314168,9985,-0.101929,0.464844,0.850220,511
11324172,10004,-0.101929,0.464478,0.852417,505
11334169,9997,-0.101929,0.463379,0.853638,505
11344186,10017,-0.101807,0.463623,0.855225,510
11354189,10003,-0.102661,0.463867,0.854980,510
11364199,10010,-0.104004,0.466309,0.851807,509
11374181,9982,-0.103394,0.466309,0.852905,505
11384173,9992,-0.102051,0.467651,0.852783,509
11394192,10019,-0.102051,0.464844,0.850830,509
11404176,9984,-0.102661,0.464111,0.851074,509
11414175,9999,-0.102417,0.461914,0.850952,503
11424167,9992,-0.102783,0.461914,0.849609,512
11434188,10021,-0.101929,0.461792,0.849854,510
11444166,9978,-0.104736,0.462158,0.848022,509
11454185,10019,-0.102783,0.463135,0.849365,508
11464169,9984,-0.103638,0.464844,0.850464,509
11474170,10001,-0.102051,0.461548,0.848999,506
11484174,10004,-0.103760,0.461182,0.847900,511
11494192,10018,-0.104370,0.458496,0.847656,505
11504185,9993,-0.105591,0.457520,0.848511,510
11514171,9986,-0.104370,0.456909,0.847412,510
11524172,10001,-0.105591,0.461670,0.848389,511
11534181,10009,-0.104614,0.459473,0.848267,504
11544167,9986,-0.104492,0.457764,0.849121,502
11554176,10009,-0.104858,0.454834,0.848877,509
11564166,9990,-0.104492,0.455688,0.848267,507
11574200,10034,-0.105957,0.455444,0.850464,509
11584175,9975,-0.105713,0.455078,0.850586,507
11594188,10013,-0.106079,0.454590,0.850220,502
11604193,10005,-0.107666,0.455078,0.848877,503
11614166,9973,-0.106201,0.455566,0.847534,503
11624189,10023,-0.107300,0.456055,0.845581,509
11634170,9981,-0.108521,0.455200,0.844360,511
11644177,10007,-0.108154,0.455688,0.844727,509
11654168,9991,-0.109741,0.458130,0.845947,509
11664192,10024,-0.109497,0.461304,0.849121,507
11674186,9994,-0.109863,0.461792,0.851562,500
11684193,10007,-0.107666,0.461060,0.853516,507
11694177,9984,-0.108643,0.458862,0.853027,507
11704172,9995,-0.109741,0.457275,0.854492,508
11714169,9997,-0.108398,0.457397,0.856079,508
11724174,10005,-0.107300,0.460205,0.856567,502
11734179,10005,-0.107544,0.463989,0.859741,508
11744184,10005,-0.105957,0.473511,0.864624,506
11754184,10000,-0.105225,0.474731,0.864502,507
11764168,9984,-0.104614,0.473389,0.860962,503
11774191,10023,-0.105591,0.472046,0.859741,511
11784189,9998,-0.103882,0.470703,0.857666,511
11794187,9998,-0.102783,0.472290,0.854614,511
11804173,9986,-0.102905,0.472900,0.853394,508
11814165,9992,-0.102661,0.472046,0.854248,517
11824183,10018,-0.101196,0.472290,0.856812,513
11834171,9988,-0.101440,0.473389,0.856567,515
11844166,9995,-0.100952,0.471924,0.853882,521
11854178,10012,-0.101929,0.467163,0.850464,523
11864205,10027,-0.101685,0.464111,0.850586,522
11874176,9971,-0.101563,0.462280,0.847778,522
11884177,10001,-0.101563,0.460937,0.847290,525
11894165,9988,-0.101685,0.459961,0.852173,524
11904166,10001,-0.099854,0.457397,0.851685,517
11914169,10003,-0.101196,0.456909,0.849854,523
11924180,10011,-0.103271,0.455200,0.847168,521
11934168,9988,-0.103760,0.452393,0.845947,522
11944169,10001,-0.104492,0.452881,0.845337,519
11954164,9995,-0.103882,0.453735,0.846191,519
11964189,10025,-0.105713,0.458496,0.845581,513
11974191,10002,-0.105713,0.458984,0.845459,515
11984185,9994,-0.105591,0.458740,0.845215,514
11994204,10019,-0.107666,0.458252,0.845337,511
12004167,9963,-0.107544,0.459106,0.845093,513
12014169,10002,-0.107910,0.460449,0.845947,511
12024171,10002,-0.108887,0.462036,0.847290,512
12034173,10002,-0.109253,0.463623,0.850952,510
12044179,10006,-0.110474,0.465454,0.850586,510
12054175,9996,-0.110962,0.465698,0.850708,509
12064184,10009,-0.111206,0.465088,0.849731,509
12074164,9980,-0.112061,0.461548,0.850586,506
12084175,10011,-0.110596,0.461792,0.851562,506
12094168,9993,-0.111206,0.462769,0.852417,510
12104166,9998,-0.111816,0.463867,0.854248,510
12114187,10021,-0.110962,0.462891,0.853882,508
12124189,10002,-0.111694,0.463745,0.853149,511
12134179,9990,-0.113525,0.463867,0.851562,504
12144174,9995,-0.113647,0.462158,0.852417,511
12154176,10002,-0.113037,0.462646,0.852661,512
12164175,9999,-0.110840,0.463989,0.853271,511
12174182,10007,-0.111328,0.463745,0.851929,509
12184181,9999,-0.112793,0.464478,0.850586,511
12194175,9994,-0.113281,0.465088,0.851685,509
12204184,10009,-0.112061,0.464844,0.850586,511
12214192,10008,-0.111938,0.464111,0.850098,508
12224180,9988,-0.112671,0.464111,0.850098,510
12234185,10005,-0.111206,0.462158,0.848022,522
12244189,10004,-0.111450,0.461914,0.848755,511
12254182,9993,-0.112183,0.461060,0.850708,509
12264165,9983,-0.111694,0.460449,0.850098,505
12274190,10025,-0.113159,0.460571,0.849243,509
12284174,9984,-0.114014,0.460571,0.851440,511
12294167,9993,-0.111938,0.461914,0.854004,508
12304207,10040,-0.112915,0.461792,0.853516,506
12314176,9969,-0.111816,0.460449,0.852905,509
12324180,10004,-0.111938,0.458252,0.852173,509
12334173,9993,-0.112183,0.457031,0.849731,509
12344186,10013,-0.113770,0.456299,0.849365,509
12354182,9996,-0.114014,0.458496,0.850586,509
12364166,9984,-0.113159,0.460937,0.852417,504
12374178,10012,-0.113281,0.462891,0.855103,505
12384175,9997,-0.111938,0.464355,0.852417,510
12394184,10009,-0.112061,0.463135,0.847900,511
12404182,9998,-0.113525,0.458008,0.846436,510
12414190,10008,-0.112549,0.455933,0.848877,510
12424164,9974,-0.111206,0.457764,0.851196,508
12434173,10009,-0.110474,0.461304,0.855103,506
12444200,10027,-0.109619,0.463867,0.857056,509
12454189,9989,-0.110962,0.465942,0.856079,509
12464177,9988,-0.111084,0.463623,0.855591,511
12474166,9989,-0.109863,0.462402,0.853027,511
12484167,10001,-0.109009,0.462158,0.850952,506
12494174,10007,-0.108398,0.462158,0.850098,514
12504164,9990,-0.109375,0.463013,0.852417,516
12514172,10008,-0.109985,0.460693,0.854004,516
12524168,9996,-0.109863,0.461670,0.855469,518
12534189,10021,-0.110352,0.462891,0.852417,520
12544192,10003,-0.110962,0.463623,0.853149,522
12554170,9978,-0.110352,0.462158,0.854370,519
12564182,10012,-0.110718,0.461792,0.852905,525
12574192,10010,-0.112061,0.462158,0.852051,525
12584185,9993,-0.112549,0.461060,0.852539,526
12594188,10003,-0.112549,0.461182,0.853027,525
12604170,9982,-0.112183,0.463013,0.852539,522
12614187,10017,-0.111450,0.461792,0.854004,524
12624179,9992,-0.111572,0.460327,0.853516,524
12634168,9989,-0.110840,0.462524,0.853394,525
12644166,9998,-0.111450,0.463257,0.851929,523
12654170,10004,-0.112183,0.461792,0.853027,527
12664176,10006,-0.112305,0.461182,0.851440,521
12674184,10008,-0.112427,0.462891,0.848877,521
12684176,9992,-0.112061,0.462769,0.850830,518
12694175,9999,-0.111938,0.460327,0.851685,519
12704178,10003,-0.111694,0.460327,0.850220,516
12714186,10008,-0.111572,0.458496,0.849854,513
12724189,10003,-0.109985,0.456421,0.849121,509
12734182,9993,-0.110229,0.457153,0.850220,510
12744179,9997,-0.110474,0.457031,0.850342,510
12754190,10011,-0.110474,0.457520,0.850342,520
12764185,9995,-0.110107,0.458008,0.848755,513
12774188,10003,-0.110229,0.457520,0.848267,507
12784183,9995,-0.109375,0.457520,0.848511,508
12794186,10003,-0.108398,0.457764,0.848267,504
12804165,9979,-0.108154,0.458252,0.848633,513
12814166,10001,-0.108032,0.458496,0.848999,512
12824183,10017,-0.106445,0.460083,0.848145,506
12834178,9995,-0.107178,0.459229,0.847412,511
12844178,10000,-0.107666,0.458252,0.847778,511
12854183,10005,-0.107422,0.459473,0.849731,512
12864180,9997,-0.109009,0.460083,0.850830,513
12874190,10010,-0.108643,0.461914,0.853027,512
12884167,9977,-0.108154,0.462891,0.852417,511
12894169,10002,-0.110229,0.467407,0.848511,507
12904179,10010,-0.109985,0.467041,0.851807,505
12914181,10002,-0.110229,0.466553,0.852539,510
12924165,9984,-0.109131,0.465576,0.852173,509
12934173,10008,-0.109497,0.465698,0.851318,509
12944187,10014,-0.111572,0.465088,0.852905,507
12954203,10016,-0.110596,0.464233,0.856445,510
12964180,9977,-0.110107,0.464600,0.855957,512
12974166,9986,-0.112061,0.463013,0.856934,503
12984189,10023,-0.111816,0.464233,0.855713,512
12994191,10002,-0.111694,0.465332,0.853271,507
13004191,10000,-0.113647,0.463257,0.855469,510
13017309,13118,-0.112305,0.461670,0.856567,507
13024189,6880,-0.111816,0.460571,0.855957,505
13034165,9976,-0.112549,0.461670,0.854492,510
13044186,10021,-0.112427,0.459961,0.856445,510
13054192,10006,-0.111572,0.458496,0.855103,510
13064172,9980,-0.111084,0.459717,0.852905,509
13074167,9995,-0.112427,0.458374,0.848755,508
13084188,10021,-0.112793,0.457520,0.850464,512
13094191,10003,-0.111938,0.457153,0.852295,508
13104190,9999,-0.110474,0.457520,0.850098,509
13114193,10003,-0.111084,0.460449,0.852173,504
13124189,9996,-0.111206,0.459717,0.849976,508
13134171,9982,-0.109131,0.456421,0.848145,508
13144185,10014,-0.109985,0.452881,0.849121,506
13154187,10002,-0.110229,0.453613,0.851318,508
13164174,9987,-0.106812,0.459106,0.852295,508
13174165,9991,-0.107910,0.460205,0.850464,509
13184165,10000,-0.109009,0.459839,0.849854,510
13194181,10016,-0.107910,0.457886,0.850952,510
13204173,9992,-0.107178,0.459595,0.851562,511
13214189,10016,-0.108643,0.460449,0.852661,511
13224179,9990,-0.109497,0.459839,0.851562,514
13234171,9992,-0.110718,0.458618,0.849854,512
13244165,9994,-0.112305,0.459595,0.851196,518
13254183,10018,-0.112915,0.461060,0.852173,518
13264186,10003,-0.111572,0.461548,0.852905,523
13274174,9988,-0.111816,0.462402,0.853638,519
13284190,10016,-0.112427,0.460937,0.852539,524
13294164,9974,-0.111694,0.459839,0.852905,522
13304165,10001,-0.112549,0.458496,0.855713,526
13314193,10028,-0.111450,0.457642,0.856567,526
13324180,9987,-0.113159,0.458618,0.858521,526
13334179,9999,-0.114990,0.459961,0.859009,523
13344181,10002,-0.113037,0.459473,0.859131,528
13354172,9991,-0.113037,0.460571,0.858276,523
13364184,10012,-0.112183,0.461548,0.858154,527
13374195,10011,-0.112549,0.461426,0.855713,523
13384190,9995,-0.111938,0.459961,0.851685,519
13394169,9979,-0.110229,0.460205,0.851929,515
13404180,10011,-0.111084,0.461426,0.852661,517
13414192,10012,-0.111816,0.463745,0.852661,521
13424175,9983,-0.111572,0.464355,0.850098,518
13434169,9994,-0.111328,0.462524,0.848999,512
13444172,10003,-0.110840,0.461182,0.849121,513
13454167,9995,-0.109741,0.457520,0.850342,514
13464171,10004,-0.109131,0.457886,0.851440,512
13474164,9993,-0.109619,0.459717,0.851196,513
13484175,10011,-0.110107,0.461914,0.850708,506
13494179,10004,-0.109619,0.462402,0.855103,513
13504166,9987,-0.108887,0.462402,0.853027,508
13514167,10001,-0.108887,0.462891,0.853149,512
13524193,10026,-0.108887,0.461304,0.852539,511
13534188,9995,-0.108154,0.458374,0.851807,512
13544174,9986,-0.109009,0.456055,0.851318,512
13554182,10008,-0.108032,0.456299,0.851074,512
13564172,9990,-0.110229,0.459229,0.851562,512
13574175,10003,-0.109253,0.460571,0.850952,510
13584219,10044,-0.109619,0.460083,0.849243,512
13594190,9971,-0.110962,0.459229,0.848755,511
13604193,10003,-0.110352,0.456665,0.848511,509
13614166,9973,-0.109375,0.455811,0.849609,505
13624174,10008,-0.109741,0.456909,0.849854,522
13634178,10004,-0.109497,0.457520,0.849731,512
13644171,9993,-0.111084,0.457764,0.848877,509
13654165,9994,-0.110962,0.457886,0.851196,511
13664170,10005,-0.110474,0.458130,0.852539,504
13674183,10013,-0.111328,0.459106,0.852783,510
13684189,10006,-0.111572,0.460693,0.851929,506
13694179,9990,-0.112061,0.459351,0.852295,506
13704177,9998,-0.112305,0.460571,0.853516,506
13714174,9997,-0.113403,0.463013,0.856079,508
13724169,9995,-0.112549,0.465698,0.855225,507
13734172,10003,-0.112549,0.466064,0.855957,509
13744176,10004,-0.112427,0.464600,0.856323,510
13754164,9988,-0.111938,0.463501,0.856323,511
13764192,10028,-0.111572,0.464722,0.853149,509
13774182,9990,-0.112061,0.465698,0.855591,507
13784176,9994,-0.111694,0.466064,0.856079,507
13794178,10002,-0.111694,0.466553,0.856567,508
13804165,9987,-0.111206,0.465576,0.855347,507
13814174,10009,-0.110840,0.465820,0.852783,507
13824180,10006,-0.109375,0.462402,0.851196,510
13834189,10009,-0.109741,0.461060,0.849731,509
13844184,9995,-0.109619,0.457153,0.849243,507
13854170,9986,-0.109497,0.456055,0.850098,508
13864186,10016,-0.110107,0.456543,0.849365,509
13874183,9997,-0.110107,0.458862,0.848877,508
13884173,9990,-0.108643,0.458496,0.848267,506
13894177,10004,-0.108887,0.456909,0.848511,512
13904184,10007,-0.109863,0.453857,0.846802,505
13914171,9987,-0.108154,0.451172,0.844971,510
13924193,10022,-0.108032,0.449707,0.849121,502
13934187,9994,-0.107422,0.453735,0.851440,509
13944174,9987,-0.106689,0.457520,0.852417,509
13954177,10003,-0.105835,0.460449,0.851929,510
13964170,9993,-0.106201,0.460083,0.850952,508
13974193,10023,-0.106934,0.457153,0.849976,509
13984171,9978,-0.107056,0.453735,0.849487,512
13994164,9993,-0.108398,0.454834,0.851318,509
14004167,10003,-0.109253,0.459473,0.852051,511
14014182,10015,-0.110107,0.464355,0.852905,516
14024198,10016,-0.110352,0.467041,0.852295,514
14034190,9992,-0.109863,0.468994,0.851440,516
14044167,9977,-0.111816,0.466919,0.852051,522
14054190,10023,-0.108765,0.464233,0.855591,523
14064176,9986,-0.109863,0.460815,0.855835,526
14074185,10009,-0.110718,0.461548,0.855713,527
14084186,10001,-0.110718,0.462280,0.855957,528
14094165,9979,-0.112061,0.463257,0.857788,528
14104169,10004,-0.111450,0.464478,0.858398,519
14114171,10002,-0.110962,0.465332,0.857300,527
14124168,9997,-0.110962,0.464966,0.857666,523
14134191,10023,-0.109497,0.464233,0.857300,528
14144187,9996,-0.110840,0.461426,0.856323,524
14154185,9998,-0.109985,0.462158,0.853638,523
14164202,10017,-0.110474,0.464600,0.854248,522
14174182,9980,-0.110107,0.466064,0.855469,520
14184189,10007,-0.110352,0.465210,0.854736,514
14194180,9991,-0.110596,0.464233,0.852417,516
14204171,9991,-0.110718,0.460693,0.851929,515
14214183,10012,-0.110474,0.460083,0.853394,513
14224188,10005,-0.109985,0.460083,0.854492,514
14234178,9990,-0.108032,0.460693,0.853394,512
14244168,9990,-0.109863,0.461914,0.851685,509
14254192,10024,-0.109497,0.460937,0.850586,512
14264173,9981,-0.107422,0.460449,0.850708,511
14274186,10013,-0.108154,0.458984,0.849976,512
14284173,9987,-0.107666,0.459839,0.851929,512
14294181,10008,-0.108032,0.459473,0.853027,509
14304189,10008,-0.108154,0.458496,0.851318,512
14314184,9995,-0.108643,0.459229,0.849365,507
14324180,9996,-0.107788,0.460449,0.847656,512
14334169,9989,-0.108398,0.460449,0.846436,509
14344180,10011,-0.107666,0.460449,0.845703,512
14354174,9994,-0.108643,0.460083,0.843872,508
14364171,9997,-0.109375,0.460693,0.846069,510
14374175,10004,-0.109009,0.463135,0.847778,504
14384189,10014,-0.109253,0.465698,0.847412,511
14394184,9995,-0.109985,0.468384,0.849243,506
14404169,9985,-0.109497,0.467896,0.848755,512
14414182,10013,-0.107910,0.463989,0.850952,512
14424181,9999,-0.107178,0.458130,0.854492,510
14434169,9988,-0.108154,0.458008,0.856567,510
14444172,10003,-0.108521,0.458374,0.857422,510
14454220,10048,-0.109009,0.460449,0.859863,510
14464182,9962,-0.109741,0.461792,0.859619,509
14474184,10002,-0.112305,0.464355,0.856201,509
14484164,9980,-0.111694,0.464478,0.855469,512
14494182,10018,-0.109741,0.463501,0.855225,508
14504181,9999,-0.111450,0.462891,0.854126,509
14514177,9996,-0.110840,0.464600,0.852783,508
14524165,9988,-0.110352,0.466675,0.853760,509
14534184,10019,-0.111816,0.467773,0.852539,502
14544183,9999,-0.112061,0.468506,0.852905,504
14554185,10002,-0.111816,0.467407,0.852295,509
14564170,9985,-0.109375,0.467285,0.851929,508
14574173,10003,-0.110474,0.465942,0.849731,505
14584175,10002,-0.109619,0.459595,0.849243,508
14594211,10036,-0.109985,0.459717,0.849854,501
14604185,9974,-0.108643,0.461792,0.850708,502
14614181,9996,-0.110474,0.463013,0.850342,509
14624189,10008,-0.109985,0.463989,0.852417,509
14634180,9991,-0.110229,0.463623,0.852905,510
14644174,9994,-0.109619,0.462280,0.850830,511
14654167,9993,-0.110474,0.461548,0.848389,507
14664170,10003,-0.109375,0.459473,0.848022,501
14674204,10034,-0.109009,0.458130,0.846191,510
14684184,9980,-0.109009,0.458984,0.847900,508
14694180,9996,-0.109985,0.461060,0.851929,509
14704180,10000,-0.108765,0.462280,0.851074,511
14714177,9997,-0.110229,0.461548,0.846313,510
14724166,9989,-0.110352,0.459473,0.845337,503
14734174,10008,-0.109863,0.458130,0.844849,507
14744192,10018,-0.109375,0.457642,0.850952,508
14754164,9972,-0.107178,0.462769,0.851685,503
14764182,10018,-0.107300,0.465942,0.853027,507
14774180,9998,-0.107056,0.466675,0.852295,508
14784187,10007,-0.106323,0.464478,0.851318,509
14794188,10001,-0.105835,0.461914,0.847534,510
14804191,10003,-0.107910,0.457886,0.847656,513
14814175,9984,-0.109497,0.459717,0.849609,510
14824172,9997,-0.109131,0.463623,0.850098,512
14834173,10001,-0.110962,0.468262,0.851562,515
14844175,10002,-0.110474,0.470215,0.851318,518
14854164,9989,-0.109253,0.438843,0.848877,518
14864181,10017,-0.109863,0.462524,0.847656,518
14874181,10000,-0.109741,0.461060,0.847412,520
14884213,10032,-0.110229,0.458862,0.851440,522
14894180,9967,-0.110352,0.460571,0.852905,526
14904193,10013,-0.111206,0.461792,0.854736,524
14914164,9971,-0.110840,0.468872,0.856567,525
14924178,10014,-0.111694,0.469604,0.856689,527
14934165,9987,-0.111938,0.469360,0.857666,519
14944189,10024,-0.112183,0.468506,0.856079,518
14954164,9975,-0.111206,0.468506,0.853760,523
14964180,10016,-0.112549,0.467651,0.849854,522
14974192,10012,-0.113281,0.468262,0.850342,519
14984173,9981,-0.113403,0.468628,0.854492,519
14994182,10009,-0.112427,0.469604,0.853760,511
15004181,9999,-0.112427,0.470215,0.853027,516
15014181,10000,-0.112793,0.469116,0.853271,517
15024198,10017,-0.112427,0.463989,0.851807,512
15034175,9977,-0.113159,0.461792,0.850830,514
15044184,10009,-0.112061,0.461304,0.850586,510
15054192,10008,-0.111328,0.461792,0.850708,512
15064189,9997,-0.111328,0.464478,0.851685,511
15074178,9989,-0.109497,0.465332,0.851807,513
15084165,9987,-0.109131,0.464600,0.850830,511
15094205,10040,-0.110229,0.465454,0.850708,510
15104183,9978,-0.109131,0.466187,0.849731,509
15114184,10001,-0.109863,0.466309,0.848755,505
15124189,10005,-0.107788,0.464478,0.848755,511
15134180,9991,-0.107666,0.464844,0.847290,510
15144184,10004,-0.107544,0.464722,0.845093,509
15154187,10003,-0.106567,0.464966,0.845825,511
15164170,9983,-0.106689,0.464600,0.846069,507
15174176,10006,-0.106201,0.464966,0.843384,511
15184186,10010,-0.107422,0.467163,0.845703,512
15194184,9998,-0.107300,0.466675,0.845825,511
15204184,10000,-0.107544,0.466797,0.845825,511
15214187,10003,-0.108887,0.466919,0.846191,510
15224187,10000,-0.107178,0.466064,0.844360,504
15234172,9985,-0.108887,0.466919,0.844971,507
15244184,10012,-0.109741,0.463501,0.848022,509
15254185,10001,-0.109375,0.465088,0.848267,508
15264190,10005,-0.109131,0.466553,0.848022,509
15274179,9989,-0.109741,0.468384,0.846924,512
15284181,10002,-0.110107,0.468140,0.846680,511
15294209,10028,-0.111572,0.464111,0.844971,510
15304174,9965,-0.111206,0.464233,0.845703,508
15314166,9992,-0.110962,0.466064,0.846680,506
15324181,10015,-0.110596,0.469360,0.848999,506
15334180,9999,-0.109375,0.471069,0.847778,508
15344188,10008,-0.111694,0.472168,0.849365,510
15354175,9987,-0.110352,0.467651,0.848755,508
15364171,9996,-0.111816,0.465698,0.849243,510
15374164,9993,-0.111938,0.463745,0.849487,508
15384185,10021,-0.110840,0.464111,0.851685,507
15394175,9990,-0.110229,0.465698,0.853149,507
15404179,10004,-0.111694,0.469604,0.854492,505
15414185,10006,-0.111206,0.469482,0.853271,509
15424169,9984,-0.110962,0.468262,0.852051,508
15434208,10039,-0.110718,0.465942,0.849365,503
15444178,9970,-0.110352,0.464600,0.846436,504
15454188,10010,-0.109009,0.465088,0.844727,506
15464170,9982,-0.111572,0.470337,0.844727,509
15474177,10007,-0.110107,0.474609,0.846191,502
15484180,10003,-0.109741,0.476196,0.845703,507
15494173,9993,-0.109619,0.477661,0.845825,503
15504201,10028,-0.108887,0.473755,0.841431,502
15514177,9976,-0.109863,0.470459,0.838501,509
15524181,10004,-0.109497,0.466675,0.840088,507
15534172,9991,-0.109741,0.465332,0.844727,509
15544176,10004,-0.109253,0.466431,0.846558,509
15554172,9996,-0.108765,0.468018,0.848145,508
15564185,10013,-0.110107,0.468994,0.849976,508
15574182,9997,-0.109253,0.465942,0.849731,509
15584191,10009,-0.108276,0.465576,0.848145,501
15594171,9980,-0.108154,0.466675,0.846191,510
15604176,10005,-0.110596,0.468384,0.846436,508
15614164,9988,-0.109375,0.469849,0.847046,509
15624172,10008,-0.109375,0.473389,0.846069,513
15634169,9997,-0.110474,0.472778,0.846191,512
15644190,10021,-0.110107,0.473877,0.846924,516
15654172,9982,-0.110352,0.475342,0.845459,516
15664171,9999,-0.111328,0.475708,0.843750,514
15674168,9997,-0.111694,0.476562,0.845093,517
15684192,10024,-0.111938,0.476074,0.845581,524
15694183,9991,-0.113525,0.477295,0.845703,521
15704192,10009,-0.113159,0.476807,0.845703,517
15714179,9987,-0.114014,0.475464,0.846436,521
15724182,10003,-0.113647,0.476074,0.848755,523
15734186,10004,-0.113159,0.472656,0.850952,519
15744175,9989,-0.113281,0.472534,0.851074,517
15754177,10002,-0.113403,0.472168,0.848145,521
15764176,9999,-0.114868,0.470093,0.845947,519
15774168,9992,-0.114624,0.471069,0.844727,521
15784175,10007,-0.114258,0.469604,0.846069,518
15794173,9998,-0.114746,0.469238,0.848389,512
15804165,9992,-0.113403,0.470337,0.846436,515
15814188,10023,-0.115112,0.469116,0.844604,510
15824189,10001,-0.115356,0.468872,0.844238,512
15834206,10017,-0.115112,0.468872,0.843750,508
15844181,9975,-0.113770,0.468872,0.844727,508
15854172,9991,-0.114380,0.468872,0.843628,508
15864180,10008,-0.114868,0.468628,0.843018,510
15874191,10011,-0.113770,0.469238,0.844604,502
15884181,9990,-0.111938,0.467896,0.845947,509
15894219,10038,-0.112915,0.469360,0.845581,505
15904190,9971,-0.112305,0.471680,0.843872,510
15914174,9984,-0.111816,0.473755,0.841797,505
15924194,10020,-0.112915,0.475342,0.841919,506
15934171,9977,-0.112915,0.474731,0.843384,509
15944172,10001,-0.111938,0.472778,0.843628,511
15954171,9999,-0.112183,0.472778,0.844238,510
15964165,9994,-0.112549,0.473022,0.843750,508
15974188,10023,-0.111572,0.471069,0.845703,504
15984164,9976,-0.111938,0.470215,0.846802,510
15994172,10008,-0.111450,0.470825,0.845581,507
16004183,10011,-0.112915,0.472290,0.844727,505
16014189,10006,-0.114380,0.473145,0.848267,511
16024188,9999,-0.113159,0.473755,0.848022,510
16034175,9987,-0.113037,0.475464,0.846680,503
16044191,10016,-0.114746,0.475342,0.845337,511
16054193,10002,-0.113403,0.475220,0.843994,505
16064190,9997,-0.115234,0.476807,0.842041,509
16074189,9999,-0.116699,0.476562,0.840698,507
16084188,9999,-0.117310,0.476562,0.841064,509
16094172,9984,-0.117432,0.477661,0.842163,503
16104201,10029,-0.117920,0.476685,0.842651,504
16114193,9992,-0.119141,0.478027,0.842041,508
16124180,9987,-0.119751,0.477173,0.841675,510
16134177,9997,-0.119507,0.476196,0.842407,509
16144185,10008,-0.119141,0.473755,0.844482,509
16154184,9999,-0.119263,0.472778,0.845703,507
16164186,10002,-0.118896,0.472290,0.849854,506
16174193,10007,-0.118896,0.472412,0.851196,507
16184172,9979,-0.119019,0.471924,0.851562,508
16194174,10002,-0.119385,0.471191,0.850098,507
16204179,10005,-0.119751,0.469604,0.848877,509
16214178,9999,-0.119507,0.470215,0.847534,507
16224174,9996,-0.117554,0.472534,0.847412,505
16234188,10014,-0.117798,0.471924,0.846558,508
16244179,9991,-0.116699,0.471191,0.844238,508
16254181,10002,-0.117188,0.470459,0.844116,508
16264186,10005,-0.117920,0.468750,0.845337,508
16274189,10003,-0.115967,0.466309,0.846924,506
16284186,9997,-0.114014,0.465576,0.843140,505
16294181,9995,-0.113892,0.466187,0.843018,507
16304189,10008,-0.114380,0.466431,0.842285,508
16314170,9981,-0.112061,0.466309,0.842163,502
16324176,10006,-0.111328,0.465698,0.843628,511
16334169,9993,-0.111694,0.467773,0.844727,510
16344176,10007,-0.111816,0.468994,0.843750,509
16354189,10013,-0.111938,0.470825,0.841309,514
16364184,9995,-0.113037,0.471191,0.841797,513
16374185,10001,-0.113159,0.469849,0.841187,509
16384178,9993,-0.111694,0.471558,0.842896,516
16394178,10000,-0.111450,0.473633,0.843994,518
16404190,10012,-0.112305,0.476929,0.843506,519
16414180,9990,-0.114380,0.478394,0.844482,515
16424188,10008,-0.114624,0.478027,0.844360,524
16434166,9978,-0.114014,0.473267,0.846680,521
16444185,10019,-0.115356,0.472046,0.848389,519
16454164,9979,-0.115601,0.472900,0.847656,523
16464191,10027,-0.116455,0.473877,0.848999,518
16474180,9989,-0.116455,0.473267,0.848755,523
16484178,9998,-0.116333,0.472900,0.849487,524
16494172,9994,-0.117065,0.472168,0.848022,521
16504177,10005,-0.117798,0.470093,0.849609,522
16514174,9997,-0.118286,0.467896,0.850220,520
16524165,9991,-0.116943,0.465332,0.849609,513
16534188,10023,-0.117554,0.467407,0.849487,516
16544189,10001,-0.117310,0.468262,0.848755,517
16554188,9999,-0.117188,0.469116,0.848267,514
16564188,10000,-0.117920,0.469482,0.845337,516
16574167,9979,-0.117310,0.470215,0.845093,509
16584181,10014,-0.116943,0.472046,0.843994,507
16594166,9985,-0.117310,0.472534,0.842651,511
16604192,10026,-0.119507,0.469116,0.845093,509
16614188,9996,-0.118530,0.470337,0.844727,504
16624187,9999,-0.117798,0.473145,0.845215,510
16634169,9982,-0.119263,0.474976,0.844727,513
16644176,10007,-0.119263,0.473145,0.843262,504
16654193,10017,-0.119873,0.471191,0.844360,510
16664188,9995,-0.117920,0.471436,0.843384,512
16674170,9982,-0.118286,0.471191,0.845337,510
16684176,10006,-0.118408,0.469971,0.847290,511
16694187,10011,-0.118774,0.469116,0.849365,509
16704184,9997,-0.118286,0.469116,0.850220,512
16714198,10014,-0.118774,0.470215,0.847290,506
16724182,9984,-0.119385,0.469849,0.846558,509
16734180,9998,-0.119263,0.469238,0.845215,514
16744176,9996,-0.118286,0.469360,0.845581,514
16754191,10015,-0.118164,0.470825,0.845337,512
16764177,9986,-0.118286,0.472290,0.843140,512
16774177,10000,-0.119263,0.471313,0.841675,512
16784186,10009,-0.118408,0.471191,0.842529,505
16794182,9996,-0.118042,0.471436,0.844238,505
16804168,9986,-0.118286,0.471924,0.846313,512
16814169,10001,-0.118164,0.473389,0.845459,509
16824173,10004,-0.119019,0.473389,0.845459,509
16834191,10018,-0.119385,0.473389,0.845215,510
16844178,9987,-0.118652,0.472412,0.845825,505
16854164,9986,-0.117432,0.469971,0.846436,504
16864174,10010,-0.117676,0.470459,0.848755,507
16874169,9995,-0.119019,0.472656,0.847168,504
16884193,10024,-0.117065,0.472412,0.845459,509
16894170,9977,-0.117432,0.472534,0.845825,511
16904171,10001,-0.117676,0.472290,0.844482,510
16914180,10009,-0.117310,0.471436,0.844116,509
16924219,10039,-0.116821,0.471802,0.844116,505
16934187,9968,-0.114868,0.473389,0.844727,506
16944166,9979,-0.115479,0.473755,0.844238,510
16954186,10020,-0.115967,0.471802,0.839966,509
16964165,9979,-0.115723,0.469971,0.837524,510
16974186,10021,-0.116699,0.470703,0.837769,506
16984188,10002,-0.114746,0.469238,0.842529,509
16994185,9997,-0.115356,0.469727,0.843384,511
17004185,10000,-0.114868,0.469360,0.840942,510
17014183,9998,-0.116211,0.468262,0.837769,510
17024186,10003,-0.116577,0.465210,0.838623,509
17034165,9979,-0.116699,0.462524,0.840210,506
17044171,10006,-0.112549,0.463623,0.845825,509
17054165,9994,-0.112915,0.467529,0.847656,510
17064167,10002,-0.112183,0.470581,0.848022,503
17074169,10002,-0.111328,0.472656,0.846558,510
17084169,10000,-0.112915,0.472534,0.845093,507
17094206,10037,-0.113770,0.477051,0.840576,511
17104188,9982,-0.114502,0.479980,0.841064,513
17114169,9981,-0.113281,0.484985,0.840942,512
17124193,10024,-0.113647,0.489258,0.841187,515
17134176,9983,-0.113159,0.490723,0.840454,517
17144183,10007,-0.114380,0.492310,0.843384,514
17154168,9985,-0.114136,0.488525,0.844727,517
17164174,10006,-0.114014,0.486084,0.845825,518
17174200,10026,-0.113770,0.481934,0.846680,525
17184170,9970,-0.113892,0.480591,0.849365,524
17194177,10007,-0.114990,0.479370,0.852051,528
17204172,9995,-0.114502,0.479736,0.856934,524
17214172,10000,-0.114136,0.477051,0.858398,528
17224178,10006,-0.113647,0.473877,0.858154,527
17234174,9996,-0.113403,0.470215,0.858521,524
17244184,10010,-0.112061,0.467041,0.855347,522
17254174,9990,-0.111694,0.464600,0.854004,523
17264170,9996,-0.113647,0.466431,0.847900,524
17274182,10012,-0.113647,0.467896,0.844604,520
17284178,9996,-0.112549,0.467285,0.843262,515
17294191,10013,-0.112549,0.466064,0.841187,519
17304193,10002,-0.111938,0.466187,0.839600,519
17314179,9986,-0.111938,0.464111,0.837769,518
17324193,10014,-0.112549,0.463013,0.837524,513
17334188,9995,-0.112427,0.465698,0.835693,514
17344190,10002,-0.112427,0.468750,0.833984,513
17354190,10000,-0.112915,0.469604,0.833496,513
17364176,9986,-0.111450,0.468018,0.832520,513
17374191,10015,-0.112549,0.467529,0.836792,513
17384177,9986,-0.113525,0.469727,0.839233,511
17394170,9993,-0.113525,0.471924,0.842163,513
17404174,10004,-0.115112,0.473755,0.843994,510
17414192,10018,-0.115723,0.474854,0.846313,512
17424191,9999,-0.115112,0.474243,0.848267,508
17434191,10000,-0.115356,0.474731,0.846436,511
17444178,9987,-0.115723,0.476196,0.846191,510
17454165,9987,-0.117188,0.476929,0.848022,512
17464173,10008,-0.116333,0.477417,0.849854,508
17474175,10002,-0.115723,0.478027,0.850098,506
17484180,10005,-0.117065,0.482666,0.851196,512
17494188,10008,-0.116943,0.484375,0.849854,512
17504190,10002,-0.116455,0.482300,0.849854,512
17514173,9983,-0.116333,0.479004,0.849976,509
17524187,10014,-0.116699,0.476807,0.848267,511
17534190,10003,-0.115967,0.477295,0.847290,508
17544172,9982,-0.116943,0.476562,0.848755,511
17554168,9996,-0.114624,0.476440,0.848877,512
17564184,10016,-0.115601,0.475586,0.848267,510
17574185,10001,-0.115723,0.476440,0.847168,508
17584171,9986,-0.115723,0.474243,0.846313,511
17597278,13107,-0.114136,0.470093,0.841553,511
17604170,6892,-0.114014,0.468750,0.838745,506
17614164,9994,-0.112549,0.466797,0.837646,509
17624192,10028,-0.113525,0.467773,0.841064,510
17634205,10013,-0.114258,0.469238,0.842529,509
17644192,9987,-0.115356,0.474121,0.841675,514
17654171,9979,-0.114868,0.474976,0.840942,504
17664185,10014,-0.116089,0.473633,0.838379,510
17674170,9985,-0.115845,0.471924,0.837158,510
17684186,10016,-0.115234,0.468994,0.838379,511
17694186,10000,-0.114868,0.467407,0.840454,504
17704175,9989,-0.115601,0.471436,0.841797,505
17714190,10015,-0.116455,0.474121,0.841797,505
17724193,10003,-0.117798,0.474854,0.841309,510
17734190,9997,-0.119019,0.472290,0.841553,508
17744176,9986,-0.118408,0.469238,0.843384,512
17754169,9993,-0.116455,0.470947,0.843994,510
17764168,9999,-0.115967,0.471558,0.841919,505
17774165,9997,-0.117432,0.471313,0.843506,509
17784188,10023,-0.116943,0.471680,0.844604,509
17794177,9989,-0.116943,0.472534,0.845825,505
17804165,9988,-0.117554,0.472534,0.849609,508
17814190,10025,-0.115234,0.473755,0.846924,504
17824164,9974,-0.114990,0.472168,0.844482,508
17834180,10016,-0.114746,0.471802,0.844604,510
17844186,10006,-0.114624,0.472412,0.844971,511
17854189,10003,-0.113892,0.472168,0.844604,505
17864188,9999,-0.116089,0.480103,0.846436,508
17874173,9985,-0.116943,0.483398,0.845215,506
17884174,10001,-0.117920,0.483887,0.844727,511
17894190,10016,-0.118042,0.481689,0.843994,515
17904186,9996,-0.116943,0.477539,0.843750,515
17914167,9981,-0.116333,0.473145,0.841309,512
17924185,10018,-0.116211,0.472656,0.843628,515
17934187,10002,-0.115845,0.473999,0.845093,517
17944175,9988,-0.116211,0.477051,0.845093,525
17954176,10001,-0.118286,0.478394,0.847046,522
17964185,10009,-0.118042,0.478394,0.847290,527
17974179,9994,-0.117432,0.473511,0.844482,528
17984165,9986,-0.117310,0.472046,0.843506,523
17994175,10010,-0.117310,0.469482,0.843506,527
18004182,10007,-0.117188,0.467529,0.844482,524
18014192,10010,-0.116333,0.468872,0.844727,526
18024191,9999,-0.118286,0.471191,0.844604,524
18034171,9980,-0.119751,0.471558,0.842896,525
18044167,9996,-0.121338,0.470825,0.843262,524
18054183,10016,-0.119263,0.470581,0.843384,516
18064190,10007,-0.119873,0.470337,0.842285,519
18074186,9996,-0.119507,0.471802,0.841797,516
18084207,10021,-0.121216,0.472046,0.844116,511
18094178,9971,-0.121094,0.472778,0.843384,516
18104172,9994,-0.119141,0.472656,0.844849,516
18114175,10003,-0.119141,0.472168,0.845825,507
18124167,9992,-0.118286,0.472168,0.844116,510
18134170,10003,-0.119995,0.472656,0.843262,513
18144191,10021,-0.119995,0.473877,0.842896,506
18154188,9997,-0.118652,0.475464,0.843872,514
18164193,10005,-0.118774,0.477295,0.844849,512
18174164,9971,-0.118408,0.477173,0.845337,513
18184175,10011,-0.118164,0.476807,0.843994,512
18194176,10001,-0.117310,0.477661,0.841553,512
18204188,10012,-0.118164,0.476440,0.840576,512
18214173,9985,-0.117920,0.476196,0.839355,507
18224181,10008,-0.117920,0.476807,0.838989,509
18234209,10028,-0.119263,0.477295,0.838623,513
18244177,9968,-0.118530,0.477295,0.839600,507
18254167,9990,-0.119263,0.476929,0.840332,510
18264166,9999,-0.120117,0.477539,0.840088,507
18274191,10025,-0.120361,0.478394,0.841064,512
18284186,9995,-0.121582,0.478516,0.839844,514
18294185,9999,-0.121460,0.478394,0.838501,511
18304203,10018,-0.123779,0.477173,0.841431,511
18314185,9982,-0.123291,0.476807,0.841675,512
18324164,9979,-0.124512,0.475708,0.841797,506
18334169,10005,-0.125244,0.473511,0.842529,510
18344179,10010,-0.126099,0.470093,0.843750,506
18354185,10006,-0.126709,0.466553,0.845215,504
18364174,9989,-0.126709,0.468140,0.845581,510
18374171,9997,-0.126587,0.469604,0.845337,510
18384170,9999,-0.126953,0.472412,0.845215,505
18394183,10013,-0.127808,0.472412,0.845825,510
18404180,9997,-0.127319,0.472656,0.843994,509
18414175,9995,-0.127930,0.470459,0.843506,508
18424165,9990,-0.125244,0.470337,0.844116,509
18434191,10026,-0.125854,0.469849,0.842285,509
18444166,9975,-0.127319,0.471436,0.842041,509
18454192,10026,-0.125854,0.473022,0.843506,510
18464192,10000,-0.123779,0.473999,0.843262,508
18474192,10000,-0.124023,0.476196,0.841187,510
18484165,9973,-0.123779,0.477417,0.840088,505
18494191,10026,-0.122314,0.479370,0.842285,508
18504172,9981,-0.121338,0.477417,0.839966,510
18514165,9993,-0.121826,0.474976,0.840210,510
18524205,10040,-0.123413,0.476074,0.843506,507
18534187,9982,-0.123047,0.474487,0.845093,502
18544192,10005,-0.121094,0.472900,0.847412,510
18554174,9982,-0.122437,0.473022,0.843262,509
18564189,10015,-0.123657,0.471924,0.840820,511
18574186,9997,-0.122681,0.466431,0.842773,508
18584165,9979,-0.122314,0.465820,0.845337,511
18594176,10011,-0.121582,0.467651,0.847168,503
18604191,10015,-0.121582,0.469604,0.844116,505
18614170,9979,-0.120972,0.469238,0.840210,507
18624170,10000,-0.121948,0.467896,0.836670,503
18634167,9997,-0.121460,0.466675,0.833740,507
18644167,10000,-0.122070,0.469116,0.833496,512
18654169,10002,-0.122559,0.473999,0.834839,509
18664168,9999,-0.124512,0.476807,0.841675,513
18674184,10016,-0.124146,0.478516,0.845581,516
18684198,10014,-0.125854,0.474121,0.848755,516
18694167,9969,-0.125122,0.469849,0.847534,518
18704180,10013,-0.125244,0.465942,0.848999,522
18714169,9989,-0.124756,0.464966,0.849976,521
18724175,10006,-0.125488,0.466187,0.852539,523
18734190,10015,-0.126099,0.469360,0.857056,525
18744179,9989,-0.129028,0.474487,0.858643,525
18754219,10040,-0.129639,0.474976,0.856079,520
18764168,9949,-0.129761,0.475220,0.852417,523
18774173,10005,-0.130005,0.472778,0.851929,526
18784172,9999,-0.129150,0.471802,0.849487,523
18795113,10941,-0.128906,0.471680,0.847168,525
18804684,9571,-0.129395,0.472046,0.845459,524
18814191,9507,-0.128540,0.471802,0.845337,522
18824177,9986,-0.128784,0.471680,0.848145,521
18834166,9989,-0.127441,0.472168,0.848145,514
18844186,10020,-0.128906,0.468994,0.846680,512
18854165,9979,-0.128784,0.468140,0.846680,517
18864172,10007,-0.127808,0.467285,0.844971,516
18874173,10001,-0.128418,0.467529,0.844727,515
18884168,9995,-0.127563,0.468262,0.845093,515
18894191,10023,-0.126587,0.467773,0.845337,510
18904193,10002,-0.124756,0.466919,0.846191,513
18914189,9996,-0.125366,0.468262,0.846436,512
18924181,9992,-0.125732,0.468506,0.846924,512
18934184,10003,-0.125000,0.468140,0.845947,512
18944186,10002,-0.123901,0.467407,0.846313,509
18954191,10005,-0.123535,0.469849,0.843018,513
18964193,10002,-0.122803,0.469482,0.841553,512
18974194,10001,-0.122314,0.468994,0.840698,512
18984185,9991,-0.122192,0.468262,0.840332,511
18994192,10007,-0.123779,0.467407,0.841675,510
19004187,9995,-0.120850,0.468262,0.842163,507
19014178,9991,-0.122192,0.465698,0.843872,506
19024172,9994,-0.122559,0.464355,0.845093,512
19034177,10005,-0.123901,0.460449,0.845825,506
19044187,10010,-0.124512,0.461304,0.845581,512
19054190,10003,-0.125244,0.462036,0.845825,505
19064165,9975,-0.125732,0.466675,0.846069,511
19074167,10002,-0.125000,0.468384,0.844849,514
19084172,10005,-0.125732,0.469238,0.843140,511
19094193,10021,-0.126099,0.469482,0.842163,509
19104184,9991,-0.125488,0.470947,0.841675,506
19114166,9982,-0.125122,0.472778,0.844360,510
19124180,10014,-0.125854,0.475830,0.846558,504
19134177,9997,-0.127563,0.476807,0.847046,507
19144180,10003,-0.128540,0.477905,0.848511,501
19154174,9994,-0.127075,0.480103,0.849243,504
19164176,10002,-0.126343,0.480469,0.848267,509
19174189,10013,-0.127197,0.473633,0.848267,508
19184175,9986,-0.127075,0.470215,0.850220,509
19194194,10019,-0.126587,0.468628,0.850952,507
19204164,9970,-0.127197,0.468872,0.851318,509
19214172,10008,-0.127075,0.470093,0.851318,510
19224171,9999,-0.127319,0.471191,0.849121,508
19234182,10011,-0.126709,0.469116,0.849731,506
19244185,10003,-0.125732,0.468262,0.848755,509
19254172,9987,-0.125122,0.468262,0.846802,508
19264166,9994,-0.124878,0.468384,0.844727,505
19274181,10015,-0.124512,0.468994,0.842041,507
19284180,9999,-0.123413,0.465088,0.841919,501
19294183,10003,-0.124023,0.466064,0.843872,505
19304176,9993,-0.123413,0.465454,0.843750,511
19314165,9989,-0.122559,0.466919,0.844116,501
19324186,10021,-0.123169,0.468018,0.844116,504
19334169,9983,-0.121704,0.466675,0.843384,506
19344185,10016,-0.119629,0.463989,0.841553,508
19354187,10002,-0.120728,0.463501,0.841309,509
19364180,9993,-0.120728,0.464722,0.843628,509
19374176,9996,-0.120361,0.464844,0.844360,506
19384187,10011,-0.120483,0.464478,0.846069,506
19394179,9992,-0.118896,0.470581,0.843994,506
19404173,9994,-0.118774,0.472412,0.844971,508
19414187,10014,-0.118042,0.469849,0.844604,509
19424184,9997,-0.118652,0.468872,0.843140,509
19434173,9989,-0.118530,0.469116,0.843384,510
19444180,10007,-0.117310,0.470215,0.844238,511
19454178,9998,-0.118652,0.471436,0.848022,513
19464182,10004,-0.119507,0.472412,0.849121,513
19474187,10005,-0.119751,0.474731,0.848755,515
19484186,9999,-0.120117,0.473755,0.848267,518
19494164,9978,-0.119385,0.471436,0.848511,518
19504175,10011,-0.118652,0.466064,0.846802,515
19514188,10013,-0.118774,0.465820,0.847900,516
19524189,10001,-0.119263,0.466553,0.850952,520
19534188,9999,-0.119751,0.466187,0.851440,526
19544169,9981,-0.120850,0.469238,0.850952,519
19554171,10002,-0.122925,0.472168,0.851074,522
19564170,9999,-0.123047,0.472900,0.852905,526
19574173,10003,-0.122681,0.471069,0.851685,522
19584191,10018,-0.121582,0.469604,0.849731,522
19594168,9977,-0.122070,0.471069,0.848267,524
19604176,10008,-0.122192,0.472778,0.847656,523
19614172,9996,-0.122437,0.471924,0.847900,521
19624174,10002,-0.123047,0.472046,0.847900,523
19634191,10017,-0.123413,0.473755,0.847656,518
19644182,9991,-0.121704,0.475586,0.847778,518
19654199,10017,-0.121704,0.474121,0.846436,516
19664192,9993,-0.121826,0.471191,0.848389,516
19674173,9981,-0.122070,0.465088,0.848022,511
19684192,10019,-0.122070,0.464111,0.849487,511
19694186,9994,-0.122437,0.463257,0.850342,512
19704175,9989,-0.123291,0.464722,0.850708,510
19714189,10014,-0.122559,0.463867,0.850708,510
19724174,9985,-0.122314,0.462036,0.850098,506
19734184,10010,-0.121460,0.462402,0.848633,503
19744175,9991,-0.120728,0.462402,0.848267,506
19754181,10006,-0.119629,0.461548,0.846924,509
19764188,10007,-0.117920,0.460449,0.845459,508
19774180,9992,-0.117676,0.462280,0.847046,505
19784186,10006,-0.117065,0.467041,0.846436,508
19794177,9991,-0.117432,0.467773,0.845215,512
19804192,10015,-0.115601,0.466675,0.843140,510
19814189,9997,-0.115234,0.465088,0.841675,511
19824205,10016,-0.114746,0.463745,0.841797,512
19834193,9988,-0.114746,0.462891,0.843384,509
19844167,9974,-0.114014,0.464722,0.844849,511
19854183,10016,-0.113892,0.467407,0.845459,508
19864167,9984,-0.114380,0.469727,0.846436,511
19874180,10013,-0.114258,0.469604,0.847290,504
19884181,10001,-0.113525,0.468262,0.847534,511
19894203,10022,-0.113770,0.465088,0.846436,508
19904200,9997,-0.112549,0.466431,0.845459,509
19914192,9992,-0.114258,0.469971,0.845093,510
19924192,10000,-0.114990,0.473145,0.845459,510
19934186,9994,-0.115601,0.474121,0.844971,510
19944164,9978,-0.116089,0.475708,0.845947,504
19954191,10027,-0.117310,0.474854,0.847168,504
19964185,9994,-0.117432,0.473145,0.849243,503
19974175,9990,-0.116943,0.470215,0.850830,509
19984190,10015,-0.117310,0.469727,0.849976,509
19994171,9981,-0.118164,0.470581,0.847656,507
20004178,10007,-0.118774,0.473145,0.848389,505
20014180,10002,-0.119141,0.473511,0.848755,510
20024177,9997,-0.119629,0.472168,0.849609,503
20034187,10010,-0.118408,0.470825,0.850952,510
20044191,10004,-0.118286,0.471313,0.851318,506
20054168,9977,-0.117798,0.466553,0.850586,509
20064182,10014,-0.117432,0.463379,0.848999,507
20074175,9993,-0.117798,0.463379,0.848999,503
20084165,9990,-0.118164,0.464233,0.848511,510
20094181,10016,-0.117065,0.465088,0.847168,509
20104167,9986,-0.117432,0.465088,0.846924,509
20114191,10024,-0.115112,0.467896,0.846436,509
20124177,9986,-0.114746,0.469238,0.844604,505
20134218,10041,-0.114868,0.466675,0.843628,511
20144180,9962,-0.113892,0.466309,0.843262,511
20154175,9995,-0.113770,0.467041,0.843140,510
20164186,10011,-0.114380,0.471313,0.845093,507
20174175,9989,-0.115845,0.471924,0.847534,512
20184182,10007,-0.116699,0.469727,0.849121,511
20194168,9986,-0.117310,0.468262,0.848022,513
20204191,10023,-0.117310,0.467896,0.847778,517
20214183,9992,-0.116455,0.469604,0.846436,520
20224187,10004,-0.117676,0.469971,0.849243,520
20234187,10000,-0.117798,0.468262,0.849365,515
20244165,9978,-0.117432,0.468140,0.849976,522
20254178,10013,-0.118286,0.466675,0.852051,526
20264181,10003,-0.117920,0.465088,0.852417,526
20274171,9990,-0.118652,0.466553,0.847412,526
20284178,10007,-0.120117,0.467651,0.846558,527
20294168,9990,-0.118774,0.466675,0.847900,525
20304172,10004,-0.117432,0.468018,0.845703,524
20314190,10018,-0.118286,0.470093,0.844360,522
20324176,9986,-0.120972,0.470947,0.846069,524
20334450,10274,-0.120239,0.469971,0.845825,522
20344177,9727,-0.121094,0.468872,0.847534,517
20354184,10007,-0.120850,0.467529,0.847656,512
20364212,10028,-0.120483,0.467285,0.846680,515
20374180,9968,-0.119751,0.467529,0.847900,516
20384193,10013,-0.121582,0.468628,0.846680,515
20394172,9979,-0.120361,0.467896,0.847656,514
20404174,10002,-0.120483,0.468872,0.849243,513
20414190,10016,-0.119873,0.469971,0.849487,511
20424193,10003,-0.120361,0.470459,0.848267,512
20434182,9989,-0.121948,0.467529,0.845215,506
20444172,9990,-0.120972,0.466309,0.844238,507
20454186,10014,-0.120728,0.466431,0.843872,503
20464187,10001,-0.119385,0.468628,0.844238,510
20474165,9978,-0.120850,0.469482,0.847168,509
20484169,10004,-0.121460,0.470215,0.848633,508
20494192,10023,-0.121338,0.469360,0.844849,508
20504165,9973,-0.121948,0.468750,0.845337,511
20514190,10025,-0.123535,0.467407,0.844604,510
20524169,9979,-0.121948,0.465576,0.844360,510
20534190,10021,-0.121948,0.465820,0.843872,504
20544191,10001,-0.121338,0.470581,0.844604,509
20554190,9999,-0.120361,0.470093,0.845093,512
20564170,9980,-0.121094,0.468872,0.846069,510
20574169,9999,-0.121948,0.467896,0.847778,509
20584164,9995,-0.120361,0.467285,0.846436,509
20594208,10044,-0.121582,0.467529,0.844482,509
20604192,9984,-0.123291,0.466919,0.843872,512
20614172,9980,-0.121826,0.465332,0.845703,504
20624174,10002,-0.122070,0.465332,0.845459,509
20634167,9993,-0.123047,0.467407,0.847534,507
20644166,9999,-0.122925,0.468140,0.849121,509
20654172,10006,-0.123901,0.468140,0.847778,508
20664180,10008,-0.124756,0.469238,0.847412,506
20674164,9984,-0.123779,0.470337,0.847900,510
20684189,10025,-0.123169,0.472534,0.848145,508
20694180,9991,-0.123047,0.472290,0.848389,509
20704174,9994,-0.122070,0.470825,0.847046,507
20714178,10004,-0.123413,0.468506,0.845459,504
20724188,10010,-0.123657,0.468018,0.844482,508
20734168,9980,-0.125244,0.469116,0.845581,510
20744168,10000,-0.123169,0.470337,0.847046,509
20754192,10024,-0.123779,0.471558,0.848755,503
20764169,9977,-0.122559,0.472534,0.850952,508
20774180,10011,-0.121094,0.473267,0.851562,499
20784191,10011,-0.121338,0.470825,0.847534,507
20794193,10002,-0.121948,0.469360,0.845947,507
20804193,10000,-0.122314,0.467529,0.845459,503
20814169,9976,-0.120361,0.466553,0.847046,510
20824198,10029,-0.117676,0.470947,0.849243,507
20834180,9982,-0.116699,0.473755,0.848877,508
20844182,10002,-0.116333,0.474731,0.847046,501
20854179,9997,-0.116943,0.474121,0.844849,508
20864180,10001,-0.117310,0.472290,0.842651,504
20874189,10009,-0.117676,0.470459,0.842407,508
20884173,9984,-0.119141,0.470093,0.844116,512
20894183,10010,-0.119385,0.470703,0.845337,513
20904165,9982,-0.119019,0.469971,0.844971,518
20914186,10021,-0.118774,0.469604,0.842896,518
20924185,9999,-0.119019,0.467651,0.841675,521
20934184,9999,-0.118164,0.465332,0.844116,524
20944164,9980,-0.118530,0.463135,0.845459,524
20954173,10009,-0.118530,0.461304,0.845215,516
20964183,10010,-0.119141,0.461792,0.847900,529
20974169,9986,-0.118286,0.461914,0.848267,524
20984177,10008,-0.119629,0.461426,0.848511,527
20994200,10023,-0.119995,0.460815,0.847412,523
21004171,9971,-0.118896,0.463379,0.847656,529
21014174,10003,-0.117920,0.465088,0.847900,527
21024175,10001,-0.118530,0.467651,0.848877,525
21034191,10016,-0.120117,0.468506,0.846924,525
21047112,12921,-0.120361,0.472412,0.844971,521
21058369,11257,-0.119507,0.474243,0.845337,523
21064195,5826,-0.119019,0.474365,0.845093,524
21074169,9974,-0.118530,0.473633,0.844971,519
21084178,10009,-0.119629,0.474487,0.845337,517
21094188,10010,-0.117798,0.474365,0.848511,511
21104188,10000,-0.118164,0.475342,0.848145,514
21114190,10002,-0.119507,0.476318,0.848511,509
21124171,9981,-0.119873,0.473755,0.849243,506
21134190,10019,-0.118408,0.472778,0.852051,514
21144177,9987,-0.119019,0.472778,0.851440,506
21154175,9998,-0.118896,0.470459,0.851440,509
21164182,10007,-0.119141,0.468872,0.850464,512
21174165,9983,-0.119263,0.469727,0.849731,509
21184191,10026,-0.118652,0.468628,0.850464,508
21194184,9993,-0.117554,0.468140,0.851318,510
21204185,10001,-0.119141,0.469604,0.848511,507
21214170,9985,-0.119263,0.470215,0.846069,507
21224166,9996,-0.118164,0.469360,0.844482,505
21234169,10003,-0.119263,0.468384,0.843262,510
21244314,10145,-0.118164,0.467529,0.841919,512
21255097,10783,-0.117554,0.468140,0.842041,511
21264184,9087,-0.117920,0.469238,0.841064,507
21274167,9983,-0.118652,0.469604,0.841064,512
21284181,10014,-0.118164,0.469116,0.841309,507
21294167,9986,-0.118896,0.467896,0.842163,512
21304167,10000,-0.119751,0.469482,0.843994,511
21314175,10008,-0.118896,0.465332,0.845337,506
21324164,9989,-0.118896,0.462158,0.844482,511
21334189,10025,-0.118652,0.461182,0.845459,510
21344191,10002,-0.118652,0.461304,0.845947,510
21354175,9984,-0.119141,0.462524,0.847046,507
21364169,9994,-0.119019,0.462646,0.845947,507
21374175,10006,-0.120483,0.462280,0.845947,503
21384170,9995,-0.119141,0.463135,0.845337,508
21394193,10023,-0.119019,0.463379,0.845459,506
21404192,9999,-0.119141,0.464478,0.844849,504
21414182,9990,-0.118774,0.466187,0.844727,509
21424181,9999,-0.118042,0.469360,0.845459,510
21434190,10009,-0.119995,0.468750,0.843384,509
21444174,9984,-0.120483,0.468262,0.845215,509
21454173,9999,-0.121216,0.468994,0.845581,503
21464185,10012,-0.122070,0.470093,0.846802,508
21474188,10003,-0.121704,0.473145,0.852051,507
21484176,9988,-0.119385,0.472534,0.852783,502
21494172,9996,-0.120850,0.473145,0.851074,504
21504170,9998,-0.120972,0.473755,0.849121,508
21514168,9998,-0.121460,0.472778,0.848755,508
21524179,10011,-0.119751,0.469360,0.848999,506
21534187,10008,-0.117065,0.471802,0.850342,509
21544166,9979,-0.116699,0.474121,0.850220,502
21554179,10013,-0.117188,0.473755,0.850830,508
21564222,10043,-0.115234,0.472656,0.850464,507
21574192,9970,-0.113770,0.470093,0.848755,510
21584186,9994,-0.117065,0.469727,0.844727,507
21594192,10006,-0.118774,0.470215,0.847900,515
21604170,9978,-0.118774,0.471802,0.848877,515
21614172,10002,-0.119385,0.471558,0.847290,512
21624178,10006,-0.120850,0.471436,0.845093,519
21634173,9995,-0.120850,0.470337,0.845337,514
21644170,9997,-0.118774,0.462402,0.846313,524
21654188,10018,-0.119385,0.457764,0.846680,522
21664176,9988,-0.118286,0.455322,0.848511,521
21674184,10008,-0.118896,0.454956,0.849976,529
21684181,9997,-0.119141,0.456543,0.850708,527
21694178,9997,-0.120605,0.459961,0.849854,529
21704167,9989,-0.120117,0.463501,0.849487,528
21714192,10025,-0.121460,0.463013,0.848755,529
21724175,9983,-0.120850,0.460571,0.848022,533
21734182,10007,-0.119385,0.458984,0.849121,529
21744169,9987,-0.119995,0.461792,0.848877,531
21754169,10000,-0.120239,0.463257,0.846436,526
21764193,10024,-0.119873,0.462891,0.845459,523
21774193,10000,-0.120728,0.464844,0.846313,523
21784194,10001,-0.119507,0.465698,0.848511,522
21794191,9997,-0.120605,0.469116,0.852051,516
21804187,9996,-0.119507,0.472290,0.848877,518
21814168,9981,-0.119873,0.470459,0.848633,515
21824167,9999,-0.119873,0.470337,0.851074,517
21834203,10036,-0.116943,0.468140,0.852783,515
21844178,9975,-0.116333,0.468140,0.852783,511
21854190,10012,-0.117554,0.468384,0.851929,505
21864174,9984,-0.117676,0.472656,0.851929,510
21874187,10013,-0.116943,0.471924,0.851685,510
21884168,9981,-0.116577,0.472168,0.851807,507
21894166,9998,-0.115601,0.469971,0.851929,511
21904173,10007,-0.115356,0.470703,0.851196,511
21914169,9996,-0.115234,0.467285,0.850342,509
21924168,9999,-0.114258,0.465454,0.850098,510
21934190,10022,-0.115356,0.466431,0.850098,508
21944169,9979,-0.115479,0.466919,0.849121,506
21954169,10000,-0.115601,0.468628,0.848022,508
21964184,10015,-0.116577,0.467896,0.847778,510
21974168,9984,-0.114380,0.464844,0.847412,510
21984170,10002,-0.115112,0.464966,0.846436,510
21994178,10008,-0.114624,0.461914,0.847168,506
22004181,10003,-0.115112,0.459839,0.846558,509
22014196,10015,-0.116577,0.458130,0.847412,510
22024185,9989,-0.115723,0.457153,0.847778,510
22034180,9995,-0.116333,0.458374,0.845947,503
22044186,10006,-0.117310,0.456909,0.844727,507
22054180,9994,-0.117676,0.455688,0.845337,510
22064193,10013,-0.114502,0.465210,0.851196,512
22074189,9996,-0.110229,0.474731,0.836548,511
22084177,9988,-0.121216,0.466431,0.845825,508
22094187,10010,-0.117554,0.473267,0.842651,509
22104166,9979,-0.118286,0.479370,0.846680,509
22114192,10026,-0.119019,0.481445,0.847778,509
22124192,10000,-0.120239,0.471313,0.851807,509
22134179,9987,-0.119507,0.471680,0.849487,508
22144189,10010,-0.120972,0.471313,0.848389,509
22154165,9976,-0.124146,0.472290,0.854980,511
22164175,10010,-0.122681,0.469116,0.856567,507
22174173,9998,-0.123413,0.468262,0.852295,506
22184173,10000,-0.125488,0.467041,0.851074,507
22194182,10009,-0.124878,0.467285,0.850342,509
22204174,9992,-0.125122,0.468018,0.851196,509
22214186,10012,-0.124023,0.467529,0.851440,504
22224188,10002,-0.124634,0.468140,0.848755,508
22234171,9983,-0.124634,0.468872,0.849487,507
22244178,10007,-0.094360,0.463257,0.846558,509
22254178,10000,-0.124512,0.461670,0.847412,503
22264173,9995,-0.122437,0.463623,0.848389,507
22274180,10007,-0.121704,0.465088,0.847168,507
22284205,10025,-0.120483,0.467407,0.847290,508
22294190,9985,-0.120850,0.466309,0.845703,505
22304186,9996,-0.118774,0.462036,0.843994,504
22314168,9982,-0.119507,0.462524,0.842529,512
22324185,10017,-0.120728,0.464355,0.843872,511
22334171,9986,-0.119995,0.464966,0.844604,512
22344220,10049,-0.120728,0.465942,0.844604,516
22354200,9980,-0.122437,0.465332,0.841309,521
22364165,9965,-0.121826,0.465210,0.843384,522
22374173,10008,-0.120605,0.465820,0.842896,522
22384165,9992,-0.120972,0.465942,0.842651,526
22394170,10005,-0.120239,0.466431,0.843628,528
22404187,10017,-0.119995,0.466919,0.843018,526
22414170,9983,-0.120972,0.468628,0.843994,532
22424179,10009,-0.119385,0.466431,0.845947,529
22434188,10009,-0.120239,0.466797,0.847534,533
22444175,9987,-0.120361,0.469238,0.849487,530
22454179,10004,-0.120239,0.471802,0.849854,527
22464177,9998,-0.119263,0.474487,0.847778,529
22474175,9998,-0.120850,0.477173,0.848022,527
22484179,10004,-0.119629,0.476807,0.846191,525
22494182,10003,-0.120728,0.476685,0.848022,525
22504165,9983,-0.119263,0.477783,0.849854,522
22514168,10003,-0.119385,0.477539,0.848633,520
22524171,10003,-0.119507,0.479614,0.848999,511
22534177,10006,-0.118530,0.478027,0.848022,518
22544169,9992,-0.117798,0.475342,0.845581,514
22554179,10010,-0.118530,0.474976,0.844604,515
22564179,10000,-0.117676,0.472656,0.844849,509
22574171,9992,-0.115601,0.474243,0.844849,510
22584192,10021,-0.118164,0.473755,0.843140,511
22594171,9979,-0.118286,0.473022,0.843750,511
22604165,9994,-0.115601,0.470947,0.844727,510
22614180,10015,-0.115601,0.468506,0.842651,502
22624192,10012,-0.115967,0.465820,0.841431,507
22634188,9996,-0.118164,0.464233,0.839600,503
22644172,9984,-0.117798,0.464966,0.840088,504
22654180,10008,-0.116821,0.465210,0.839966,506
22664182,10002,-0.119019,0.468140,0.840088,507
22674175,9993,-0.119385,0.468384,0.840454,510
22684165,9990,-0.120361,0.465820,0.839844,505
22694193,10028,-0.121216,0.463623,0.839233,510
22704179,9986,-0.120605,0.463257,0.838989,510
22714164,9985,-0.122070,0.462646,0.840210,511
22724164,10000,-0.124390,0.462280,0.840942,508
22734170,10006,-0.125244,0.464844,0.839722,511
22744193,10023,-0.126221,0.467163,0.845581,510
22754176,9983,-0.125977,0.467041,0.848633,505
22764176,10000,-0.126587,0.467651,0.850830,510
22774172,9996,-0.126465,0.467163,0.854614,514
22784170,9998,-0.127930,0.468140,0.854614,509
22794173,10003,-0.126831,0.468140,0.855103,511
22804187,10014,-0.126099,0.469604,0.855591,511
22814198,10011,-0.125122,0.472534,0.853760,504
22824190,9992,-0.125000,0.473633,0.850830,502
22834171,9981,-0.124390,0.473755,0.851685,505
22844170,9999,-0.122559,0.474487,0.852905,507
22854176,10006,-0.120605,0.477417,0.852051,507
22864192,10016,-0.120361,0.479980,0.851074,509
22874168,9976,-0.118774,0.480103,0.850586,508
22884165,9997,-0.117920,0.477295,0.848633,509
22894166,10001,-0.117432,0.475830,0.845703,505
22904185,10019,-0.115967,0.474487,0.843384,507
22914172,9987,-0.116333,0.473755,0.841797,506
22924185,10013,-0.117065,0.472534,0.843384,507
22934178,9993,-0.116333,0.472900,0.843018,508
22944171,9993,-0.117188,0.473877,0.842651,506
22954186,10015,-0.115723,0.472412,0.843994,502
22964189,10003,-0.115356,0.466431,0.842407,508
22974182,9993,-0.114990,0.463623,0.841797,508
22984170,9988,-0.117065,0.460693,0.840698,506
22994186,10016,-0.118530,0.456909,0.840698,507
23004181,9995,-0.118896,0.454834,0.843384,507
23014178,9997,-0.120117,0.457153,0.848145,509
23024173,9995,-0.121094,0.459473,0.850464,510
23034191,10018,-0.122437,0.459229,0.849487,509
23044179,9988,-0.122681,0.457764,0.847046,509
23054181,10002,-0.125244,0.458740,0.847534,508
23064186,10005,-0.126709,0.460937,0.848755,512
23074186,10000,-0.127808,0.464600,0.852051,513
23084184,9998,-0.128662,0.466553,0.851196,514
23094189,10005,-0.128662,0.469116,0.851196,512
23104175,9986,-0.127441,0.473022,0.851562,521
23114179,10004,-0.128052,0.476440,0.849854,520
23124189,10010,-0.095337,0.475098,0.850098,521
23134182,9993,-0.122314,0.473389,0.849854,527
23144185,10003,-0.123169,0.473633,0.849487,521
23154187,10002,-0.121704,0.472290,0.848755,523
23164206,10019,-0.123169,0.471313,0.850098,529
23174193,9987,-0.122925,0.472046,0.848999,529
23184193,10000,-0.123413,0.473755,0.851196,524
23195845,11652,-0.122803,0.473877,0.850464,529
23204178,8333,-0.122559,0.474121,0.850098,529
23214182,10004,-0.124146,0.471680,0.851562,525
23224178,9996,-0.124268,0.467896,0.848145,523
23234177,9999,-0.093994,0.462036,0.847412,516
23244189,10012,-0.125122,0.462036,0.846191,522
23254168,9979,-0.125732,0.462280,0.845825,520
23264165,9997,-0.125732,0.462402,0.846313,516
23274182,10017,-0.125854,0.459351,0.846191,514
23284183,10001,-0.125610,0.457153,0.844360,515
23294164,9981,-0.127075,0.453247,0.844360,512
23304188,10024,-0.127808,0.450317,0.845581,512
23314173,9985,-0.130371,0.452148,0.846680,510
23324164,9991,-0.132690,0.453125,0.848755,511
23334164,10000,-0.134888,0.457275,0.850098,510
23344167,10003,-0.136719,0.461426,0.854248,509
23354165,9998,-0.138428,0.461792,0.856201,508
23364184,10019,-0.136108,0.460693,0.854004,510
23374171,9987,-0.136353,0.462402,0.855835,509
23384169,9998,-0.135742,0.466309,0.857056,504
23394189,10020,-0.132568,0.470093,0.855225,511
23404164,9975,-0.131226,0.477783,0.851440,511
23414183,10019,-0.129639,0.479736,0.849243,508
23424200,10017,-0.126099,0.479614,0.847290,510
23434183,9983,-0.122559,0.479736,0.844604,512
23444182,9999,-0.121460,0.480225,0.843994,504
23454192,10010,-0.119019,0.476318,0.841675,511
23464177,9985,-0.117432,0.476196,0.842285,509
23474182,10005,-0.114746,0.477051,0.841064,502
23484174,9992,-0.115601,0.476685,0.841431,508
23494164,9990,-0.115723,0.472900,0.840698,505
23504189,10025,-0.113892,0.470215,0.839966,506
23514168,9979,-0.114990,0.462036,0.837280,507
23524187,10019,-0.116455,0.458252,0.840332,507
23534168,9981,-0.116211,0.456909,0.840454,503
23544168,10000,-0.117798,0.456787,0.842041,507
23554186,10018,-0.118896,0.456421,0.843872,506
23564175,9989,-0.124878,0.453369,0.846436,508
23574173,9998,-0.125854,0.452881,0.848145,507
23584176,10003,-0.127319,0.452881,0.849243,506
23594193,10017,-0.127686,0.454834,0.848633,507
23604181,9988,-0.127808,0.457886,0.848267,506
23614166,9985,-0.129517,0.463257,0.849487,509
23624177,10011,-0.128662,0.468628,0.849609,499
23634181,10004,-0.129272,0.469849,0.849487,504
23644187,10006,-0.128174,0.471191,0.849365,506
23654190,10003,-0.128906,0.473145,0.850708,505
23664171,9981,-0.126709,0.475464,0.850342,505
23674179,10008,-0.125977,0.477905,0.848877,506
23684185,10006,-0.125732,0.476196,0.849365,509
23694205,10020,-0.125000,0.474609,0.846802,503
23704172,9967,-0.124634,0.474731,0.844360,506
23714190,10018,-0.125854,0.468262,0.845825,503
23724186,9996,-0.124268,0.468994,0.845337,506
23734181,9995,-0.122437,0.467407,0.844482,505
23744176,9995,-0.122192,0.467163,0.844116,507
23754169,9993,-0.122803,0.468750,0.842041,507
23764179,10010,-0.120483,0.470581,0.841919,508
23774183,10004,-0.120850,0.470947,0.842163,502
23784173,9990,-0.120361,0.469727,0.843628,509
23794170,9997,-0.120483,0.470947,0.843506,507
23804169,9999,-0.120972,0.470337,0.842773,505
23814167,9998,-0.120361,0.468994,0.843872,513
23824193,10026,-0.121704,0.466797,0.843628,510
23834174,9981,-0.122314,0.465820,0.842163,509
23844184,10010,-0.123291,0.466797,0.844360,518
23854183,9999,-0.124634,0.467896,0.846802,519
23864164,9981,-0.123657,0.465698,0.848145,524
23874177,10013,-0.122314,0.467529,0.849976,523
23884179,10002,-0.122070,0.465332,0.850586,524
23894191,10012,-0.127441,0.466553,0.850586,522
23904181,9990,-0.128540,0.465942,0.851685,527
23914180,9999,-0.129272,0.466309,0.853027,523
23924190,10010,-0.129150,0.467896,0.854614,525
23934185,9995,-0.128296,0.470093,0.853271,525
23944204,10019,-0.128540,0.472046,0.852661,516
23954172,9968,-0.128296,0.471680,0.849121,522
23964176,10004,-0.128174,0.471313,0.850098,522
23974164,9988,-0.126709,0.471802,0.851074,519
23984192,10028,-0.126465,0.472656,0.849609,520
23994173,9981,-0.127197,0.473389,0.845215,515
24004179,10006,-0.126953,0.470215,0.843506,515
24014187,10008,-0.127319,0.470947,0.843872,509
24024189,10002,-0.126343,0.472412,0.844727,515
24034165,9976,-0.125244,0.473999,0.844971,505
24044179,10014,-0.124756,0.473633,0.845337,511
24054177,9998,-0.125244,0.473022,0.844238,510
24064180,10003,-0.125854,0.468506,0.844116,508
24074168,9988,-0.123657,0.466553,0.843628,509
24084181,10013,-0.123413,0.467407,0.844360,507
24094169,9988,-0.124390,0.468140,0.843628,507
24104173,10004,-0.125488,0.468750,0.842896,505
24114171,9998,-0.125366,0.468140,0.841675,507
24124189,10018,-0.124756,0.467041,0.841919,508
24134173,9984,-0.124268,0.465820,0.841919,509
24144175,10002,-0.123291,0.465210,0.842529,509
24154164,9989,-0.124146,0.464111,0.842407,503
24164170,10006,-0.122925,0.464844,0.841797,509
24174209,10039,-0.122681,0.465942,0.839844,508
24184182,9973,-0.124146,0.466187,0.842773,513
24194173,9991,-0.124268,0.467651,0.842529,505
24204177,10004,-0.122559,0.466553,0.841797,506
24214189,10012,-0.125244,0.467651,0.841187,503
24224188,9999,-0.122070,0.467529,0.844116,510
24234188,10000,-0.121094,0.467529,0.844849,509
24244192,10004,-0.122437,0.468140,0.846558,505
24254180,9988,-0.122314,0.469238,0.847778,510
24264182,10002,-0.122314,0.470947,0.846924,508
24274166,9984,-0.124023,0.472046,0.845459,505
24284181,10015,-0.122681,0.473511,0.847168,508
24294172,9991,-0.124268,0.474121,0.847778,508
24304190,10018,-0.125000,0.473633,0.847168,507
24314191,10001,-0.124390,0.473511,0.847168,505
24324169,9978,-0.124512,0.472534,0.845215,508
24334167,9998,-0.125488,0.473389,0.845215,507
24344165,9998,-0.126587,0.475952,0.846558,507
24354169,10004,-0.125854,0.476440,0.847656,507
24364167,9998,-0.126343,0.475586,0.847290,506
24374169,10002,-0.126221,0.473511,0.849121,508
24384171,10002,-0.126343,0.473145,0.848389,505
24394197,10026,-0.126953,0.470093,0.847900,507
24404187,9990,-0.127808,0.467163,0.846313,508
24414184,9997,-0.126953,0.464600,0.846558,501
24424193,10009,-0.126099,0.464478,0.846558,501
24434191,9998,-0.125244,0.468262,0.845337,508
24444181,9990,-0.123657,0.471680,0.847534,502
24454178,9997,-0.123657,0.470825,0.847046,503
24464171,9993,-0.121948,0.468262,0.845825,509
24474175,10004,-0.122070,0.466797,0.843750,502
24484184,10009,-0.122803,0.467896,0.843750,510
24494180,9996,-0.122803,0.468384,0.843140,504
24504174,9994,-0.123657,0.468628,0.844482,513
24514189,10015,-0.123047,0.470825,0.843506,513
24524175,9986,-0.123413,0.472778,0.843140,516
24534168,9993,-0.123535,0.473389,0.844116,518
24544168,10000,-0.122437,0.472656,0.845459,518
24554187,10019,-0.121704,0.467407,0.844727,523
24564166,9979,-0.124023,0.465210,0.843872,520
24574166,10000,-0.124146,0.465820,0.845337,526
24584182,10016,-0.124390,0.467651,0.847534,524
24594185,10003,-0.124268,0.469971,0.848877,521
24604171,9986,-0.124146,0.472412,0.848999,526
24614219,10048,-0.122437,0.469604,0.848633,526
24624186,9967,-0.121826,0.468628,0.848022,525
24634184,9998,-0.121704,0.467285,0.845581,524
24644190,10006,-0.123291,0.466309,0.842773,522
24654181,9991,-0.125122,0.467163,0.841187,516
24664184,10003,-0.124634,0.471802,0.843506,522
24674183,9999,-0.124390,0.474243,0.844360,518
24684167,9984,-0.124146,0.473877,0.844238,512
24694180,10013,-0.124878,0.473267,0.844482,512
24704182,10002,-0.124756,0.470947,0.845093,514
24714165,9983,-0.123657,0.468750,0.844360,512
24724176,10011,-0.124146,0.469238,0.845093,509
24734172,9996,-0.122925,0.470581,0.843140,511
24744171,9999,-0.122681,0.472046,0.843872,507
24754183,10012,-0.123169,0.469482,0.841919,510
24764165,9982,-0.122803,0.467407,0.841431,506
24774194,10029,-0.125732,0.471191,0.844482,503
24784180,9986,-0.125244,0.472900,0.845337,506
24794184,10004,-0.126099,0.473877,0.846191,509
24804165,9981,-0.126953,0.474365,0.844482,508
24814169,10004,-0.127808,0.473633,0.844116,502
24824168,9999,-0.125854,0.473633,0.845093,507
24834164,9996,-0.126099,0.471313,0.844727,507
24844171,10007,-0.126831,0.469849,0.847290,505
24854183,10012,-0.125977,0.469116,0.848755,511
24864186,10003,-0.125244,0.469604,0.850586,512
24874176,9990,-0.125732,0.470703,0.851929,509
24884176,10000,-0.126343,0.470459,0.849609,511
24894174,9998,-0.125366,0.470703,0.848389,508
24904169,9995,-0.125732,0.469849,0.849487,509
24914184,10015,-0.125000,0.468750,0.849731,510
24924169,9985,-0.125610,0.468994,0.848022,504
24934186,10017,-0.124390,0.469971,0.847656,504
24944190,10004,-0.122803,0.468994,0.849121,510
24954175,9985,-0.122559,0.466797,0.848755,508
24964177,10002,-0.123779,0.466797,0.847778,503
24974174,9997,-0.122803,0.466553,0.847290,494
24984186,10012,-0.121338,0.467407,0.843628,505
24994193,10007,-0.121460,0.470703,0.840698,504
25004200,10007,-0.121826,0.471191,0.840942,507
25014192,9992,-0.121582,0.472046,0.839966,508
25024170,9978,-0.121704,0.471191,0.839722,509
25034170,10000,-0.121460,0.470703,0.842285,509
25044165,9995,-0.120728,0.468994,0.844849,506
25054171,10006,-0.120605,0.468872,0.845581,502
25064178,10007,-0.120728,0.468506,0.844116,509
25074175,9997,-0.121216,0.469360,0.841431,508
25084192,10017,-0.120850,0.468994,0.842529,504
25094184,9992,-0.122314,0.467773,0.843384,501
25104166,9982,-0.121582,0.469482,0.848755,504
25114178,10012,-0.120850,0.472900,0.848022,508
25124177,9999,-0.121094,0.475098,0.845947,505
25134178,10001,-0.119873,0.475708,0.845825,502
25144193,10015,-0.119995,0.473511,0.843994,503
25154193,10000,-0.120850,0.472656,0.841431,508
25164169,9976,-0.120972,0.472290,0.843262,509
25174169,10000,-0.121094,0.474365,0.845215,511
25184183,10014,-0.121704,0.475098,0.845581,507
25194173,9990,-0.122681,0.475586,0.846069,512
25204186,10013,-0.122925,0.473145,0.844849,533
25214186,10000,-0.122681,0.466797,0.844971,518
25224187,10001,-0.122437,0.466064,0.846436,521
25234174,9987,-0.123901,0.465454,0.845947,530
25244196,10022,-0.122681,0.465942,0.848145,525
25254190,9994,-0.124268,0.467407,0.848755,519
25264169,9979,-0.125610,0.470459,0.848877,525
25274174,10005,-0.125366,0.468506,0.848145,526
25284168,9994,-0.124756,0.465942,0.846069,528
25294214,10046,-0.123535,0.463623,0.845581,527
25304192,9978,-0.121704,0.464600,0.847168,526
25314191,9999,-0.122437,0.466187,0.848511,526
25324165,9974,-0.123901,0.472900,0.848022,522
25334174,10009,-0.124878,0.474487,0.843872,523
25344177,10003,-0.124512,0.474365,0.844238,522
25354169,9992,-0.122681,0.473877,0.842773,519
25364176,10007,-0.122070,0.473755,0.842773,519
25374168,9992,-0.121094,0.473022,0.843262,518
25384192,10024,-0.120361,0.473022,0.843628,514
25394165,9973,-0.121094,0.474731,0.844971,513
25404183,10018,-0.122070,0.475342,0.845093,514
25414169,9986,-0.121582,0.475342,0.846191,510
25424178,10009,-0.121094,0.472656,0.845947,510
25434184,10006,-0.120972,0.469482,0.846191,509
25444184,10000,-0.120117,0.468384,0.846313,510
25454208,10024,-0.119751,0.467773,0.846802,503
25464170,9962,-0.121704,0.469116,0.847900,503
25474173,10003,-0.120972,0.470703,0.846924,511
25484187,10014,-0.120605,0.469849,0.847290,504
25494168,9981,-0.119385,0.469604,0.844727,506
25504176,10008,-0.119385,0.468506,0.844116,504
25514201,10025,-0.119751,0.468628,0.844849,511
25524180,9979,-0.120605,0.469238,0.843628,506
25534166,9986,-0.120605,0.471680,0.844116,508
25544184,10018,-0.121460,0.473877,0.843384,509
25554172,9988,-0.121582,0.474731,0.842896,507
25564193,10021,-0.120239,0.473145,0.842407,510
25574191,9998,-0.119873,0.469971,0.841431,509
25584172,9981,-0.119385,0.469360,0.844116,509
25594174,10002,-0.120361,0.465820,0.845459,508
25604172,9998,-0.121216,0.466187,0.846191,509
25614184,10012,-0.121216,0.468140,0.846802,509
25624178,9994,-0.121582,0.468872,0.844849,510
25634184,10006,-0.121460,0.468750,0.845337,507
25644180,9996,-0.121826,0.466553,0.846558,506
25654166,9986,-0.121826,0.466187,0.847900,508
25664182,10016,-0.121094,0.468018,0.848022,505
25674178,9996,-0.120483,0.469482,0.846436,509
25684171,9993,-0.121338,0.470703,0.846802,507
25694174,10003,-0.120850,0.471436,0.844971,508
25704181,10007,-0.119385,0.473145,0.845459,507
25714193,10012,-0.119873,0.472900,0.845215,506
25724180,9987,-0.121094,0.473022,0.847046,506
25734165,9985,-0.120239,0.472656,0.847046,507
25744190,10025,-0.119629,0.475464,0.847656,508
25754180,9990,-0.119629,0.476074,0.847412,506
25764169,9989,-0.117554,0.475586,0.846191,501
25774181,10012,-0.117920,0.473511,0.845825,509
25784185,10004,-0.119141,0.469971,0.844482,509
25794190,10005,-0.118164,0.467529,0.845947,507
25804182,9992,-0.116577,0.468506,0.848022,506
25814181,9999,-0.114746,0.469116,0.848022,498
25824182,10001,-0.114624,0.470337,0.847534,508
25834187,10005,-0.116089,0.470703,0.847900,510
25844193,10006,-0.114990,0.470215,0.848145,509
25854167,9974,-0.114258,0.470703,0.846680,507
25864166,9999,-0.117065,0.473267,0.843628,513
25874188,10022,-0.116943,0.473145,0.843994,513
25884184,9996,-0.116699,0.474365,0.844849,516
25894184,10000,-0.116943,0.476196,0.843506,518
25904174,9990,-0.118042,0.475952,0.843872,519
25914197,10023,-0.117310,0.476074,0.843994,521
25924174,9977,-0.117188,0.472046,0.847046,533
25934187,10013,-0.116577,0.468872,0.847778,525
25944185,9998,-0.117188,0.467773,0.846558,524
25954190,10005,-0.118774,0.466675,0.847046,528
25964215,10025,-0.120605,0.466064,0.848877,530
25974184,9969,-0.119507,0.469971,0.850098,528
25984176,9992,-0.118286,0.470581,0.849731,528
25994189,10013,-0.119141,0.471924,0.850098,528
26004193,10004,-0.118774,0.471802,0.849121,522
26014175,9982,-0.117798,0.468018,0.847656,522
26024189,10014,-0.117920,0.466064,0.843994,526
26034182,9993,-0.119507,0.466797,0.844727,519
26044176,9994,-0.117798,0.467407,0.846924,522
26054182,10006,-0.118164,0.469482,0.845825,519
26064180,9998,-0.118896,0.468384,0.845703,512
26074166,9986,-0.118530,0.469116,0.844116,515
26084171,10005,-0.117432,0.463867,0.840820,515
26094184,10013,-0.116089,0.461670,0.839355,513
26104164,9980,-0.114868,0.460571,0.839966,509
26114174,10010,-0.113770,0.461426,0.841187,512
26124184,10010,-0.114014,0.464844,0.842285,507
26134174,9990,-0.113647,0.466431,0.843872,507
26144166,9992,-0.114136,0.463745,0.847046,510
26154172,10006,-0.115601,0.455688,0.844360,510
26164179,10007,-0.116333,0.464722,0.850464,510
26174175,9996,-0.112183,0.468506,0.849731,517
26184171,9996,-0.114624,0.471191,0.848145,510
26194181,10010,-0.115112,0.473022,0.844604,510
26204168,9987,-0.114258,0.477173,0.842651,510
26214164,9996,-0.117798,0.473999,0.844482,507
26224190,10026,-0.116089,0.483887,0.848511,508
26234170,9980,-0.114258,0.483154,0.846680,510
26244177,10007,-0.117310,0.482422,0.844727,510
26254184,10007,-0.116211,0.483521,0.844604,510
26264194,10010,-0.116333,0.482178,0.844604,510
26274174,9980,-0.117920,0.480347,0.846313,510
26284174,10000,-0.117310,0.479370,0.849731,505
26294170,9996,-0.115479,0.476196,0.850098,510
26304170,10000,-0.116943,0.474243,0.848633,508
26314192,10022,-0.117554,0.472900,0.849487,506
26324169,9977,-0.118408,0.468506,0.849976,508
26334182,10013,-0.119141,0.467285,0.849609,509
26344181,9999,-0.117432,0.466919,0.849243,502
26354187,10006,-0.117188,0.466431,0.848267,504
26364179,9992,-0.117676,0.467651,0.846436,509
26374164,9985,-0.117554,0.468872,0.845215,507
26384182,10018,-0.118408,0.469727,0.846924,509
26394183,10001,-0.116211,0.472168,0.848267,507
26404173,9990,-0.116089,0.473145,0.848022,508
26414184,10011,-0.114502,0.469849,0.839844,504
26424187,10003,-0.115479,0.467651,0.840088,510
26434177,9990,-0.114990,0.467773,0.844604,505
26444172,9995,-0.113647,0.469727,0.848267,508
26454855,10683,-0.112305,0.473145,0.848389,509
26464189,9334,-0.113281,0.475952,0.848999,510
26474190,10001,-0.112427,0.476318,0.845337,507
26484176,9986,-0.112427,0.472534,0.842041,506
26494165,9989,-0.111938,0.470459,0.842163,509
26504176,10011,-0.109985,0.471313,0.841797,508
26514189,10013,-0.109863,0.473145,0.841187,505
26524191,10002,-0.108154,0.474365,0.845337,505
26534182,9991,-0.108276,0.475342,0.845337,505
26544187,10005,-0.108643,0.476318,0.844360,509
26554166,9979,-0.109253,0.477295,0.844727,511
26567906,13740,-0.109619,0.472290,0.844238,512
26576180,8274,-0.110352,0.471924,0.843384,514
26584171,7991,-0.111694,0.472534,0.843384,517
26594192,10021,-0.112183,0.472900,0.844971,512
26604165,9973,-0.112183,0.472534,0.847656,520
26614180,10015,-0.111694,0.473022,0.847534,520
26624185,10005,-0.111816,0.472656,0.846924,521
26634194,10009,-0.110962,0.469727,0.848022,525
26644186,9992,-0.110596,0.468628,0.848511,526
26658690,14504,-0.111206,0.466553,0.847656,529
26668149,9459,-0.112915,0.466187,0.846069,526
26674181,6032,0.000000,0.000000,0.000000,526
26684181,10000,-0.110474,0.466553,0.846313,528
26694173,9992,-0.108765,0.464355,0.847900,522
26704168,9995,-0.107544,0.461670,0.845093,527
26714166,9998,-0.107300,0.458252,0.841553,524
26724196,10030,-0.107666,0.457886,0.840698,516
26734187,9991,-0.108032,0.458130,0.840576,523
26744187,10000,-0.106445,0.462158,0.843628,521
26754183,9996,-0.106689,0.465210,0.844116,519
26764190,10007,-0.104370,0.469116,0.841064,518
26774169,9979,-0.104858,0.472900,0.839600,510
26784169,10000,-0.104858,0.473022,0.838867,513
26794174,10005,-0.105957,0.469849,0.844727,513
26804173,9999,-0.101685,0.474243,0.844604,512
26814182,10009,-0.103638,0.473267,0.845093,510
26824189,10007,-0.105469,0.473389,0.852051,510
26834182,9993,-0.102051,0.479248,0.850952,506
26844188,10006,-0.102539,0.483765,0.850830,504
26854178,9990,-0.105103,0.485718,0.853027,504
26869077,14899,-0.104736,0.485352,0.852295,508
26881887,12810,-0.106445,0.487793,0.852539,509
26887419,5532,0.000000,0.000000,0.000000,510
26894208,6789,-0.107056,0.488770,0.852661,506
26904180,9972,-0.107056,0.489014,0.852905,505
26914176,9996,-0.107300,0.486694,0.851440,504
26924183,10007,-0.108154,0.483276,0.849854,510
26934186,10003,-0.107544,0.480347,0.852783,509
26944211,10025,-0.106445,0.476196,0.855225,508
26954186,9975,-0.106201,0.472168,0.854126,510
26970243,16057,-0.107666,0.465332,0.852783,510
26981500,11257,-0.107544,0.459351,0.851807,510
26987753,6253,0.000000,0.000000,0.000000,501
26994185,6432,-0.106079,0.457153,0.849365,505
27004191,10006,-0.106323,0.456543,0.848755,509
27014187,9996,-0.106934,0.457153,0.845215,503
27024164,9977,-0.106201,0.459106,0.843262,506
27034171,10007,-0.105835,0.459717,0.840088,508
27044188,10017,-0.105713,0.460449,0.839355,505
27054190,10002,-0.106079,0.463501,0.841553,506
27064167,9977,-0.104370,0.464722,0.840942,509
27074180,10013,-0.104370,0.468140,0.843140,504
27086482,12302,-0.105225,0.469238,0.844116,505
27094180,7698,-0.105103,0.469116,0.843262,509
27104183,10003,-0.105225,0.469482,0.844727,500
27114206,10023,-0.105103,0.471069,0.843140,507
27124168,9962,-0.105835,0.472412,0.843628,507
27134189,10021,-0.105713,0.477295,0.846924,506
27144183,9994,-0.105103,0.478027,0.849487,507
27154182,9999,-0.103516,0.476440,0.850098,508
27164207,10025,-0.102905,0.473755,0.849365,509
27174173,9966,-0.104248,0.473389,0.848145,504
27185817,11644,-0.105835,0.475586,0.846802,505
27194192,8375,-0.106812,0.475830,0.849121,508
27204187,9995,-0.107178,0.476685,0.849854,509
27214180,9993,-0.106445,0.480713,0.850098,502
27224167,9987,-0.106201,0.482910,0.850098,508
27234168,10001,-0.104736,0.478760,0.849976,501
27244176,10008,-0.104858,0.475952,0.848633,509
27254166,9990,-0.105347,0.474609,0.846924,510
27264169,10003,-0.106079,0.476318,0.847412,504
27274166,9997,-0.104736,0.479492,0.848755,507
27284190,10024,-0.106934,0.479004,0.850952,514
27294187,9997,-0.106201,0.477173,0.848999,517
27304170,9983,-0.107056,0.476685,0.847778,517
27314186,10016,-0.106812,0.476318,0.847534,520
27324174,9988,-0.106689,0.474854,0.846680,513
27334169,9995,-0.106934,0.472900,0.849243,522
27344173,10004,-0.105713,0.469604,0.848145,523
27354242,10069,-0.106689,0.467529,0.847168,524
27369302,15060,-0.106934,0.465820,0.846802,534
27374815,5513,0.000000,0.000000,0.000000,529
27384185,9370,-0.105591,0.465332,0.848511,526
27394177,9992,-0.104858,0.466675,0.847656,525
27404175,9998,-0.103271,0.467407,0.845825,525
27414185,10010,-0.103027,0.466064,0.845093,522
27424169,9984,-0.103149,0.465210,0.841919,517
27434171,10002,-0.102173,0.467529,0.840454,519
27444187,10016,-0.101807,0.468872,0.841064,521
27454176,9989,-0.100220,0.471680,0.840576,512
27464190,10014,-0.099121,0.470337,0.838135,519
27474173,9983,-0.098267,0.470581,0.837524,509
27485052,10879,-0.099121,0.472046,0.838623,514
27494191,9139,-0.098633,0.473511,0.839478,512
27504186,9995,-0.096436,0.475220,0.839722,508
27514191,10005,-0.095459,0.478394,0.838135,511
27524182,9991,-0.094238,0.479370,0.838379,510
27534170,9988,-0.094238,0.479370,0.840088,508
27544167,9997,-0.095581,0.480225,0.838623,509
27554184,10017,-0.094360,0.479858,0.841553,510
27564176,9992,-0.093506,0.480103,0.843262,511
27574186,10010,-0.096802,0.477051,0.844727,507
27584185,9999,-0.098389,0.478271,0.844849,510
27594177,9992,-0.100220,0.482056,0.845215,510
27604186,10009,-0.100952,0.485352,0.851685,509
27614165,9979,-0.101563,0.485596,0.852905,507
27624165,10000,-0.103271,0.484253,0.847778,510
27634174,10009,-0.104248,0.476807,0.845947,510
27644208,10034,-0.105835,0.477539,0.848999,511
27654172,9964,-0.105347,0.483398,0.849854,506
27664164,9992,-0.106567,0.478271,0.850830,504
27674175,10011,-0.106934,0.483276,0.851440,512
27684170,9995,-0.109741,0.479126,0.852417,511
27694173,10003,-0.110474,0.482300,0.849121,509
27704184,10011,-0.109985,0.470825,0.848511,510
27714178,9994,-0.110840,0.475830,0.849976,505
27724170,9992,-0.109619,0.466064,0.846802,506
27734179,10009,-0.107910,0.467163,0.847412,507
27744183,10004,-0.111694,0.466919,0.846924,507
27754189,10006,-0.109253,0.473022,0.849854,509
27764177,9988,-0.107178,0.471924,0.844116,507
27774193,10016,-0.110718,0.469971,0.844849,507
27785972,11779,-0.109375,0.466187,0.840942,506
27794174,8202,-0.108276,0.466309,0.837280,508
27804178,10004,-0.109863,0.466064,0.838867,505
27814165,9987,-0.107300,0.466309,0.839233,507
27824187,10022,-0.107788,0.469971,0.838013,507
27834179,9992,-0.107666,0.471191,0.838135,507
27844187,10008,-0.107178,0.473999,0.839478,501
27854178,9991,-0.107788,0.473511,0.834961,507
27864206,10028,-0.108276,0.473022,0.835815,507
27874172,9966,-0.107544,0.470459,0.838257,508
27884174,10002,-0.106934,0.470093,0.840820,506
27894165,9991,-0.105713,0.475464,0.843994,506
27904191,10026,-0.105103,0.478149,0.843872,502
27914172,9981,-0.105103,0.479004,0.844360,507
27924189,10017,-0.104980,0.478394,0.845581,507
27934187,9998,-0.104126,0.478027,0.847290,509
27944180,9993,-0.105103,0.479736,0.845093,509
27954181,10001,-0.106323,0.480225,0.844727,511
27964165,9984,-0.107544,0.480103,0.844482,513
27974188,10023,-0.108032,0.479858,0.843750,515
27984166,9978,-0.108276,0.480835,0.843994,517
27994187,10021,-0.108521,0.479858,0.842407,517
28004175,9988,-0.107056,0.476318,0.843994,518
28014174,9999,-0.108643,0.473267,0.846558,524
28024188,10014,-0.109985,0.472046,0.848877,522
28034188,10000,-0.109985,0.472290,0.849976,526
28044194,10006,-0.111328,0.474121,0.848633,523
28054171,9977,-0.111206,0.476318,0.847778,528
28064181,10010,-0.112183,0.476074,0.844360,527
28081464,17283,-0.110962,0.473022,0.842896,526
28093745,12281,-0.111938,0.473511,0.844116,520
28099640,5895,-0.112793,0.474609,0.846436,524
28105948,6308,-0.112427,0.474854,0.846069,522
28114185,8237,0.000000,0.000000,0.000000,522
28124182,9997,-0.114502,0.476318,0.844727,516
28134174,9992,-0.114624,0.476440,0.845459,519
28144192,10018,-0.113770,0.476074,0.845215,509
28154182,9990,-0.113403,0.475830,0.844360,516
28164186,10004,-0.114868,0.474731,0.843018,514
28174174,9988,-0.113892,0.473877,0.842651,512
28184170,9996,-0.114502,0.474731,0.843994,504
28194190,10020,-0.114380,0.474487,0.844238,510
28204180,9990,-0.114258,0.470825,0.843994,509
28214185,10005,-0.114136,0.468872,0.845947,510
28224174,9989,-0.115234,0.471069,0.844971,508
28234188,10014,-0.114746,0.470459,0.845337,509
28244192,10004,-0.114624,0.468872,0.846558,507
28254177,9985,-0.113892,0.468506,0.844604,508
28264202,10025,-0.114014,0.469604,0.844116,508
28274184,9982,-0.114380,0.472290,0.845215,504
28284183,9999,-0.112549,0.473145,0.845093,504
28294174,9991,-0.113403,0.472168,0.843384,506
28304170,9996,-0.112061,0.472290,0.844360,508
28314212,10042,-0.111328,0.472656,0.844604,507
28324172,9960,-0.109863,0.474243,0.844238,509
28334177,10005,-0.109253,0.478882,0.841675,509
28344173,9996,-0.109497,0.479858,0.841675,509
28354176,10003,-0.109009,0.481812,0.840698,504
28364180,10004,-0.109253,0.484253,0.841797,503
28374177,9997,-0.110352,0.483887,0.844971,508
28384185,10008,-0.109009,0.481323,0.846313,509
28394180,9995,-0.109253,0.480591,0.845337,507
28404174,9994,-0.109619,0.479736,0.843872,507
28414193,10019,-0.111328,0.480103,0.842773,508
28424166,9973,-0.110718,0.479492,0.843262,502
28434191,10025,-0.110840,0.478394,0.843506,508
28444189,9998,-0.111694,0.477783,0.842041,500
28454177,9988,-0.112427,0.477783,0.844360,500
28464186,10009,-0.113525,0.475708,0.846680,502
28474185,9999,-0.113647,0.474487,0.846680,507
28484167,9982,-0.113403,0.473755,0.844116,502
28494164,9997,-0.116699,0.471069,0.839844,508
28507062,12898,-0.117554,0.470215,0.840454,504
28515587,8525,-0.117920,0.471802,0.842407,501
28524192,8605,-0.118164,0.471924,0.844360,508
28534201,10009,-0.117798,0.472778,0.843262,511
28544186,9985,-0.118896,0.473511,0.843262,508
28554188,10002,-0.120605,0.469360,0.841797,503
28564183,9995,-0.120239,0.464966,0.843140,509
28574171,9988,-0.119263,0.463745,0.846069,507
28584180,10009,-0.118408,0.463867,0.847168,509
28594185,10005,-0.118164,0.465088,0.847290,506
28604181,9996,-0.119385,0.468750,0.847778,502
28618535,14354,-0.119629,0.469116,0.845581,507
28624422,5887,-0.119751,0.470459,0.842529,509
28634192,9770,-0.120850,0.471069,0.842163,509
28644177,9985,-0.120239,0.472656,0.843018,510
28654186,10009,-0.119873,0.475464,0.842163,514
28664178,9992,-0.120972,0.476685,0.842163,514
28674185,10007,-0.120605,0.478149,0.841675,517
28684172,9987,-0.119019,0.478516,0.844849,518
28694187,10015,-0.119141,0.476929,0.847778,517
28704190,10003,-0.117065,0.475952,0.848267,517
28714184,9994,-0.117432,0.475586,0.848999,517
28724185,10001,-0.116577,0.475952,0.847900,528
28734169,9984,-0.116821,0.478271,0.847168,525
28744185,10016,-0.117676,0.480469,0.847778,528
28754209,10024,-0.116943,0.483032,0.848267,528
28764175,9966,-0.115112,0.482666,0.848755,528
28774174,9999,-0.114746,0.483276,0.848267,526
28784186,10012,-0.115356,0.485352,0.845825,524
28794184,9998,-0.114502,0.485229,0.844238,524
28804173,9989,-0.114990,0.484741,0.842163,523
28814178,10005,-0.114990,0.482666,0.841797,522
28824179,10001,-0.114868,0.485596,0.839722,520
28834181,10002,-0.114502,0.487549,0.839111,517
28844164,9983,-0.112427,0.485596,0.838867,510
28854183,10019,-0.113159,0.482910,0.840088,515
28864177,9994,-0.114014,0.479492,0.840454,508
28874165,9988,-0.113892,0.477417,0.840332,505
28884179,10014,-0.114868,0.476929,0.840942,511
28894168,9989,-0.116211,0.475098,0.841797,512
28904183,10015,-0.116333,0.474121,0.841919,507
28916130,11947,-0.117188,0.473755,0.843018,509
28924177,8047,-0.116943,0.471924,0.842529,507
28934180,10003,-0.117188,0.471069,0.842529,508
28944188,10008,-0.116455,0.468384,0.841064,506
28954193,10005,-0.116577,0.466797,0.837524,509
28964187,9994,-0.118286,0.466675,0.836670,508
28974167,9980,-0.118164,0.466431,0.837524,503
28984206,10039,-0.117920,0.467285,0.837402,500
28994168,9962,-0.117920,0.474487,0.834717,507
29010314,16146,-0.118774,0.474854,0.836670,508
29017574,7260,0.000000,0.000000,0.000000,509
29024180,6606,-0.118408,0.473755,0.837158,510
29034172,9992,-0.119263,0.473022,0.837524,509
29044185,10013,-0.119263,0.472656,0.841187,510
29054183,9998,-0.118286,0.473633,0.843994,509
29064189,10006,-0.119263,0.478760,0.844238,508
29074194,10005,-0.120239,0.481201,0.843628,502
29084172,9978,-0.119629,0.483765,0.844604,509
29094191,10019,-0.119263,0.483765,0.844116,508
29104174,9983,-0.118774,0.485718,0.841797,501
29114185,10011,-0.118896,0.487305,0.840820,503
29124177,9992,-0.120117,0.487671,0.840698,506
29134187,10010,-0.121094,0.488403,0.843262,507
29144165,9978,-0.120850,0.491943,0.844360,508
29154177,10012,-0.120972,0.492187,0.847778,506
29164192,10015,-0.119995,0.489624,0.846802,501
29174181,9989,-0.119751,0.488037,0.844482,506
29184179,9998,-0.120483,0.483521,0.843628,501
29194194,10015,-0.119385,0.478027,0.843628,501
29204180,9986,-0.118286,0.474243,0.842163,499
29214213,10033,-0.118896,0.479004,0.846069,507
29224191,9978,-0.117310,0.479370,0.849365,507
29234188,9997,-0.115234,0.477173,0.849243,504
29244169,9981,-0.115112,0.475952,0.846802,507
29254178,10009,-0.115479,0.473633,0.841675,504
29264175,9997,-0.115112,0.468872,0.837769,505
29274167,9992,-0.113647,0.468506,0.838013,508
29284186,10019,-0.113525,0.472290,0.838257,501
29294175,9989,-0.113159,0.476196,0.837769,506
29304188,10013,-0.113159,0.480347,0.838013,503
29314190,10002,-0.110962,0.480347,0.834229,508
29324168,9978,-0.111206,0.476318,0.830811,509
29334164,9996,-0.112305,0.476685,0.830811,510
29344175,10011,-0.111938,0.478760,0.832764,511
29354167,9992,-0.114380,0.481812,0.834717,510
29364181,10014,-0.115967,0.484131,0.836914,514
29374179,9998,-0.115601,0.483643,0.839722,513
29384189,10010,-0.115479,0.480835,0.839111,518
29394258,10069,-0.115845,0.478027,0.838013,521
29404185,9927,-0.117188,0.474854,0.839478,516
29414165,9980,-0.117188,0.473389,0.839111,524
29424178,10013,-0.118164,0.475342,0.843140,524
29434178,10000,-0.120605,0.481201,0.845581,524
29444168,9990,-0.121460,0.481445,0.846680,524
29454187,10019,-0.121704,0.482178,0.847412,528
29464181,9994,-0.122559,0.481689,0.846313,526
29474203,10022,-0.121338,0.480347,0.845337,527
29484175,9972,-0.119263,0.477173,0.841431,523
29494178,10003,-0.120972,0.480469,0.839355,522
29505561,11383,-0.120728,0.484985,0.836060,524
29514189,8628,-0.121216,0.488892,0.836548,514
29524172,9983,-0.123657,0.489746,0.842896,513
29534174,10002,-0.120972,0.489136,0.843750,518
29544174,10000,-0.122070,0.490234,0.843384,516
29554179,10005,-0.121216,0.487671,0.842651,513
29564186,10007,-0.118530,0.484497,0.842407,514
29574189,10003,-0.118164,0.483643,0.839478,513
29584182,9993,-0.119141,0.480347,0.837646,507
29594182,10000,-0.119873,0.480225,0.841675,512
29606832,12650,-0.119629,0.480469,0.844482,510
29614173,7341,-0.118774,0.482910,0.843750,510
29624171,9998,-0.118774,0.483521,0.841919,504
29634189,10018,-0.118652,0.484863,0.839600,507
29644183,9994,-0.119263,0.484741,0.839233,509
29654177,9994,-0.118286,0.484131,0.837158,509
29664185,10008,-0.117310,0.482056,0.837280,500
29674184,9999,-0.116577,0.481567,0.836182,503
29684179,9995,-0.116699,0.480713,0.836060,507
29694169,9990,-0.116943,0.479858,0.836426,505
29704187,10018,-0.117188,0.474731,0.838135,510
29714169,9982,-0.118530,0.476440,0.838501,511
29724166,9997,-0.117188,0.477661,0.837036,505
29734169,10003,-0.117310,0.477783,0.834839,510
29745064,10895,-0.119019,0.474731,0.835449,508
29754169,9105,-0.118530,0.475098,0.837402,506
29764173,10004,-0.116089,0.475464,0.836304,505
29774190,10017,-0.118530,0.474243,0.837036,511
29784172,9982,-0.118896,0.474243,0.839478,504
29794193,10021,-0.116699,0.474976,0.839478,508
29804192,9999,-0.116821,0.476929,0.838501,509
29814167,9975,-0.118530,0.476685,0.837769,504
29824705,10538,-0.119141,0.476807,0.840332,503
29834177,9472,-0.117554,0.478882,0.841309,509
29844182,10005,-0.117432,0.480957,0.840454,507
29854167,9985,-0.118286,0.482666,0.838745,508
29864166,9999,-0.118408,0.482788,0.838867,508
29874164,9998,-0.118408,0.484497,0.839722,508
29884175,10011,-0.120117,0.485840,0.838501,507
29894189,10014,-0.120728,0.485107,0.836182,507
29904178,9989,-0.120605,0.484985,0.836914,508
29914187,10009,-0.120117,0.484497,0.840210,508
29924186,9999,-0.118042,0.482788,0.843506,509
29938972,14786,-0.118408,0.481445,0.841553,507
29945122,6150,-0.120972,0.481323,0.840698,508
29954169,9047,-0.120117,0.479004,0.841064,510
29964184,10015,-0.118896,0.476318,0.842163,507
29974192,10008,-0.119019,0.476074,0.844360,504
29984186,9994,-0.118164,0.479248,0.844604,510
29994209,10023,-0.117310,0.481201,0.843872,509
30004175,9966,-0.117188,0.480225,0.841675,509
30014172,9997,-0.116821,0.479126,0.838745,508
30024177,10005,-0.117310,0.477539,0.838379,511
30039105,14928,-0.118774,0.481812,0.837036,511
30045373,6268,-0.120972,0.483521,0.837036,506
30054179,8806,-0.119141,0.484863,0.838013,503
30064183,10004,-0.119995,0.484741,0.838623,510
30074176,9993,-0.120117,0.483521,0.839844,516
30084165,9989,-0.119629,0.479980,0.838989,519
30094184,10019,-0.120483,0.477539,0.841064,519
30104170,9986,-0.120239,0.474487,0.842285,521
30114182,10012,-0.120361,0.472900,0.842896,523
30129646,15464,-0.120972,0.478638,0.843994,522
30138928,9282,-0.122070,0.479370,0.844604,524
30145479,6551,-0.122559,0.480347,0.843994,523
30154178,8699,-0.121216,0.479858,0.843872,519
30164176,9998,-0.121460,0.479492,0.841431,519
30174180,10004,-0.120850,0.479858,0.841187,525
30184165,9985,-0.121094,0.477783,0.841431,524
30194185,10020,-0.120361,0.477539,0.839600,523
30204209,10024,-0.123779,0.481079,0.839966,524
30214193,9984,-0.122192,0.481934,0.839478,519
30229539,15346,-0.121704,0.482422,0.838257,517
30241457,11918,-0.123535,0.481323,0.836060,513
30246916,5459,-0.123779,0.480469,0.836182,516
30254213,7297,-0.122925,0.481445,0.836670,513
30264181,9968,-0.122314,0.481079,0.836914,512
30274169,9988,-0.122681,0.481934,0.839478,512
30284164,9995,-0.123413,0.482178,0.840942,511
30294168,10004,-0.123535,0.482178,0.841431,511
30304186,10018,-0.124878,0.481445,0.844482,510
30314171,9985,-0.124268,0.479980,0.845093,510
30324180,10009,-0.124268,0.480469,0.844360,512
30335137,10957,-0.125610,0.479004,0.844238,509
30344185,9048,-0.125122,0.478760,0.844116,509
30354164,9979,-0.124634,0.479370,0.844116,510
30364181,10017,-0.124390,0.481812,0.840698,512
30374174,9993,-0.123535,0.481689,0.837891,505
30384181,10007,-0.123657,0.483154,0.837036,509
30394193,10012,-0.123291,0.481079,0.837158,510
30404168,9975,-0.123535,0.480225,0.836670,511
30414189,10021,-0.123657,0.480591,0.838379,509
30424181,9992,-0.122925,0.481689,0.837891,507
30434191,10010,-0.123291,0.482788,0.833984,510
30444183,9992,-0.124268,0.480713,0.833496,505
30454168,9985,-0.122803,0.479004,0.835693,507
30464179,10011,-0.123169,0.477295,0.838989,512
30474184,10005,-0.121460,0.479370,0.842041,510
30484170,9986,-0.122192,0.482056,0.841553,507
30494182,10012,-0.121582,0.481812,0.839844,507
30504171,9989,-0.122314,0.480713,0.839600,503
30514208,10037,-0.121216,0.479004,0.840088,505
30524187,9979,-0.119873,0.479004,0.841309,508
30534186,9999,-0.119629,0.480469,0.839966,509
30544168,9982,-0.120972,0.482178,0.840088,508
30554190,10022,-0.120361,0.487305,0.839966,505
30564183,9993,-0.119995,0.490112,0.839966,509
30574168,9985,-0.121582,0.491211,0.838257,505
30584192,10024,-0.120361,0.484741,0.837280,509
30594175,9983,-0.119507,0.483154,0.838257,504
30604164,9989,-0.120972,0.482178,0.838745,506
30614181,10017,-0.122559,0.482300,0.837646,492
30624166,9985,-0.121338,0.483765,0.836914,508
30634178,10012,-0.120972,0.484497,0.842285,506
30644186,10008,-0.121094,0.481201,0.840088,508
30654170,9984,-0.121094,0.478516,0.838135,507
30664176,10006,-0.121216,0.475830,0.836060,508
30674190,10014,-0.120972,0.475708,0.833984,506
30684181,9991,-0.122314,0.475708,0.836792,509
30694191,10010,-0.121704,0.483398,0.841675,509
30704207,10016,-0.120850,0.487671,0.840942,502
30714169,9962,-0.120361,0.488525,0.842163,510
30724182,10013,-0.119263,0.486084,0.841675,508
30734190,10008,-0.118408,0.481567,0.840332,507
30744166,9976,-0.119751,0.480225,0.836426,508
30754186,10020,-0.120728,0.481567,0.837402,513
30764177,9991,-0.122314,0.484253,0.837036,516
30774193,10016,-0.123413,0.487061,0.838867,513
30784169,9976,-0.124023,0.488647,0.836792,512
30794169,10000,-0.125854,0.490356,0.836670,516
30804182,10013,-0.123169,0.491455,0.833130,519
30814187,10005,-0.124268,0.489258,0.833130,515
30824179,9992,-0.125000,0.489136,0.832520,519
30834194,10015,-0.124512,0.488892,0.834717,524
30844184,9990,-0.124878,0.488403,0.837769,518
30854165,9981,-0.126343,0.485596,0.840210,525
30864177,10012,-0.126221,0.485596,0.842407,523
30874191,10014,-0.125366,0.484619,0.843750,523
30884189,9998,-0.124634,0.482910,0.842651,518
30894169,9980,-0.124634,0.483643,0.841187,523
30904170,10001,-0.125244,0.484741,0.840698,515
30914172,10002,-0.123779,0.486084,0.838867,526
30924193,10021,-0.123291,0.488159,0.839478,519
30934173,9980,-0.122925,0.487061,0.837769,515
30944183,10010,-0.122070,0.487427,0.835083,517
30954171,9988,-0.122314,0.485840,0.836182,511
30965081,10910,-0.118652,0.484009,0.833130,512
30974192,9111,-0.119263,0.482666,0.831055,511
30984166,9974,-0.119507,0.481812,0.830078,514
30994183,10017,-0.118774,0.480225,0.831665,512
31004165,9982,-0.118530,0.481079,0.834229,509
31014196,10031,-0.117676,0.481445,0.835937,509
31024173,9977,-0.118164,0.484375,0.834229,509
31034166,9993,-0.118652,0.483643,0.833008,509
31044165,9999,-0.117188,0.483765,0.832153,509
31054180,10015,-0.118286,0.481689,0.829590,513
31064166,9986,-0.117554,0.482666,0.828613,510
31074184,10018,-0.119629,0.483887,0.832397,510
31084181,9997,-0.119751,0.481201,0.832886,508
31094183,10002,-0.121582,0.482544,0.833496,509
31104192,10009,-0.121948,0.483398,0.832886,510
31114176,9984,-0.122192,0.484741,0.831909,507
31124168,9992,-0.122925,0.484741,0.833496,509
31136228,12060,-0.123901,0.484741,0.836548,510
31144165,7937,-0.125000,0.486206,0.836914,509
31154187,10022,-0.125000,0.486206,0.838501,503
31164180,9993,-0.125244,0.485474,0.840088,510
31174170,9990,-0.125488,0.483398,0.839966,510
31184165,9995,-0.125244,0.484375,0.839111,509
31194167,10002,-0.125000,0.485962,0.840942,509
31204194,10027,-0.123169,0.488403,0.839722,510
31214176,9982,-0.123535,0.488403,0.838745,509
31224187,10011,-0.124756,0.489868,0.836304,511
31234189,10002,-0.123779,0.489136,0.836670,509
31244214,10025,-0.123169,0.488037,0.838745,503
31254195,9981,-0.124146,0.488281,0.839600,509
31269419,15224,-0.121948,0.491577,0.835815,510
31275853,6434,0.000000,0.000000,0.000000,502
31284169,8316,-0.122192,0.491089,0.835449,504
31294171,10002,-0.122803,0.489746,0.834473,502
31304184,10013,-0.122803,0.488770,0.833252,510
31314193,10009,-0.122070,0.487427,0.833252,507
31324190,9997,-0.122070,0.484741,0.832031,507
31334179,9989,-0.123291,0.484863,0.832886,508
31344175,9996,-0.125244,0.487793,0.833984,506
31355468,11293,-0.122314,0.487183,0.836670,507
31364170,8702,-0.121704,0.487061,0.837036,508
31374175,10005,-0.123901,0.487793,0.836792,509
31384182,10007,-0.122681,0.484253,0.837158,506
31394165,9983,-0.123535,0.479980,0.838135,506
31404186,10021,-0.121704,0.477661,0.840820,505
31414183,9997,-0.122070,0.480835,0.842896,508
31424192,10009,-0.121460,0.484619,0.843384,503
31434179,9987,-0.121582,0.485596,0.842773,506
31444168,9989,-0.120728,0.485718,0.840698,507
31454174,10006,-0.121094,0.485596,0.839722,508
31464194,10020,-0.119873,0.487305,0.838135,509
31474220,10026,-0.119385,0.487427,0.837402,509
31484177,9957,-0.121216,0.486694,0.836792,511
31494170,9993,-0.122192,0.488281,0.835449,508
31504187,10017,-0.121948,0.490845,0.833740,513
31514169,9982,-0.122192,0.487915,0.832886,516
31524177,10008,-0.122070,0.487061,0.835815,513
31534178,10001,-0.121338,0.486084,0.837280,518
31544179,10001,-0.121338,0.485718,0.838745,520
31554189,10010,-0.120972,0.485962,0.838501,517
31564193,10004,-0.123291,0.484985,0.839600,518
31574171,9978,-0.123779,0.482910,0.840454,516
31584183,10012,-0.122925,0.481445,0.840942,523
31594191,10008,-0.122070,0.482178,0.841064,523
31604164,9973,-0.121948,0.481445,0.839111,518
31614194,10030,-0.122559,0.482910,0.837646,513
31624176,9982,-0.123047,0.486084,0.836914,519
31634187,10011,-0.122681,0.488403,0.836792,519
31644217,10030,-0.122559,0.489380,0.836304,510
31654186,9969,-0.123291,0.488037,0.836182,518
31664175,9989,-0.122803,0.487549,0.836426,511
31674173,9998,-0.121460,0.485840,0.838501,511
31684187,10014,-0.120850,0.482422,0.837524,513
31694176,9989,-0.121582,0.484009,0.837036,512
31704187,10011,-0.123413,0.483154,0.840820,512
31714220,10033,-0.121582,0.479492,0.841797,510
31724209,9989,-0.120239,0.477905,0.841919,504
31734165,9956,-0.121094,0.480591,0.839722,505
31744187,10022,-0.119873,0.482544,0.837524,504
31757910,13723,-0.117554,0.481812,0.834839,502
31771419,13509,-0.117798,0.480347,0.834595,504
31779511,8092,-0.117432,0.479858,0.833008,506
31785646,6135,-0.117432,0.478882,0.831787,509
31794170,8524,-0.117554,0.478760,0.830200,505
31804180,10010,-0.117798,0.479492,0.832520,504
31814174,9994,-0.116577,0.479370,0.832886,510
31824166,9992,-0.116577,0.481079,0.834351,507
31834179,10013,-0.117554,0.481689,0.834106,510
31844190,10011,-0.118530,0.484497,0.833252,510
31854171,9981,-0.119019,0.485474,0.835327,509
31864170,9999,-0.117920,0.485596,0.835327,510
31874187,10017,-0.119385,0.487061,0.836304,510
31884185,9998,-0.120850,0.485840,0.837646,511
31894192,10007,-0.120972,0.483032,0.839966,510
31904167,9975,-0.120972,0.484253,0.840698,511
31914199,10032,-0.121826,0.487061,0.839233,506
31924192,9993,-0.124023,0.489014,0.839722,506
31934171,9979,-0.123169,0.489258,0.841064,504
31944182,10011,-0.123535,0.491943,0.839600,508
31956620,12438,-0.124390,0.490845,0.841187,502
31964515,7895,-0.124634,0.489990,0.840698,505
31974190,9675,-0.124878,0.489502,0.841309,506
31984168,9978,-0.125244,0.488403,0.839844,510
31994180,10012,-0.126099,0.486816,0.839966,507
32004188,10008,-0.126221,0.488159,0.837891,506
32014175,9987,-0.125977,0.487793,0.836304,509
32024175,10000,-0.125366,0.487061,0.839966,510
32034187,10012,-0.123657,0.485107,0.838989,508
32044188,10001,-0.125122,0.484009,0.836426,508
32054170,9982,-0.126587,0.481079,0.834351,503
32064189,10019,-0.125854,0.480469,0.834839,509
32074171,9982,-0.126709,0.479858,0.837158,506
32084176,10005,-0.126221,0.479614,0.837524,507
32094183,10007,-0.125366,0.480469,0.838379,505
32104173,9990,-0.125122,0.481201,0.839844,503
32114182,10009,-0.126343,0.481079,0.839478,504
32124164,9982,-0.126709,0.481689,0.837036,504
32134177,10013,-0.125854,0.481201,0.835205,509
32144205,10028,-0.126465,0.481934,0.835449,510
32154191,9986,-0.126709,0.482544,0.838745,509
32164183,9992,-0.126709,0.482788,0.839722,514
32174179,9996,-0.126709,0.483032,0.840454,510
32184190,10011,-0.127441,0.484619,0.838501,516
32194172,9982,-0.127075,0.484497,0.837036,517
32204175,10003,-0.127930,0.483398,0.837769,514
32214193,10018,-0.127930,0.481323,0.835815,516
32224186,9993,-0.129028,0.481445,0.833984,519
32234166,9980,-0.128906,0.480835,0.835449,524
32244188,10022,-0.128662,0.479492,0.838379,522
32254188,10000,-0.128540,0.480103,0.841797,517
32264168,9980,-0.128662,0.482300,0.844116,524
32274185,10017,-0.126953,0.485352,0.843506,517
32284177,9992,-0.128418,0.488525,0.838379,516
32294165,9988,-0.130005,0.487549,0.834717,522
32304173,10008,-0.130005,0.487671,0.835327,521
32314190,10017,-0.128296,0.488770,0.839844,514
32324190,10000,-0.126953,0.491577,0.840576,517
32334184,9994,-0.126587,0.494263,0.837158,517
32344190,10006,-0.127197,0.492676,0.836792,516
32355230,11040,-0.125366,0.489258,0.838379,514
32364184,8954,-0.125122,0.487671,0.838135,512
32374188,10004,-0.126343,0.487793,0.836670,508
32384165,9977,-0.126099,0.487549,0.836548,512
32394168,10003,-0.125122,0.488892,0.838745,506
32404186,10018,-0.125854,0.490356,0.837158,511
32414192,10006,-0.126343,0.488647,0.835693,510
32424180,9988,-0.126099,0.486084,0.833618,511
32434190,10010,-0.124878,0.484131,0.832642,504
32444188,9998,-0.125854,0.480347,0.831421,513
32454191,10003,-0.124878,0.479736,0.831787,510
32468030,13839,-0.125610,0.479858,0.834717,509
32475851,7821,-0.126343,0.478760,0.833618,508
32484190,8339,-0.126709,0.478760,0.832031,511
32494170,9980,-0.127808,0.478149,0.829834,510
32504170,10000,-0.125488,0.478149,0.828735,509
32514187,10017,-0.124756,0.478516,0.829346,506
32524187,10000,-0.125610,0.476929,0.829102,507
32534171,9984,-0.125977,0.478271,0.829590,504
32544192,10021,-0.125732,0.480835,0.830322,512
32554180,9988,-0.126343,0.482422,0.830322,509
32564190,10010,-0.126587,0.481201,0.830566,511
32574173,9983,-0.128296,0.480347,0.831787,505
32584169,9996,-0.127808,0.480957,0.832642,512
32594164,9995,-0.129150,0.483032,0.834839,508
32604175,10011,-0.129517,0.484985,0.835571,502
32614177,10002,-0.130127,0.486206,0.836426,509
32624164,9987,-0.131104,0.487183,0.838135,511
32634196,10032,-0.130493,0.484131,0.839966,510
32644182,9986,-0.130249,0.483276,0.838989,507
32654182,10000,-0.131226,0.483154,0.839233,511
32664190,10008,-0.131836,0.486816,0.839844,503
32674164,9974,-0.132080,0.488770,0.840820,510
32684177,10013,-0.132935,0.488037,0.841675,507
32694164,9987,-0.131592,0.486328,0.843506,507
32704190,10026,-0.131104,0.485229,0.842773,503
32714168,9978,-0.130493,0.487305,0.839478,508
32724180,10012,-0.130249,0.484863,0.838745,509
32734193,10013,-0.128906,0.487061,0.839844,506
32744167,9974,-0.128296,0.488647,0.840820,505
32754181,10014,-0.126831,0.490234,0.841675,509
32764720,10539,-0.126099,0.488770,0.840698,510
32774999,10279,-0.124634,0.487915,0.837524,509
32784164,9165,-0.123169,0.487427,0.836914,511
32794192,10028,-0.123047,0.489014,0.837402,509
32804194,10002,-0.122803,0.489258,0.837036,512
32814193,9999,-0.123779,0.490479,0.837158,512
32824178,9985,-0.125122,0.490723,0.835815,515
32834166,9988,-0.125977,0.488647,0.837036,518
32844168,10002,-0.124268,0.484253,0.838135,518
32854182,10014,-0.124023,0.480469,0.838745,515
32864175,9993,-0.124146,0.480347,0.840210,516
32881334,17159,-0.124756,0.480347,0.841187,526
32889402,8068,-0.125488,0.481201,0.839722,517
32899802,10400,-0.125732,0.482300,0.838257,524
32905393,5591,-0.127686,0.483643,0.838501,527
32914170,8777,-0.124390,0.481445,0.839111,521
32924181,10011,-0.124878,0.478882,0.838989,520
32934190,10009,-0.124756,0.480347,0.835815,526
32944182,9992,-0.126587,0.481934,0.835937,526
32954181,9999,-0.125488,0.481567,0.837646,519
32964189,10008,-0.126709,0.483765,0.837158,519
32974167,9978,-0.126953,0.488281,0.836304,519
32984183,10016,-0.126465,0.488037,0.835571,519
32994169,9986,-0.125732,0.485718,0.837036,516
33004175,10006,-0.125488,0.483398,0.837036,521
33014179,10004,-0.127686,0.483398,0.836182,517
33024173,9994,-0.127319,0.484497,0.836914,517
33034169,9996,-0.126343,0.484863,0.836670,515
33044186,10017,-0.126831,0.486694,0.837646,514
33054172,9986,-0.127441,0.484497,0.841553,515
33064170,9998,-0.125732,0.484863,0.841431,512
33074475,10305,-0.125610,0.484741,0.840210,512
33084185,9710,-0.126343,0.484619,0.839111,508
33094194,10009,-0.126099,0.484741,0.836914,511
33104844,10650,-0.126831,0.484619,0.835327,505
33114188,9344,-0.126587,0.485474,0.836304,511
33124170,9982,-0.127441,0.484985,0.837769,504
33134167,9997,-0.125854,0.486328,0.839478,511
33144193,10026,-0.125854,0.488037,0.836548,511
33154167,9974,-0.125977,0.487793,0.833984,511
33164167,10000,-0.125610,0.486938,0.831299,512
33174186,10019,-0.126831,0.485718,0.831055,512
33184528,10342,-0.126221,0.485352,0.829834,512
33195431,10903,-0.127197,0.484253,0.831177,512
33204182,8751,-0.126587,0.481445,0.833130,507
33214165,9983,-0.125732,0.479492,0.836304,507
33224170,10005,-0.127441,0.481079,0.837158,513
33234190,10020,-0.127319,0.480713,0.838745,506
33244191,10001,-0.127930,0.481201,0.837524,504
33254177,9986,-0.128296,0.480957,0.834961,511
33264174,9997,-0.129517,0.480957,0.834229,511
33274165,9991,-0.127075,0.479370,0.836304,511
33284194,10029,-0.127808,0.482300,0.836792,509
33294176,9982,-0.127563,0.482788,0.837524,509
33304185,10009,-0.128296,0.484253,0.836060,509
33314185,10000,-0.128662,0.485718,0.835449,510
33324190,10005,-0.129517,0.488403,0.832764,508
33334179,9989,-0.129028,0.486694,0.832642,509
33344187,10008,-0.128540,0.487549,0.832642,504
33354183,9996,-0.128906,0.487427,0.834106,503
33364173,9990,-0.128906,0.486450,0.834473,504
33375938,11765,-0.126953,0.484131,0.834106,511
33384173,8235,-0.128052,0.485596,0.833618,508
33394165,9992,-0.127930,0.485840,0.833496,502
33404176,10011,-0.128296,0.483276,0.835815,510
33414177,10001,-0.129028,0.481201,0.838501,510
33424184,10007,-0.128174,0.483521,0.841064,503
33434187,10003,-0.126465,0.487061,0.838867,503
33444178,9991,-0.125610,0.487427,0.837402,505
33454175,9997,-0.126587,0.485107,0.835083,503
33464169,9994,-0.126221,0.485596,0.834839,511
33474183,10014,-0.126831,0.486572,0.835327,507
33484165,9982,-0.126709,0.489136,0.836182,513
33494184,10019,-0.128296,0.492065,0.837036,512
33504186,10002,-0.128174,0.489746,0.835693,513
33514164,9978,-0.128906,0.487915,0.835205,519
33524166,10002,-0.128784,0.485962,0.836670,522
33534179,10013,-0.127441,0.484985,0.838501,524
33544185,10006,-0.127441,0.485229,0.839355,522
33554168,9983,-0.128296,0.486816,0.841919,527
33564173,10005,-0.127197,0.486206,0.839966,528
33574187,10014,-0.128906,0.485840,0.838379,531
33584180,9993,-0.128418,0.483887,0.840454,529
33594169,9989,-0.128052,0.481201,0.840576,529
33604188,10019,-0.128784,0.483276,0.840942,530
33614180,9992,-0.127075,0.487915,0.839966,525
33624177,9997,-0.127441,0.489868,0.839233,523
33634165,9988,-0.126953,0.488892,0.836548,521
33644176,10011,-0.127197,0.486328,0.835937,520
33654173,9997,-0.125000,0.485718,0.833740,524
33664211,10038,-0.124512,0.486938,0.833496,521
33674188,9977,-0.123901,0.487061,0.831909,520
33684185,9997,-0.123779,0.487915,0.833008,515
33694189,10004,-0.122681,0.486938,0.833618,515
33704197,10008,-0.123413,0.489380,0.833740,516
33714195,9998,-0.124023,0.492798,0.835205,513
33724164,9969,-0.122559,0.489990,0.833252,511
33734167,10003,-0.123169,0.487549,0.833008,511
33744171,10004,-0.123291,0.485718,0.833862,511
33754176,10005,-0.122070,0.484619,0.833618,512
33764164,9988,-0.123291,0.481689,0.836670,511
33774184,10020,-0.124268,0.482300,0.836426,512
33784168,9984,-0.124634,0.483521,0.836548,511
33794192,10024,-0.125366,0.484131,0.837646,509
33804164,9972,-0.123291,0.484741,0.836548,511
33814181,10017,-0.124268,0.484253,0.833618,511
33824185,10004,-0.123901,0.480225,0.832764,509
33834189,10004,-0.125000,0.480103,0.831177,511
33844186,9997,-0.126221,0.480957,0.830688,509
33854183,9997,-0.126221,0.483398,0.830322,512
33864189,10006,-0.126953,0.484619,0.832397,512
33874189,10000,-0.126465,0.486816,0.830688,511
33884179,9990,-0.126221,0.488037,0.833496,506
33894174,9995,-0.125977,0.486328,0.832642,511
33904175,10001,-0.125732,0.484375,0.833008,510
33914184,10009,-0.125854,0.482910,0.833374,509
33926407,12223,-0.128418,0.483643,0.836914,509
33934176,7769,-0.127808,0.484619,0.837891,505
33944206,10030,-0.128174,0.487427,0.838379,510
33954196,9990,-0.127930,0.488647,0.838745,508
33964164,9968,-0.128418,0.489624,0.839233,508
33974173,10009,-0.128540,0.490234,0.838135,509
33984189,10016,-0.126953,0.489014,0.833496,502
33994189,10000,-0.127808,0.490112,0.833252,509
34004166,9977,-0.127441,0.491699,0.835449,506
34014179,10013,-0.126953,0.491333,0.835449,508
34024189,10010,-0.127197,0.491211,0.835937,508
34034185,9996,-0.127930,0.492187,0.836182,506
34044176,9991,-0.127075,0.492554,0.836670,508
34054169,9993,-0.126099,0.488892,0.835571,502
34064186,10017,-0.126465,0.487915,0.836426,509
34074177,9991,-0.127808,0.487061,0.836670,508
34084167,9990,-0.127808,0.486694,0.836426,504
34094166,9999,-0.127930,0.485474,0.837646,505
34110291,16125,-0.127808,0.486938,0.839600,506
34116404,6113,0.000000,0.000000,0.000000,505
34124291,7887,-0.126221,0.487671,0.839478,499
34134175,9884,-0.124756,0.484131,0.837158,508
34144178,10003,-0.125244,0.483276,0.834717,503
34154185,10007,-0.125854,0.485596,0.834473,503
34164192,10007,-0.125610,0.486694,0.835205,505
34174187,9995,-0.126099,0.485718,0.834473,512
34184167,9980,-0.124756,0.489014,0.833252,512
34194175,10008,-0.126343,0.489502,0.832153,515
34209309,15134,-0.125732,0.485474,0.832397,520
34215641,6332,-0.126221,0.482544,0.833618,515
34224164,8523,-0.126221,0.481323,0.834106,522
34234166,10002,-0.126343,0.481689,0.837280,518
34244172,10006,-0.125244,0.482788,0.840698,525
34254184,10012,-0.125366,0.483643,0.837158,520
34264185,10001,-0.126465,0.482910,0.835449,527
34274177,9992,-0.125488,0.482056,0.834351,528
34284176,9999,-0.125732,0.482422,0.833862,528
34294189,10013,-0.125488,0.483765,0.835571,525
34304189,10000,-0.124023,0.485352,0.836670,527
34314164,9975,-0.126343,0.488525,0.834106,519
34324167,10003,-0.126343,0.489868,0.833008,517
34334176,10009,-0.126465,0.492065,0.833374,525
34344193,10017,-0.125732,0.494141,0.833984,521
34354172,9979,-0.125610,0.494629,0.833496,518
34364186,10014,-0.125732,0.493652,0.831421,518
34374181,9995,-0.127197,0.492920,0.832153,516
34384173,9992,-0.125977,0.492554,0.834473,509
34394166,9993,-0.126587,0.491699,0.837769,512
34405703,11537,-0.127930,0.489746,0.838501,512
34414178,8475,-0.127319,0.489502,0.838013,511
34424169,9991,-0.129639,0.489502,0.836426,510
34434193,10024,-0.128418,0.488647,0.837646,510
34444189,9996,-0.130249,0.488159,0.837158,511
34454179,9990,-0.128540,0.488037,0.836792,505
34464188,10009,-0.128906,0.487427,0.836426,506
34474176,9988,-0.128906,0.484253,0.836182,510
34484193,10017,-0.128174,0.483154,0.835449,508
34494192,9999,-0.128662,0.483154,0.833984,507
34504193,10001,-0.129150,0.484741,0.832275,503
34517032,12839,-0.128540,0.485718,0.832153,507
34529147,12115,-0.127441,0.486328,0.832031,509
34536988,7841,-0.128906,0.486694,0.830811,510
34544178,7190,-0.128906,0.487915,0.829712,503
34554191,10013,-0.128418,0.488770,0.829224,509
34564173,9982,-0.129517,0.487183,0.829102,511
34574184,10011,-0.128784,0.485107,0.829102,508
34584189,10005,-0.130249,0.487915,0.828735,509
34594173,9984,-0.130981,0.490112,0.830078,508
34604850,10677,-0.128906,0.490234,0.833252,510
34614175,9325,-0.128174,0.490601,0.833618,509
34624375,10200,-0.128784,0.489868,0.831909,508
34634185,9810,-0.128662,0.489014,0.832764,508
34644166,9981,-0.128906,0.486328,0.833008,510
34654182,10016,-0.129517,0.488037,0.832886,509
34664169,9987,-0.130493,0.490479,0.831543,502
34674165,9996,-0.130005,0.491577,0.829590,502
34684190,10025,-0.130493,0.492065,0.832275,507
