t_us,dt_us,ax,ay,az,ppg
17775947,10023,0.055420,0.236206,0.942505,490
17785926,9979,0.056519,0.230957,0.947144,487
17795948,10022,0.053711,0.238892,0.948364,487
17805946,9998,0.058350,0.233154,0.950317,487
17815939,9993,0.057251,0.231445,0.952515,482
17825942,10003,0.055908,0.236450,0.949707,480
17835936,9994,0.059326,0.230957,0.945801,488
17845960,10024,0.058594,0.238770,0.943481,486
17855925,9965,0.060303,0.236816,0.942383,487
17865941,10016,0.058228,0.243164,0.942993,487
17875938,9997,0.061523,0.241089,0.942017,480
17885934,9996,0.062622,0.232544,0.942261,485
17895938,10004,0.063599,0.228271,0.945068,487
17905968,10030,0.063354,0.228394,0.947876,485
17915954,9986,0.064697,0.228149,0.949341,480
17925934,9980,0.067505,0.221313,0.946899,487
17935929,9995,0.068237,0.219360,0.936523,485
17945929,10000,0.068726,0.223511,0.919189,496
17955948,10019,0.079834,0.226074,0.941284,498
17965939,9991,0.057861,0.234009,0.954102,502
17975931,9992,0.064453,0.248047,0.950073,507
17985937,10006,0.061035,0.244019,0.953735,512
17995924,9987,0.053711,0.229614,0.957520,513
18005930,10006,0.057617,0.218018,0.953125,521
18015946,10016,0.058350,0.211548,0.965210,522
18025948,10002,0.051147,0.212036,0.939575,525
18035945,9997,0.056274,0.225220,0.965332,530
18054506,18561,0.057373,0.234741,0.962524,543
18059829,5323,0.000000,0.000000,0.000000,544
18065938,6109,0.058472,0.239136,0.962524,545
18075943,10005,0.057861,0.244263,0.961670,539
18085926,9983,0.057739,0.246948,0.952148,542
18095935,10009,0.056274,0.245972,0.947144,536
18105931,9996,0.056763,0.247314,0.939209,541
18115932,10001,0.058350,0.250244,0.930786,535
18125942,10010,0.058350,0.249146,0.924683,538
18135931,9989,0.060303,0.248535,0.918945,534
18145933,10002,0.060303,0.251465,0.920654,530
18155953,10020,0.060791,0.255371,0.922363,523
18165939,9986,0.061401,0.257690,0.922119,521
18175925,9986,0.063599,0.255371,0.919800,524
18185931,10006,0.066284,0.248047,0.920776,514
18195928,9997,0.067993,0.235718,0.929687,519
18205943,10015,0.067993,0.235352,0.937134,520
18215930,9987,0.067505,0.236816,0.940430,519
18225939,10009,0.069458,0.236572,0.942139,517
18235935,9996,0.072388,0.232788,0.942749,511
18245926,9991,0.074829,0.231201,0.951660,512
18255950,10024,0.078369,0.233643,0.958130,502
18265934,9984,0.077637,0.236572,0.962524,507
18275930,9996,0.079712,0.238647,0.965088,504
18285949,10019,0.079590,0.239380,0.963013,502
18295925,9976,0.080322,0.240356,0.960937,501
18305935,10010,0.079590,0.242920,0.954834,505
18315940,10005,0.077637,0.245361,0.953613,501
18325928,9988,0.076660,0.247070,0.953247,495
18335957,10029,0.072388,0.249756,0.953125,502
18345935,9978,0.069824,0.251099,0.950317,500
18355934,9999,0.071533,0.247070,0.946533,493
18365943,10009,0.069702,0.249512,0.945190,491
18375947,10004,0.066650,0.251099,0.948975,498
18385929,9982,0.066772,0.251465,0.949829,496
18395924,9995,0.068481,0.254395,0.951294,499
18405941,10017,0.067383,0.255615,0.949463,496
18415934,9993,0.069824,0.247070,0.951416,489
18425934,10000,0.069946,0.244873,0.955200,492
18435946,10012,0.067261,0.244263,0.961792,495
18445945,9999,0.067261,0.244751,0.964600,497
18455951,10006,0.067017,0.245117,0.963867,496
18465945,9994,0.066895,0.243652,0.954834,485
18475935,9990,0.065308,0.242065,0.950684,496
18485928,9993,0.063965,0.241577,0.946411,486
18495947,10019,0.061646,0.241089,0.942871,495
18505925,9978,0.059204,0.240845,0.940430,486
18515941,10016,0.058960,0.241211,0.938110,496
18525930,9989,0.057007,0.238281,0.933594,493
18535924,9994,0.056641,0.237671,0.929565,496
18545946,10022,0.056885,0.233521,0.925171,494
18555976,10030,0.057251,0.230713,0.923706,491
18565950,9974,0.057617,0.229858,0.925293,494
18575942,9992,0.055054,0.239624,0.924316,495
18585939,9997,0.057129,0.242432,0.922241,491
18595948,10009,0.057739,0.239136,0.920166,493
18605948,10000,0.058228,0.234009,0.923584,495
18615938,9990,0.057983,0.231445,0.925659,488
18625928,9990,0.059570,0.234497,0.927979,484
18635949,10021,0.059937,0.236816,0.936646,492
18645951,10002,0.058960,0.235352,0.941650,488
18655953,10002,0.060669,0.232666,0.944824,493
18665936,9983,0.062012,0.231689,0.951172,494
18675951,10015,0.060547,0.232910,0.954956,488
18685938,9987,0.063843,0.236816,0.956177,496
18695941,10003,0.063965,0.239014,0.957153,496
18705925,9984,0.063110,0.243652,0.960327,503
18715942,10017,0.061401,0.249390,0.959351,509
18725926,9984,0.061035,0.255127,0.959229,520
18735927,10001,0.061768,0.258301,0.957520,525
18745933,10006,0.062622,0.264771,0.950562,532
18755938,10005,0.062988,0.270142,0.948120,532
18765934,9996,0.061768,0.273193,0.944458,537
18775947,10013,0.062744,0.271973,0.942139,533
18785935,9988,0.063599,0.269043,0.939697,539
18795943,10008,0.064819,0.261841,0.945068,525
18805944,10001,0.063721,0.258789,0.948853,537
18815946,10002,0.064453,0.258911,0.951172,536
18825929,9983,0.064453,0.257446,0.953247,531
18835941,10012,0.064453,0.252930,0.953491,536
18845943,10002,0.065796,0.246460,0.953735,534
18855947,10004,0.065918,0.241943,0.951660,519
18865930,9983,0.065552,0.240601,0.950684,529
18875934,10004,0.064575,0.238525,0.948975,528
18885934,10000,0.064331,0.237671,0.949219,520
18895941,10007,0.064697,0.236206,0.948608,521
18905943,10002,0.063599,0.237427,0.945312,519
18915933,9990,0.064331,0.240234,0.942627,516
18925933,10000,0.063965,0.242554,0.938721,513
18935941,10008,0.065186,0.241699,0.935059,512
18945932,9991,0.066650,0.239502,0.928467,503
18955924,9992,0.066406,0.239136,0.926880,502
18965936,10012,0.066650,0.239990,0.928345,503
18975945,10009,0.065308,0.240845,0.930664,501
18985976,10031,0.064209,0.240356,0.933960,501
18995964,9988,0.063965,0.237671,0.935303,492
19005926,9962,0.062500,0.237915,0.935059,497
19015935,10009,0.064087,0.240356,0.938232,496
19025953,10018,0.063843,0.239868,0.938232,496
19035929,9976,0.063354,0.240112,0.937500,492
19045925,9996,0.064087,0.240845,0.935303,491
19055936,10011,0.064209,0.242920,0.933838,494
19065940,10004,0.061768,0.219971,0.933350,492
19075945,10005,0.065430,0.253784,0.934937,487
19085953,10008,0.062744,0.257568,0.932617,488
19095948,9995,0.071777,0.257690,0.935303,488
19105944,9996,0.064697,0.263794,0.938110,482
19115929,9985,0.073730,0.252563,0.935303,488
19125945,10016,0.071411,0.248047,0.938599,490
19135930,9985,0.075073,0.253662,0.943359,484
19145937,10007,0.070679,0.245850,0.942261,482
19155952,10015,0.077759,0.246094,0.945679,484
19165928,9976,0.070923,0.242554,0.944580,486
19175943,10015,0.080200,0.243286,0.947510,490
19185952,10009,0.078247,0.234619,0.945068,491
19195952,10000,0.079102,0.235107,0.947388,487
19205949,9997,0.072998,0.235352,0.951538,492
19215961,10012,0.074463,0.232910,0.952148,496
19225941,9980,0.075684,0.228760,0.952271,496
19235926,9985,0.071289,0.224854,0.945679,496
19245950,10024,0.071899,0.227295,0.946289,492
19255940,9990,0.069824,0.232056,0.945923,495
19265935,9995,0.068115,0.236084,0.942505,494
19275946,10011,0.068359,0.237549,0.939941,491
19285924,9978,0.067871,0.241821,0.934204,496
19295948,10024,0.072388,0.244751,0.938354,487
19305935,9987,0.070801,0.246704,0.942749,491
19315928,9993,0.070679,0.248413,0.947266,495
19325938,10010,0.070435,0.246826,0.950195,499
19335951,10013,0.070801,0.243530,0.952148,492
19345937,9986,0.072876,0.235962,0.950684,501
19355931,9994,0.068848,0.239868,0.952515,506
19365928,9997,0.069580,0.248901,0.952881,509
19375955,10027,0.069946,0.252808,0.951782,513
19385926,9971,0.065674,0.256348,0.954712,519
19395928,10002,0.066772,0.252441,0.945312,522
19405943,10015,0.063843,0.255249,0.942749,526
19415953,10010,0.067383,0.255493,0.942871,534
19425934,9981,0.061523,0.260742,0.940430,537
19435975,10041,0.066162,0.250854,0.938232,535
19445948,9973,0.063354,0.254028,0.943359,545
19455928,9980,0.061035,0.248291,0.934448,543
19465938,10010,0.066895,0.241577,0.934570,547
19475929,9991,0.065308,0.243286,0.946899,548
19485930,10001,0.057495,0.255859,0.958496,547
19495930,10000,0.061890,0.253906,0.952026,548
19505935,10005,0.060913,0.229736,0.960815,542
19515930,9995,0.057983,0.227051,0.962769,543
19525943,10013,0.054687,0.219727,0.958618,541
19535924,9981,0.065918,0.215210,0.960449,540
19545935,10011,0.059082,0.224487,0.968506,537
19555936,10001,0.062256,0.227173,0.963867,532
19565938,10002,0.062622,0.251099,0.956421,524
19575927,9989,0.070312,0.243042,0.949585,527
19585930,10003,0.067383,0.237793,0.947998,528
19595927,9997,0.062866,0.232422,0.943726,524
19605950,10023,0.067017,0.228516,0.942383,520
19615928,9978,0.065186,0.232178,0.941772,519
19625943,10015,0.064453,0.231323,0.944702,516
19635935,9992,0.064331,0.232178,0.945190,513
19645963,10028,0.064209,0.230469,0.943848,518
19655940,9977,0.065674,0.233032,0.945801,512
19665926,9986,0.066772,0.225342,0.943604,512
19675930,10004,0.063232,0.227051,0.945068,513
19685937,10007,0.068481,0.222046,0.943848,513
19695940,10003,0.067871,0.229126,0.948975,511
19705946,10006,0.063354,0.226074,0.947510,512
19715952,10006,0.068237,0.225342,0.952148,513
19725936,9984,0.067017,0.223633,0.952271,511
19735948,10012,0.061035,0.229858,0.953003,505
19745942,9994,0.060913,0.227417,0.948853,507
19755932,9990,0.063477,0.228271,0.950195,508
19765937,10005,0.054321,0.229980,0.953003,508
19775926,9989,0.058350,0.227783,0.950684,507
19785926,10000,0.055908,0.232178,0.942139,505
19795938,10012,0.057129,0.234131,0.938477,504
19805958,10020,0.056396,0.238525,0.941406,501
19815936,9978,0.055908,0.237061,0.938110,505
19825939,10003,0.057617,0.236816,0.934448,497
19835936,9997,0.054932,0.231689,0.932739,502
19845948,10012,0.055176,0.229492,0.934570,504
19855930,9982,0.055786,0.228516,0.933350,501
19865981,10051,0.059448,0.229004,0.931763,493
19875938,9957,0.061768,0.229004,0.929443,502
19885924,9986,0.064819,0.229248,0.932373,502
19895930,10006,0.068481,0.225952,0.925903,498
19905924,9994,0.073120,0.220215,0.925781,504
19915924,10000,0.076294,0.214844,0.927979,498
19925951,10027,0.078369,0.213867,0.931274,494
19935938,9987,0.081299,0.216675,0.934814,500
19945935,9997,0.084106,0.212891,0.939331,497
19955931,9996,0.086548,0.209351,0.939453,501
19965938,10007,0.088501,0.207520,0.943481,501
19975950,10012,0.088257,0.208984,0.949829,499
19985925,9975,0.087646,0.210083,0.956543,499
19995933,10008,0.086914,0.212646,0.964478,499
20005953,10020,0.087402,0.211792,0.964966,500
20015939,9986,0.085937,0.208496,0.964478,499
20025939,10000,0.084717,0.207275,0.960327,500
20035925,9986,0.084839,0.205200,0.954224,497
20045943,10018,0.084961,0.203857,0.945312,495
20055950,10007,0.088013,0.210449,0.937012,501
20065944,9994,0.088745,0.219116,0.941650,504
20075936,9992,0.087402,0.226807,0.947754,509
20085927,9991,0.087036,0.227783,0.953857,513
20095975,10048,0.086182,0.228760,0.963379,518
20105933,9958,0.083008,0.210815,0.963379,524
20115941,10008,0.084717,0.203369,0.957153,524
20125933,9992,0.083740,0.199463,0.944946,528
20135952,10019,0.086670,0.202881,0.930176,532
20145943,9991,0.085449,0.209595,0.916504,533
20155943,10000,0.083862,0.213623,0.937866,533
20165926,9983,0.076782,0.238892,0.939819,531
20175933,10007,0.076172,0.238892,0.930176,532
20185944,10011,0.085327,0.226562,0.935547,530
20195950,10006,0.087891,0.210693,0.947144,531
20205930,9980,0.083862,0.203125,0.946411,528
20215948,10018,0.084229,0.194824,0.958252,526
20225929,9981,0.088745,0.194458,0.957764,524
20235936,10007,0.088257,0.188477,0.963257,519
20245938,10002,0.086670,0.189453,0.965576,520
20255967,10029,0.089355,0.194580,0.967896,512
20265934,9967,0.087646,0.193237,0.971924,517
20275926,9992,0.087891,0.193359,0.977173,517
20285931,10005,0.089966,0.196655,0.977783,504
20295925,9994,0.089355,0.202515,0.979736,511
20305950,10025,0.086548,0.209717,0.971802,509
20315943,9993,0.088013,0.206665,0.970093,506
20325933,9990,0.072021,0.192383,0.964355,506
20335924,9991,0.076660,0.191528,0.960937,505
20345950,10026,0.073242,0.194702,0.965454,500
20355946,9996,0.068848,0.200562,0.967651,502
20365952,10006,0.068848,0.204102,0.968384,502
20375946,9994,0.070557,0.204468,0.966309,495
20385951,10005,0.072266,0.202881,0.965820,498
20395951,10000,0.073242,0.205200,0.968750,497
20405946,9995,0.072632,0.212646,0.970215,493
20415940,9994,0.070923,0.218140,0.970825,495
20425945,10005,0.071045,0.221313,0.968750,498
20435936,9991,0.073853,0.220093,0.964233,497
20445932,9996,0.075806,0.219482,0.962280,497
20455926,9994,0.077148,0.217896,0.963379,494
20465929,10003,0.080566,0.215576,0.962891,491
20475946,10017,0.081177,0.214478,0.966064,490
20485942,9996,0.081787,0.214966,0.968750,489
20495933,9991,0.084595,0.211426,0.958008,492
20505953,10020,0.090088,0.209473,0.957397,487
20515929,9976,0.088379,0.208008,0.957275,486
20525924,9995,0.086792,0.208618,0.967285,488
20535933,10009,0.080688,0.211548,0.971558,489
20545945,10012,0.081909,0.201660,0.970703,492
20555941,9996,0.084717,0.196777,0.972412,482
20565952,10011,0.077759,0.195312,0.969238,480
20575926,9974,0.081665,0.197388,0.974365,481
20585953,10027,0.079102,0.199463,0.975098,492
20595952,9999,0.081665,0.198364,0.973877,489
20605927,9975,0.083496,0.197998,0.974243,483
20615932,10005,0.080811,0.203125,0.969482,492
20625947,10015,0.089355,0.210327,0.971802,494
20635952,10005,0.083740,0.219238,0.969238,485
20645950,9998,0.082642,0.216797,0.953003,493
20655948,9998,0.081909,0.204834,0.942749,489
20665952,10004,0.082642,0.203369,0.938721,488
20675930,9978,0.081909,0.204590,0.931885,493
20685924,9994,0.079346,0.214600,0.923218,489
20695934,10010,0.083984,0.223389,0.910278,488
20705948,10014,0.090210,0.226562,0.923828,488
20715952,10004,0.081177,0.233521,0.930664,482
20725955,10003,0.076660,0.226318,0.925659,486
20735951,9996,0.070435,0.223267,0.933716,488
20745928,9977,0.068359,0.206177,0.940796,488
20755945,10017,0.066528,0.200195,0.947754,491
20765925,9980,0.072998,0.200195,0.951172,484
20775942,10017,0.059448,0.210693,0.952515,492
20785926,9984,0.065552,0.212769,0.944702,497
20795933,10007,0.068970,0.224976,0.937134,499
20805927,9994,0.068848,0.225830,0.931030,505
20815932,10005,0.074097,0.232544,0.922363,501
20825937,10005,0.071899,0.239136,0.921997,513
20835946,10009,0.070435,0.246948,0.931885,516
20845945,9999,0.065430,0.253418,0.937988,514
20855936,9991,0.067383,0.250122,0.935913,523
20865942,10006,0.066650,0.247070,0.930298,522
20875931,9989,0.065674,0.231445,0.926392,521
20885952,10021,0.064087,0.231812,0.931885,523
20895953,10001,0.061646,0.240356,0.939331,522
20905926,9973,0.059204,0.247192,0.942749,521
20915928,10002,0.061279,0.253540,0.949951,523
20925940,10012,0.061035,0.245972,0.958618,519
20935957,10017,0.061768,0.240845,0.957031,518
20945950,9993,0.063843,0.239746,0.955811,520
20955937,9987,0.066284,0.239502,0.957886,520
20965949,10012,0.067017,0.242554,0.960449,512
20975926,9977,0.064087,0.244995,0.963867,516
20985950,10024,0.066040,0.247192,0.965698,510
20995946,9996,0.064575,0.247437,0.969116,512
21005931,9985,0.060303,0.249756,0.966675,512
21015928,9997,0.061768,0.253296,0.963989,511
21025951,10023,0.056885,0.260742,0.960083,511
21035938,9987,0.058105,0.255371,0.952026,510
21045934,9996,0.050781,0.258545,0.947876,510
21055927,9993,0.052490,0.260742,0.943115,507
21065950,10023,0.056396,0.257446,0.941528,509
21075946,9996,0.052490,0.265869,0.944580,511
21085952,10006,0.050415,0.266113,0.945068,510
21095928,9976,0.048950,0.261230,0.944458,508
21105938,10010,0.050659,0.253784,0.938843,506
21115953,10015,0.052246,0.246460,0.938843,507
21125929,9976,0.053345,0.242432,0.943726,500
21135953,10024,0.052734,0.242065,0.947144,499
21145972,10019,0.053467,0.245728,0.953979,505
21155947,9975,0.054321,0.245239,0.950684,500
21165932,9985,0.055420,0.241699,0.947876,505
21175948,10016,0.055664,0.235474,0.943604,504
21185926,9978,0.055664,0.230469,0.941772,503
21195932,10006,0.055542,0.227661,0.941284,500
21205926,9994,0.053833,0.230225,0.942993,495
21215940,10014,0.053345,0.231567,0.938843,498
21225928,9988,0.054199,0.230713,0.935059,500
21235941,10013,0.054810,0.230957,0.932617,499
21245943,10002,0.054932,0.230225,0.931885,500
21255938,9995,0.054932,0.234009,0.928589,496
21265951,10013,0.057007,0.237915,0.929199,491
21275928,9977,0.056274,0.240601,0.931763,494
21285933,10005,0.054199,0.241577,0.934326,494
21295955,10022,0.054321,0.242187,0.935425,497
21305935,9980,0.057129,0.243286,0.937378,497
21315938,10003,0.059448,0.245361,0.935547,496
21325947,10009,0.061035,0.244141,0.933472,496
21335945,9998,0.062988,0.241089,0.935059,494
21345975,10030,0.066040,0.244141,0.936401,492
21355943,9968,0.067993,0.248047,0.939819,486
21365939,9996,0.069214,0.251343,0.945557,490
21375928,9989,0.072021,0.246704,0.945801,494
21385952,10024,0.073242,0.240601,0.945435,494
21395926,9974,0.074219,0.239014,0.944946,492
21405930,10004,0.077393,0.238647,0.947754,494
21415948,10018,0.076294,0.237183,0.951416,495
21425942,9994,0.076172,0.238525,0.953613,498
21435924,9982,0.076294,0.238037,0.956909,500
21445936,10012,0.075073,0.240356,0.956909,509
21455946,10010,0.075684,0.242676,0.954468,515
21465929,9983,0.076416,0.245850,0.951294,516
21475944,10015,0.073853,0.245850,0.949707,523
21485924,9980,0.073364,0.246704,0.946777,523
21495940,10016,0.073364,0.248779,0.945923,525
21505946,10006,0.073975,0.250122,0.942383,528
21515924,9978,0.073608,0.250244,0.941895,527
21525934,10010,0.075562,0.246338,0.944092,523
21535948,10014,0.073364,0.246582,0.946045,526
21545932,9984,0.071655,0.246094,0.947144,527
21555936,10004,0.071289,0.243652,0.942505,522
21565929,9993,0.071167,0.238892,0.938232,521
21575943,10014,0.072632,0.234741,0.937866,520
21585953,10010,0.073242,0.238159,0.936768,515
21595937,9984,0.072998,0.240601,0.936523,507
21605925,9988,0.073608,0.239868,0.935303,509
21615945,10020,0.072876,0.236084,0.935791,512
21625947,10002,0.073975,0.234497,0.934692,507
21635948,10001,0.077515,0.234985,0.938477,506
21645946,9998,0.078003,0.235840,0.945679,506
21655943,9997,0.075562,0.234863,0.949219,502
21665940,9997,0.077515,0.234009,0.950806,498
21675950,10010,0.078613,0.228271,0.948853,505
21685937,9987,0.079590,0.233887,0.952637,499
21695925,9988,0.079468,0.240967,0.953979,505
21705925,10000,0.078003,0.234375,0.950439,499
21715938,10013,0.079224,0.238403,0.950562,504
21725945,10007,0.075073,0.239258,0.951050,495
21735933,9988,0.077393,0.243286,0.954346,497
21745948,10015,0.077393,0.244019,0.951782,502
21755970,10022,0.071777,0.246826,0.949707,499
21765930,9960,0.075439,0.249390,0.948975,498
21775947,10017,0.074219,0.247559,0.949463,494
21785950,10003,0.071411,0.245728,0.948975,497
21795945,9995,0.070679,0.249756,0.947510,494
21805943,9998,0.069336,0.252686,0.945801,489
21815940,9997,0.067749,0.249878,0.946411,490
21825945,10005,0.066040,0.245972,0.946167,497
21835952,10007,0.065674,0.245483,0.944946,498
21845951,9999,0.066040,0.247681,0.945923,496
21855937,9986,0.064331,0.248779,0.946045,489
21865936,9999,0.063599,0.248901,0.945801,490
21875950,10014,0.063232,0.247314,0.950195,500
21885924,9974,0.060913,0.243408,0.949219,500
21895951,10027,0.063965,0.242065,0.946045,500
21905952,10001,0.065308,0.242187,0.946045,501
21915945,9993,0.063965,0.245972,0.942749,500
21925943,9998,0.064331,0.248535,0.940063,500
21935933,9990,0.064819,0.249878,0.938232,496
21945930,9997,0.064087,0.249268,0.936157,491
21955936,10006,0.063843,0.246704,0.935303,494
21965966,10030,0.066162,0.245117,0.936401,496
21975942,9976,0.068481,0.247925,0.938477,498
21985934,9992,0.067261,0.250122,0.938477,497
21995937,10003,0.067749,0.250366,0.938721,498
22005940,10003,0.068848,0.247437,0.939819,497
22015934,9994,0.069702,0.245117,0.944458,501
22025930,9996,0.070190,0.243042,0.946899,505
22035935,10005,0.074097,0.243286,0.947876,499
22045949,10014,0.075073,0.240845,0.949219,509
22055934,9985,0.077881,0.237671,0.950317,516
22065952,10018,0.078125,0.235596,0.952759,530
22075939,9987,0.079712,0.236816,0.952637,524
22085932,9993,0.079468,0.236328,0.949585,524
22095946,10014,0.080322,0.236450,0.946045,530
22105935,9989,0.081909,0.237305,0.944580,531
22115943,10008,0.080933,0.238647,0.945923,536
22125928,9985,0.080566,0.240479,0.943970,535
22135949,10021,0.081299,0.239990,0.942749,537
22145941,9992,0.081055,0.239258,0.944824,529
22155924,9983,0.079224,0.240356,0.949341,535
22165951,10027,0.077393,0.242676,0.950073,535
22175968,10017,0.076050,0.245605,0.948242,523
22185930,9962,0.073853,0.242798,0.949463,530
22195924,9994,0.072998,0.241577,0.946899,527
22205924,10000,0.072510,0.243774,0.947754,526
22215946,10022,0.070801,0.247070,0.949097,517
22225945,9999,0.069092,0.248535,0.947754,521
22235934,9989,0.068237,0.246094,0.945435,521
22245935,10001,0.066406,0.245728,0.943726,514
22255943,10008,0.065918,0.245239,0.943848,517
22265924,9981,0.065674,0.248291,0.942993,508
22275953,10029,0.065186,0.253662,0.940674,508
22285946,9993,0.065430,0.258545,0.941406,512
22295946,10000,0.063721,0.263794,0.940186,512
22305929,9983,0.064575,0.262085,0.938354,512
22315946,10017,0.065552,0.255981,0.937378,511
22325926,9980,0.064819,0.251587,0.941528,511
22335960,10034,0.063599,0.248657,0.943115,512
22345950,9990,0.065918,0.244873,0.947144,507
22355946,9996,0.064941,0.242554,0.945679,513
22365944,9998,0.066040,0.240723,0.945801,512
22375945,10001,0.065918,0.239746,0.947144,506
22385935,9990,0.065918,0.241333,0.946289,512
22395966,10031,0.066772,0.242310,0.946777,509
22405937,9971,0.064453,0.244263,0.942017,510
22415930,9993,0.065796,0.243530,0.937500,511
22425925,9995,0.067749,0.242187,0.932739,510
22435933,10008,0.068359,0.242554,0.931396,505
22445941,10008,0.067139,0.242554,0.933472,508
22455952,10011,0.067749,0.244019,0.942627,508
22465945,9993,0.067017,0.244751,0.942139,505
22475932,9987,0.069702,0.242676,0.940674,500
22485937,10005,0.070679,0.237549,0.939941,506
22495952,10015,0.071411,0.237549,0.942749,503
22505924,9972,0.068848,0.240845,0.944946,503
22515949,10025,0.069092,0.249756,0.948975,497
22525947,9998,0.070557,0.250977,0.949829,505
22535929,9982,0.068970,0.251099,0.947754,502
22545938,10009,0.070190,0.249268,0.945557,503
22555939,10001,0.069458,0.248779,0.945801,498
22565936,9997,0.065918,0.253540,0.949707,501
22575924,9988,0.067505,0.257813,0.941284,495
22585946,10022,0.072388,0.256104,0.940552,492
22595962,10016,0.069458,0.254028,0.944946,495
22605953,9991,0.068359,0.255005,0.944946,501
22615933,9980,0.069580,0.258545,0.943481,500
22625940,10007,0.068726,0.262939,0.942871,492
22635931,9991,0.069702,0.260620,0.942871,503
22645928,9997,0.069580,0.257935,0.945435,499
22655926,9998,0.067505,0.254883,0.947754,498
22665928,10002,0.067627,0.254395,0.948364,510
22675944,10016,0.065552,0.254150,0.955200,512
22685951,10007,0.064087,0.254761,0.955322,516
22695943,9992,0.065063,0.254150,0.951294,522
22705934,9991,0.066895,0.251709,0.950073,521
22715946,10012,0.064087,0.250244,0.949463,530
22725951,10005,0.061768,0.249878,0.946045,535
22735940,9989,0.061523,0.250488,0.937866,530
22745927,9987,0.061768,0.252197,0.933594,532
22755924,9997,0.062744,0.253174,0.931396,538
22765943,10019,0.060547,0.254028,0.931641,537
22775959,10016,0.061523,0.251709,0.930420,543
22785943,9984,0.060669,0.246460,0.932251,543
22795937,9994,0.059570,0.247314,0.930664,543
22805946,10009,0.059448,0.247192,0.929199,541
22815945,9999,0.060547,0.245728,0.929077,531
22825977,10032,0.060547,0.243774,0.929932,537
22835942,9965,0.061157,0.243042,0.932129,536
22845947,10005,0.063110,0.244995,0.933960,525
22855934,9987,0.063232,0.244507,0.935303,530
22865942,10008,0.063599,0.245850,0.939209,528
22875924,9982,0.064331,0.245972,0.941162,527
22885929,10005,0.064819,0.246704,0.942505,522
22895953,10024,0.067383,0.250732,0.943237,522
22905948,9995,0.068481,0.251587,0.943481,511
22915928,9980,0.067749,0.251831,0.944092,519
22925924,9996,0.068237,0.255493,0.943115,516
22935939,10015,0.070312,0.260376,0.942627,514
22945944,10005,0.070190,0.265015,0.945923,513
22955949,10005,0.069824,0.264893,0.946411,512
22965950,10001,0.068848,0.265259,0.944580,505
22975944,9994,0.070435,0.266602,0.945312,503
22985931,9987,0.071777,0.266846,0.944336,503
22995930,9999,0.070923,0.265015,0.946167,506
23005936,10006,0.072021,0.262329,0.950439,503
23015947,10011,0.069824,0.262085,0.951782,509
23025934,9987,0.069336,0.260254,0.950317,501
23035945,10011,0.070679,0.257935,0.946777,506
23045963,10018,0.070435,0.255615,0.945435,505
23055934,9971,0.069702,0.254761,0.940308,507
23065940,10006,0.069214,0.254639,0.935669,507
23075944,10004,0.069580,0.255371,0.935425,501
23085945,10001,0.069702,0.254272,0.933960,509
23095948,10003,0.069092,0.253296,0.931641,507
23105941,9993,0.068970,0.252808,0.932617,508
23115933,9992,0.070068,0.246338,0.934204,506
23125936,10003,0.069946,0.242798,0.935181,501
23135929,9993,0.069702,0.240845,0.937988,505
23145953,10024,0.067993,0.240967,0.939209,505
23155939,9986,0.069824,0.243896,0.938110,502
23165931,9992,0.070312,0.247314,0.937866,506
23175930,9999,0.070312,0.246094,0.939697,503
23185927,9997,0.068237,0.248169,0.941528,504
23195936,10009,0.068237,0.249878,0.942261,502
23205943,10007,0.066650,0.251465,0.940674,499
23215946,10003,0.066895,0.249390,0.937988,499
23225936,9990,0.068848,0.246704,0.935913,495
23235947,10011,0.069092,0.250732,0.939087,502
23245963,10016,0.068237,0.252808,0.941406,500
23255948,9985,0.068604,0.251343,0.943848,505
23265925,9977,0.067139,0.247070,0.946899,502
23275946,10021,0.070068,0.242065,0.949951,506
23285941,9995,0.067627,0.242676,0.951660,508
23295947,10006,0.069580,0.244019,0.953979,508
23305936,9989,0.068359,0.242187,0.957153,516
23315928,9992,0.066772,0.240479,0.957153,521
23325948,10020,0.067139,0.238403,0.955811,524
23335945,9997,0.067505,0.235718,0.955811,529
23345938,9993,0.067505,0.237427,0.956177,535
23355937,9999,0.067383,0.240112,0.954346,539
23365925,9988,0.067139,0.244629,0.953247,546
23375941,10016,0.066772,0.248779,0.950439,548
23385937,9996,0.065063,0.246826,0.945923,550
23395955,10018,0.066162,0.246094,0.944702,545
23405943,9988,0.064697,0.244873,0.944946,544
23415950,10007,0.063599,0.247192,0.943970,550
23425925,9975,0.061890,0.250122,0.944824,544
23435940,10015,0.063232,0.249390,0.940308,546
23445933,9993,0.063965,0.243286,0.940552,550
23455953,10020,0.066040,0.242798,0.945190,547
23465943,9990,0.064087,0.247314,0.951782,543
23475924,9981,0.063354,0.250000,0.954712,542
23485942,10018,0.063843,0.249146,0.954834,540
23495927,9985,0.062500,0.238159,0.954468,539
23505927,10000,0.063110,0.236206,0.953369,531
23515941,10014,0.065308,0.238159,0.951782,535
23525942,10001,0.067383,0.244995,0.949341,521
23535936,9994,0.065552,0.252075,0.949585,526
23545949,10013,0.065308,0.256348,0.944214,524
23555941,9992,0.066284,0.259521,0.940308,522
23565926,9985,0.066772,0.258667,0.938599,517
23575953,10027,0.064941,0.255859,0.936890,512
23585953,10000,0.063965,0.255249,0.937988,518
23595944,9991,0.063721,0.257446,0.940918,512
23605933,9989,0.063599,0.260132,0.942505,517
23615959,10026,0.063477,0.259155,0.942871,515
23625932,9973,0.062744,0.255737,0.945435,516
23635928,9996,0.061279,0.252686,0.944824,515
23645943,10015,0.061035,0.247314,0.943237,511
23655932,9989,0.060425,0.242798,0.943848,505
23665974,10042,0.059570,0.242920,0.943359,514
23675952,9978,0.061401,0.242310,0.941772,514
23685949,9997,0.062622,0.243408,0.942627,512
23695952,10003,0.061890,0.246094,0.940186,511
23705929,9977,0.065308,0.248047,0.938843,510
23715936,10007,0.063232,0.249512,0.939331,510
23725941,10005,0.064697,0.247437,0.932861,501
23735941,10000,0.065918,0.244263,0.928833,506
23745945,10004,0.067993,0.240967,0.928467,504
23755929,9984,0.066284,0.242432,0.930786,503
23765945,10016,0.067993,0.248413,0.937744,497
23775936,9991,0.069580,0.250244,0.938843,496
23785945,10009,0.069702,0.253174,0.940308,502
23795950,10005,0.068359,0.257568,0.941162,504
23805933,9983,0.073608,0.252808,0.938477,500
23815929,9996,0.077026,0.247314,0.936523,496
23825928,9999,0.078003,0.245483,0.942017,491
23835936,10008,0.076538,0.248169,0.947876,492
23845925,9989,0.075317,0.249512,0.951538,500
23855926,10001,0.076172,0.248657,0.949463,491
23865947,10021,0.079956,0.245605,0.946655,497
23875926,9979,0.078369,0.244751,0.950684,496
23885969,10043,0.077759,0.247314,0.951782,506
23895929,9960,0.078491,0.250854,0.950439,512
23905942,10013,0.077026,0.253052,0.947754,514
23915944,10002,0.077881,0.252686,0.943359,521
23925930,9986,0.076294,0.251831,0.940186,528
23935946,10016,0.076050,0.253418,0.941895,529
23945928,9982,0.072266,0.254639,0.942017,536
23955945,10017,0.071045,0.255249,0.939209,535
23965931,9986,0.071411,0.255737,0.939209,543
23975953,10022,0.072876,0.252319,0.938477,545
23985932,9979,0.072510,0.248535,0.938110,546
23995941,10009,0.074951,0.247559,0.937988,539
24005944,10003,0.076782,0.245239,0.940308,551
24015949,10005,0.078003,0.243408,0.942139,542
24025953,10004,0.076660,0.244629,0.945679,548
24035943,9990,0.075928,0.245117,0.946289,541
24045951,10008,0.077637,0.239014,0.941895,542
24055924,9973,0.079102,0.234131,0.940430,535
24065941,10017,0.077026,0.234741,0.940918,537
24075957,10016,0.075806,0.239014,0.945679,534
24085925,9968,0.072876,0.244995,0.949463,526
24095950,10025,0.073853,0.249390,0.946533,533
24105927,9977,0.073242,0.247925,0.945312,528
24115928,10001,0.074219,0.250000,0.945557,529
24125958,10030,0.071655,0.254883,0.946167,525
24135941,9983,0.069702,0.261475,0.946533,520
24145936,9995,0.069824,0.265381,0.946167,512
24155937,10001,0.068115,0.265503,0.947266,509
24165943,10006,0.067261,0.263428,0.946411,513
24175927,9984,0.068115,0.265503,0.947021,512
24185931,10004,0.069702,0.267822,0.948242,513
24195948,10017,0.068481,0.270264,0.950073,512
24205930,9982,0.065796,0.273560,0.953979,510
24215948,10018,0.064209,0.271240,0.955566,510
24225930,9982,0.063721,0.268677,0.954346,501
24235951,10021,0.066040,0.265869,0.952637,509
24245951,10000,0.065918,0.263306,0.950562,502
24255953,10002,0.065552,0.260986,0.951172,506
24265930,9977,0.065063,0.260498,0.945923,507
24275938,10008,0.064331,0.261597,0.942749,501
24285932,9994,0.062622,0.261597,0.942871,508
24295953,10021,0.061768,0.260864,0.939209,504
24305954,10001,0.060425,0.262329,0.934814,511
24315946,9992,0.059937,0.259399,0.926636,502
24325948,10002,0.057617,0.258057,0.925659,511
24335954,10006,0.056641,0.257080,0.927856,503
24345927,9973,0.056030,0.254639,0.930786,510
24355960,10033,0.054932,0.252075,0.933960,512
24365925,9965,0.051880,0.251221,0.934814,509
24375937,10012,0.048584,0.247437,0.938354,512
24385929,9992,0.048218,0.244019,0.937012,511
24395924,9995,0.048828,0.242065,0.935547,511
24405947,10023,0.050171,0.242310,0.933350,508
24415932,9985,0.052002,0.245972,0.930664,506
24425924,9992,0.053711,0.253784,0.926147,499
24435940,10016,0.053711,0.258057,0.925659,500
24445936,9996,0.055908,0.261597,0.921753,504
24455940,10004,0.058472,0.262451,0.920410,505
24465926,9986,0.060425,0.262573,0.920288,507
24475933,10007,0.061157,0.263184,0.921997,507
24485951,10018,0.065186,0.265381,0.929565,508
24495934,9983,0.066162,0.266968,0.933594,509
24505934,10000,0.066406,0.266357,0.939453,513
24515943,10009,0.066528,0.261963,0.943481,519
24525925,9982,0.068726,0.257813,0.947144,518
24535930,10005,0.070923,0.255005,0.953125,520
24545950,10020,0.071411,0.256836,0.955811,535
24555933,9983,0.071167,0.258911,0.955811,533
24565928,9995,0.072266,0.259277,0.952026,538
24575977,10049,0.075806,0.258911,0.949463,539
24585926,9949,0.074097,0.258789,0.945068,550
24595929,10003,0.077271,0.265503,0.941650,548
24605941,10012,0.077393,0.268188,0.941895,550
24615940,9999,0.074951,0.268555,0.945068,548
24625936,9996,0.073730,0.265991,0.946777,551
24635942,10006,0.069946,0.261353,0.945801,550
24645938,9996,0.069702,0.248169,0.938110,544
24655950,10012,0.070435,0.241821,0.934326,547
24665954,10004,0.068359,0.238647,0.935059,547
24675952,9998,0.068481,0.240601,0.936279,536
24685926,9974,0.067017,0.245605,0.937134,534
24695944,10018,0.062134,0.246094,0.938232,530
24705944,10000,0.060547,0.239868,0.935059,531
24715929,9985,0.060791,0.234009,0.933105,526
24725940,10011,0.061890,0.231934,0.931519,526
24735953,10013,0.062622,0.238281,0.932983,529
24745935,9982,0.061035,0.250366,0.936768,528
24755930,9995,0.062500,0.271484,0.947388,516
24765930,10000,0.059937,0.271240,0.950439,520
24775961,10031,0.059326,0.268066,0.949585,503
24785954,9993,0.060303,0.262329,0.947388,519
24795938,9984,0.061890,0.261108,0.944946,509
24805929,9991,0.063965,0.265991,0.938232,514
24815931,10002,0.064941,0.271362,0.939697,511
24825952,10021,0.065308,0.276978,0.941406,510
24835940,9988,0.066284,0.276611,0.943237,505
24845937,9997,0.064453,0.271973,0.941406,512
24855953,10016,0.064941,0.266846,0.937744,503
24865952,9999,0.067871,0.259399,0.936035,512
24875950,9998,0.067261,0.256104,0.938965,507
24885932,9982,0.065552,0.254639,0.942017,515
24895943,10011,0.067261,0.252441,0.943726,516
24905943,10000,0.068970,0.244751,0.946533,516
24915933,9990,0.067383,0.229980,0.951782,515
24925951,10018,0.068604,0.230835,0.953857,506
24935960,10009,0.068237,0.235352,0.958984,514
24945926,9966,0.068237,0.241699,0.960693,513
24955945,10019,0.069336,0.240967,0.961182,513
24965947,10002,0.067993,0.239380,0.959839,504
24975932,9985,0.069824,0.241943,0.956055,512
24985933,10001,0.068481,0.249634,0.954468,510
24995932,9999,0.066895,0.257202,0.956299,507
25005948,10016,0.066162,0.266357,0.954956,500
25015951,10003,0.065796,0.271118,0.950806,508
25025948,9997,0.069214,0.272095,0.936768,508
25035937,9989,0.070679,0.271851,0.931763,506
25045946,10009,0.070435,0.274048,0.929443,498
25055949,10003,0.072021,0.269653,0.930298,504
25065945,9996,0.071411,0.268188,0.933472,506
25075929,9984,0.067139,0.266113,0.938477,504
25085924,9995,0.072388,0.259888,0.939087,503
25095949,10025,0.075195,0.257080,0.936646,505
25105940,9991,0.078491,0.255737,0.938110,504
25115948,10008,0.076172,0.253906,0.941528,506
25125942,9994,0.074341,0.245483,0.945068,509
25135924,9982,0.070679,0.226318,0.946533,510
25145924,10000,0.069336,0.224854,0.946655,517
25155946,10022,0.069214,0.226074,0.946411,523
25165952,10006,0.067627,0.228516,0.946167,528
25175939,9987,0.068237,0.233765,0.942871,527
25185935,9996,0.070923,0.241089,0.940063,542
25195944,10009,0.066528,0.237183,0.940674,543
25205935,9991,0.064087,0.232666,0.942139,551
25215935,10000,0.060913,0.225830,0.945679,554
25225949,10014,0.060181,0.223877,0.950439,557
25235938,9989,0.058105,0.227661,0.955688,559
25245945,10007,0.058716,0.244385,0.959473,552
25255928,9983,0.058105,0.247070,0.961914,559
25265938,10010,0.055664,0.248047,0.961914,557
25275936,9998,0.052490,0.247681,0.961670,555
25285948,10012,0.050659,0.248291,0.959839,554
25295934,9986,0.046265,0.256348,0.957520,548
25305935,10001,0.045044,0.264648,0.956543,544
25315938,10003,0.046265,0.276978,0.954712,539
25325929,9991,0.046875,0.281250,0.950562,538
25335938,10009,0.044312,0.290649,0.949463,535
25345938,10000,0.043945,0.282349,0.946045,527
25355952,10014,0.037842,0.280884,0.941772,527
25365965,10013,0.040283,0.281250,0.937378,521
25375924,9959,0.036743,0.278076,0.933228,519
25385932,10008,0.038330,0.275269,0.930054,516
25395949,10017,0.037964,0.271973,0.931885,509
25405949,10000,0.034424,0.267456,0.929199,514
25415925,9976,0.034912,0.261841,0.924805,514
25425948,10023,0.034912,0.251709,0.918335,506
25435943,9995,0.036377,0.243286,0.911133,507
25445947,10004,0.039429,0.237793,0.906738,515
25455951,10004,0.040649,0.238403,0.909180,515
25465953,10002,0.041870,0.246094,0.923218,516
25475933,9980,0.041138,0.246948,0.928833,515
25485935,10002,0.041626,0.246582,0.938843,513
25495953,10018,0.042603,0.240845,0.944458,509
25505935,9982,0.046509,0.234863,0.949707,514
25515964,10029,0.043579,0.233276,0.950317,512
25525944,9980,0.043213,0.237427,0.952026,511
25535932,9988,0.045410,0.241333,0.954468,509
25545932,10000,0.045166,0.245117,0.957275,508
25555978,10046,0.043579,0.250488,0.959106,507
25565936,9958,0.041626,0.258789,0.958740,500
25575942,10006,0.039551,0.265503,0.947021,497
25585928,9986,0.038818,0.263428,0.942627,499
25595928,10000,0.040039,0.265991,0.940186,501
25605950,10022,0.039185,0.272583,0.941772,501
25615929,9979,0.038452,0.281006,0.939819,504
25625928,9999,0.038818,0.284424,0.937744,502
25635934,10006,0.039917,0.279907,0.937500,498
25645938,10004,0.041260,0.276611,0.937622,504
25655936,9998,0.045044,0.271362,0.939087,504
25665951,10015,0.045654,0.270386,0.942993,503
25675924,9973,0.046265,0.269653,0.949585,501
25685941,10017,0.050049,0.263794,0.955444,503
25695942,10001,0.049683,0.260620,0.963623,508
25705933,9991,0.047974,0.257202,0.966309,508
25715962,10029,0.049194,0.253784,0.966309,505
25725933,9971,0.049194,0.246582,0.959229,505
25735933,10000,0.056396,0.231812,0.946411,506
25745936,10003,0.056152,0.234253,0.941040,504
25755978,10042,0.058105,0.243164,0.935059,499
25765961,9983,0.058228,0.250854,0.932007,505
25775943,9982,0.057251,0.253296,0.931885,505
25785950,10007,0.056152,0.240356,0.927734,506
25795936,9986,0.058960,0.238403,0.924927,509
25805933,9997,0.060669,0.239746,0.922974,513
25815927,9994,0.062988,0.241699,0.923340,516
25825944,10017,0.062378,0.240723,0.929810,518
25835946,10002,0.060791,0.241211,0.937988,524
25845944,9998,0.062012,0.235718,0.944824,532
25855934,9990,0.058716,0.232056,0.949707,532
25865951,10017,0.057373,0.231689,0.951660,540
25875935,9984,0.057495,0.233276,0.953979,542
25885947,10012,0.057739,0.239624,0.954712,544
25895943,9996,0.053833,0.253906,0.955811,544
25905935,9992,0.051270,0.255371,0.949951,538
25915944,10009,0.051392,0.255493,0.943726,540
25925938,9994,0.051147,0.259521,0.941772,541
25935945,10007,0.049194,0.265137,0.941040,539
25945933,9988,0.046875,0.273560,0.938477,538
25955941,10008,0.046997,0.277832,0.930420,536
25965938,9997,0.046387,0.274902,0.928711,531
25975937,9999,0.046021,0.273071,0.928101,527
25985955,10018,0.047607,0.271973,0.928589,525
25995945,9990,0.048828,0.269409,0.931274,532
26005945,10000,0.048706,0.266235,0.943359,519
26015952,10007,0.047363,0.263428,0.950073,524
26025942,9990,0.047485,0.259033,0.954468,518
26035939,9997,0.048462,0.254150,0.959229,516
26045927,9988,0.047729,0.250610,0.961548,518
26055931,10004,0.047974,0.249634,0.958740,508
26065925,9994,0.051147,0.249878,0.956299,511
26075939,10014,0.049805,0.253418,0.957520,509
26085951,10012,0.048828,0.261963,0.956177,499
26095941,9990,0.049683,0.270142,0.951538,497
26105946,10005,0.049927,0.272461,0.945557,499
26115936,9990,0.049927,0.273193,0.935181,505
26125928,9992,0.051147,0.271484,0.931396,502
26135927,9999,0.051392,0.271118,0.928589,502
26145940,10013,0.051636,0.268433,0.929321,502
26155948,10008,0.053833,0.267212,0.929321,502
26165940,9992,0.053101,0.265625,0.930298,501
26175933,9993,0.056396,0.261719,0.931641,502
26185937,10004,0.056641,0.260010,0.931030,504
26195976,10039,0.058960,0.255249,0.931763,501
26205942,9966,0.058594,0.251465,0.930786,498
26215951,10009,0.060547,0.247559,0.930542,500
26225946,9995,0.064697,0.243042,0.932617,495
26235936,9990,0.064575,0.243164,0.934814,501
26245950,10014,0.065674,0.241333,0.935547,497
26255928,9978,0.067383,0.238892,0.938232,495
26265946,10018,0.067505,0.235474,0.940796,495
26275949,10003,0.068359,0.231445,0.944092,495
26285929,9980,0.068604,0.234131,0.950806,489
26295927,9998,0.070190,0.237793,0.954224,491
26305933,10006,0.068970,0.241455,0.956787,487
26315936,10003,0.068115,0.244629,0.954590,492
26325930,9994,0.067261,0.248413,0.953613,491
26335935,10005,0.064087,0.252563,0.951416,489
26345950,10015,0.062622,0.256470,0.947754,488
26355937,9987,0.061157,0.262939,0.947388,483
26365963,10026,0.058838,0.267456,0.946045,481
26375942,9979,0.056519,0.268921,0.944580,483
26385928,9986,0.055054,0.269165,0.939209,484
26395948,10020,0.053955,0.266968,0.943848,487
26405941,9993,0.051392,0.267090,0.947021,486
26415943,10002,0.050659,0.266479,0.949829,484
26425927,9984,0.050415,0.264771,0.953369,481
26435939,10012,0.049316,0.261230,0.954102,492
26445932,9993,0.051025,0.255371,0.951538,488
26455939,10007,0.051636,0.256958,0.951782,499
26465926,9987,0.051514,0.260010,0.953247,503
26475927,10001,0.050415,0.261230,0.951172,508
26485948,10021,0.049438,0.258911,0.952637,507
26495952,10004,0.049438,0.254272,0.955566,512
26505951,9999,0.047363,0.253174,0.953857,525
26515946,9995,0.048584,0.253662,0.948730,528
26525933,9987,0.047852,0.255005,0.946289,527
26535945,10012,0.048828,0.256348,0.944214,535
26545932,9987,0.049805,0.257324,0.942017,542
26555949,10017,0.050659,0.260376,0.934692,540
26565954,10005,0.049927,0.260986,0.930664,542
26575936,9982,0.051392,0.261108,0.929687,542
26585936,10000,0.051758,0.259644,0.930786,538
26595942,10006,0.051514,0.259277,0.932251,541
26605937,9995,0.052490,0.253052,0.927368,542
26615974,10037,0.054443,0.250366,0.928101,538
26625954,9980,0.055664,0.249023,0.929199,532
26635929,9975,0.056274,0.249268,0.932495,535
26645946,10017,0.054443,0.250244,0.935791,538
26655940,9994,0.056641,0.251953,0.937988,535
26665950,10010,0.057007,0.245972,0.939819,532
26675932,9982,0.057129,0.241089,0.938843,530
26685949,10017,0.058105,0.238647,0.937500,524
26695927,9978,0.059692,0.238892,0.937256,521
26705931,10004,0.060181,0.242798,0.937744,511
26715937,10006,0.059082,0.254517,0.939331,509
26725948,10011,0.060791,0.257080,0.937744,512
26735950,10002,0.062012,0.255493,0.938354,510
26745927,9977,0.060425,0.254639,0.939575,500
26755933,10006,0.061157,0.253296,0.942993,501
26765939,10006,0.059204,0.255127,0.945557,501
26775926,9987,0.060303,0.259766,0.950073,498
26785924,9998,0.060425,0.259399,0.952637,506
26795949,10025,0.060425,0.258789,0.954834,502
26805972,10023,0.057983,0.257813,0.955811,502
26815934,9962,0.057007,0.258179,0.957520,498
26825934,10000,0.054687,0.258545,0.956299,500
26835931,9997,0.053589,0.258301,0.953369,502
26845942,10011,0.052490,0.258301,0.952881,500
26855938,9996,0.051147,0.260254,0.950195,497
26865940,10002,0.049438,0.263184,0.947998,493
26875941,10001,0.048462,0.265381,0.943970,501
26885946,10005,0.046387,0.264648,0.941040,498
26895925,9979,0.046753,0.262085,0.938599,500
26905931,10006,0.048096,0.260376,0.940186,499
26915950,10019,0.047363,0.260254,0.944092,499
26925936,9986,0.047363,0.260986,0.943115,500
26935938,10002,0.049316,0.257690,0.945923,501
26945936,9998,0.049805,0.255493,0.945801,491
26955937,10001,0.051880,0.253174,0.943726,498
26965934,9997,0.054199,0.250244,0.946289,498
26975947,10013,0.053467,0.248169,0.952148,490
26985925,9978,0.053467,0.248169,0.956421,500
26995930,10005,0.053345,0.248047,0.956543,499
27005948,10018,0.052002,0.243530,0.956055,498
27015951,10003,0.050537,0.244019,0.954834,499
27025937,9986,0.051758,0.246338,0.950806,493
27035939,10002,0.052856,0.249023,0.943359,497
27045953,10014,0.053589,0.250000,0.937378,500
27055934,9981,0.052612,0.251953,0.937378,498
27065937,10003,0.053101,0.257935,0.935669,498
27075951,10014,0.053223,0.261841,0.934204,496
27085928,9977,0.054443,0.262085,0.933228,496
27095950,10022,0.055298,0.250977,0.930420,493
27105934,9984,0.055908,0.250244,0.934937,493
27115929,9995,0.056763,0.254028,0.938110,506
27125951,10022,0.057129,0.256226,0.941895,506
27135937,9986,0.056885,0.255371,0.944946,510
27145942,10005,0.056885,0.252441,0.946777,516
27155926,9984,0.056885,0.248291,0.947388,521
27165953,10027,0.057007,0.250244,0.944336,522
27175928,9975,0.056152,0.251221,0.940430,532
27185945,10017,0.058350,0.253174,0.937622,535
27195948,10003,0.057617,0.254150,0.936890,537
27205966,10018,0.057129,0.257080,0.937256,544
27215926,9960,0.056152,0.256836,0.937744,545
27225927,10001,0.054443,0.257324,0.935791,541
27235950,10023,0.056274,0.254639,0.931763,548
27245926,9976,0.058105,0.253540,0.931396,546
27255928,10002,0.060181,0.254150,0.933960,547
27265936,10008,0.057251,0.259644,0.938354,545
27275930,9994,0.058350,0.258423,0.938232,540
27285924,9994,0.057251,0.252686,0.941772,538
27295936,10012,0.055542,0.249512,0.943237,540
27305939,10003,0.057617,0.247559,0.942749,535
27315940,10001,0.058105,0.251099,0.940674,531
27325940,10000,0.056763,0.251831,0.942993,522
27335928,9988,0.055786,0.250122,0.948853,523
27345951,10023,0.050415,0.250366,0.952515,515
27355939,9988,0.050537,0.252075,0.952271,518
27365940,10001,0.050659,0.254028,0.953247,507
27375956,10016,0.050537,0.254272,0.947632,511
27385931,9975,0.047974,0.256348,0.944336,508
27395935,10004,0.046143,0.259888,0.943115,508
27405934,9999,0.044922,0.263306,0.939575,505
27415950,10016,0.044434,0.266235,0.935791,502
27425941,9991,0.043701,0.267944,0.934448,499
27435927,9986,0.044678,0.268921,0.934692,497
27445941,10014,0.045898,0.270508,0.935059,502
27455951,10010,0.047363,0.267944,0.933716,491
27465939,9988,0.049194,0.264526,0.934570,492
27475928,9989,0.048950,0.261353,0.934082,501
27485929,10001,0.051636,0.254150,0.937012,500
27495949,10020,0.050293,0.250488,0.944336,499
27505947,9998,0.048950,0.248047,0.950073,497
27515927,9980,0.047852,0.243652,0.954834,499
27525942,10015,0.048096,0.239746,0.958130,495
27535942,10000,0.048218,0.234741,0.965332,495
27545928,9986,0.049072,0.239258,0.967285,497
27555946,10018,0.047363,0.246460,0.968262,502
27565926,9980,0.044189,0.252808,0.964355,501
27575952,10026,0.042236,0.258423,0.957764,500
27585946,9994,0.041748,0.262329,0.937012,499
27595936,9990,0.043701,0.273804,0.925293,497
27605951,10015,0.045776,0.283813,0.915771,492
27615933,9982,0.047974,0.295776,0.911621,491
27625929,9996,0.049927,0.305420,0.912231,490
27635934,10005,0.049805,0.308716,0.917114,490
27645951,10017,0.050537,0.301270,0.932129,490
27655947,9996,0.047729,0.292969,0.936401,492
27665942,9995,0.045410,0.281738,0.939575,490
27675947,10005,0.044556,0.268677,0.944458,487
27685940,9993,0.045410,0.254883,0.944580,486
27695941,10001,0.045044,0.246338,0.947388,487
27705928,9987,0.043945,0.243530,0.954712,488
27715951,10023,0.039185,0.241577,0.958862,482
27725937,9986,0.039063,0.239990,0.955811,489
27735937,10000,0.041748,0.244141,0.954834,487
27745927,9990,0.039063,0.240967,0.953003,499
27755946,10019,0.029541,0.235352,0.956177,502
27765944,9998,0.030518,0.239990,0.957397,502
27775928,9984,0.028076,0.232544,0.948242,515
27785947,10019,0.035400,0.241455,0.942627,514
27795952,10005,0.035034,0.235962,0.934326,521
27805950,9998,0.029907,0.256836,0.948364,525
27815940,9990,0.026855,0.268311,0.958130,531
27825954,10014,0.021118,0.269409,0.962524,537
27835939,9985,0.019409,0.263306,0.955811,538
27845949,10010,0.023315,0.254761,0.944580,539
27855934,9985,0.027100,0.250244,0.931641,540
27865928,9994,0.035156,0.262451,0.912476,540
27875936,10008,0.040161,0.269409,0.904663,536
27885937,10001,0.042114,0.280762,0.906860,536
27895934,9997,0.038452,0.287231,0.910645,527
27905933,9999,0.041992,0.288696,0.912842,527
27915934,10001,0.050049,0.270508,0.909424,534
27925933,9999,0.058594,0.268066,0.913574,532
27935929,9996,0.063477,0.269775,0.919678,526
27945936,10007,0.067627,0.275269,0.929321,527
27955930,9994,0.069092,0.279541,0.943970,523
27965950,10020,0.067261,0.280518,0.958496,520
27975945,9995,0.064209,0.264160,0.970825,516
27985934,9989,0.067993,0.250732,0.961670,514
27995949,10015,0.069702,0.250244,0.952515,510
28005924,9975,0.075562,0.253540,0.957520,506
28015929,10005,0.071411,0.265991,0.959717,505
28025966,10037,0.062500,0.297729,0.963257,502
28035957,9991,0.068481,0.305420,0.960327,499
28045946,9989,0.062134,0.295898,0.947510,494
28055947,10001,0.069946,0.284546,0.941040,498
28065939,9992,0.066040,0.279541,0.926758,496
28075929,9990,0.078125,0.274780,0.929077,495
28085928,9999,0.066528,0.304688,0.934570,497
28095943,10015,0.063843,0.302612,0.932983,487
28105927,9984,0.061523,0.296509,0.916870,490
28115945,10018,0.063110,0.283691,0.917847,496
28125937,9992,0.061646,0.274292,0.924316,490
28135926,9989,0.053711,0.274292,0.938110,491
28145927,10001,0.050537,0.273193,0.942993,487
28155943,10016,0.055298,0.263794,0.942505,487
28165932,9989,0.062866,0.254639,0.941406,487
28175945,10013,0.057495,0.244751,0.938354,479
28185950,10005,0.071289,0.244873,0.944336,489
28195943,9993,0.073975,0.262573,0.942627,485
28205928,9985,0.063232,0.263062,0.938477,475
28215934,10006,0.071167,0.264526,0.930908,480
28225936,10002,0.071533,0.262207,0.933105,473
28235955,10019,0.073730,0.261108,0.926636,478
28245930,9975,0.090332,0.257202,0.920044,478
28255925,9995,0.094727,0.257813,0.922974,477
28265940,10015,0.093506,0.258545,0.924316,471
28275932,9992,0.095703,0.259399,0.916138,475
28285928,9996,0.098755,0.261108,0.933105,468
28295938,10010,0.088745,0.267944,0.918579,471
28305952,10014,0.104004,0.254517,0.921631,468
28315947,9995,0.097046,0.240479,0.920776,474
28325948,10001,0.100830,0.231934,0.921021,473
28335930,9982,0.099487,0.225098,0.926025,472
28345925,9995,0.097290,0.233276,0.918945,474
28355935,10010,0.095581,0.246948,0.932007,476
28365928,9993,0.099609,0.248169,0.927124,476
28375953,10025,0.102295,0.243530,0.936768,480
28385935,9982,0.093018,0.239746,0.938843,479
28395925,9990,0.093506,0.241577,0.944458,488
28405933,10008,0.094604,0.255249,0.958862,494
28415952,10019,0.093994,0.256714,0.955322,499
28425937,9985,0.100464,0.251343,0.948975,502
28435940,10003,0.103394,0.250977,0.942505,505
28445929,9989,0.104126,0.256348,0.938232,511
28455952,10023,0.104980,0.270020,0.936035,508
28465945,9993,0.103027,0.292847,0.940186,508
28475946,10001,0.101440,0.297363,0.941650,521
28485936,9990,0.095215,0.294312,0.942993,524
28495950,10014,0.099121,0.280518,0.936523,527
28505936,9986,0.101074,0.278564,0.935913,528
28515950,10014,0.098877,0.279785,0.943237,529
28525935,9985,0.091064,0.285034,0.947632,528
28535930,9995,0.088989,0.286865,0.946167,529
28545947,10017,0.086548,0.284424,0.941406,528
28555936,9989,0.083862,0.279419,0.936523,523
28565943,10007,0.080811,0.275024,0.934326,522
28575933,9990,0.074341,0.275391,0.941162,527
28585931,9998,0.071533,0.281860,0.939697,524
28595952,10021,0.075439,0.284546,0.938965,524
28605967,10015,0.075684,0.282227,0.942139,529
28615953,9986,0.076294,0.276367,0.945557,516
28625938,9985,0.072144,0.276367,0.950684,523
28635946,10008,0.074707,0.271729,0.951294,521
28645941,9995,0.069214,0.277954,0.955566,519
28655931,9990,0.071899,0.272461,0.952759,518
28665949,10018,0.070923,0.282837,0.956177,516
28675953,10004,0.065552,0.280518,0.948120,515
28685935,9982,0.068115,0.283325,0.941895,512
28695925,9990,0.076660,0.288940,0.943726,504
28705932,10007,0.072388,0.292847,0.942627,509
28715934,10002,0.076904,0.302368,0.943970,507
28725932,9998,0.073120,0.295654,0.937134,499
28735940,10008,0.075317,0.292236,0.937012,508
28745939,9999,0.080933,0.286255,0.934448,507
28755934,9995,0.073853,0.285889,0.936035,509
28765934,10000,0.074463,0.288940,0.938232,508
28775944,10010,0.074097,0.292603,0.938599,503
28785942,9998,0.075195,0.291260,0.934814,509
28795950,10008,0.076782,0.281738,0.927246,510
28805932,9982,0.080811,0.275269,0.922241,512
28815938,10006,0.086914,0.270874,0.927246,514
28825943,10005,0.086914,0.269043,0.933594,512
28835944,10001,0.082397,0.266235,0.937378,513
28845930,9986,0.082397,0.259399,0.939209,513
28855953,10023,0.079102,0.254883,0.942871,507
28865945,9992,0.075439,0.253906,0.945679,515
28875933,9988,0.072021,0.256104,0.943481,511
28885945,10012,0.070801,0.260254,0.935791,516
28895952,10007,0.070068,0.261475,0.926392,506
28905924,9972,0.068359,0.263306,0.929199,512
28915933,10009,0.069214,0.266235,0.932983,507
28925928,9995,0.067993,0.270874,0.937622,507
28935929,10001,0.067871,0.273071,0.941040,501
28945935,10006,0.066040,0.273315,0.942627,509
28955939,10004,0.062256,0.276489,0.941895,508
28965947,10008,0.060425,0.280640,0.939819,504
28975931,9984,0.059082,0.285278,0.937866,505
28985926,9995,0.056030,0.289551,0.937012,505
28995953,10027,0.053345,0.293701,0.936035,501
29005928,9975,0.052612,0.303955,0.935059,502
29015927,9999,0.050537,0.304688,0.934570,503
29025942,10015,0.050903,0.304443,0.934448,502
29035937,9995,0.049683,0.303833,0.935181,505
29045981,10044,0.050537,0.303589,0.941772,507
29055947,9966,0.047363,0.301514,0.945801,512
29065935,9988,0.052612,0.301880,0.944092,516
29075934,9999,0.056885,0.299438,0.946045,513
29085939,10005,0.058105,0.297974,0.950439,524
29095931,9992,0.058105,0.297852,0.949829,530
29105926,9995,0.060547,0.298584,0.942871,532
29115945,10019,0.063354,0.300659,0.930542,531
29125943,9998,0.066406,0.302246,0.922119,532
29135931,9988,0.068970,0.307129,0.918335,538
29145944,10013,0.067749,0.311646,0.914429,541
29155931,9987,0.066895,0.313843,0.914307,544
29165952,10021,0.065796,0.315674,0.915039,542
29175947,9995,0.068481,0.301758,0.917358,540
29185927,9980,0.064331,0.294800,0.920166,533
29195952,10025,0.062622,0.289429,0.919067,542
29205942,9990,0.068481,0.286499,0.915771,535
29215942,10000,0.065063,0.290039,0.913330,536
29225945,10003,0.067993,0.296387,0.909546,534
29235965,10020,0.072754,0.300049,0.909912,532
29245953,9988,0.072998,0.304321,0.908569,530
29255937,9984,0.076904,0.310425,0.912476,523
29265946,10009,0.074829,0.309814,0.912231,524
29275935,9989,0.076660,0.307739,0.911377,527
29285930,9995,0.081421,0.298828,0.898804,521
29295938,10008,0.085571,0.300659,0.896240,518
29305938,10000,0.087402,0.305176,0.896606,513
29315928,9990,0.089722,0.308472,0.899536,511
29325940,10012,0.088867,0.308105,0.906128,506
29335934,9994,0.091064,0.301758,0.918579,506
29345930,9996,0.093384,0.296143,0.920654,507
29355940,10010,0.092773,0.300781,0.927612,506
29365948,10008,0.089355,0.295288,0.929199,508
29375933,9985,0.091797,0.294189,0.929077,504
29385932,9999,0.088257,0.291382,0.930298,503
29395951,10019,0.083984,0.287720,0.931763,503
29405954,10003,0.083496,0.291382,0.935181,504
29415942,9988,0.082031,0.298218,0.935913,501
29425952,10010,0.078491,0.311890,0.934326,493
29435950,9998,0.076660,0.314209,0.922974,499
29445924,9974,0.076660,0.318359,0.904053,503
29455932,10008,0.073730,0.316284,0.895874,502
29465935,10003,0.073120,0.325928,0.890259,494
29475935,10000,0.066040,0.334473,0.890625,495
29485937,10002,0.066528,0.329956,0.895508,494
29495943,10006,0.058228,0.334839,0.901978,501
29505934,9991,0.060547,0.325317,0.901245,502
29515948,10014,0.055298,0.323730,0.907593,503
29525949,10001,0.058228,0.314331,0.909668,501
29535939,9990,0.057007,0.314331,0.915039,505
29545938,9999,0.055908,0.315186,0.922729,496
29555933,9995,0.053223,0.313477,0.940430,503
29565927,9994,0.052979,0.309326,0.943359,504
29575926,9999,0.055054,0.305420,0.942139,496
29585941,10015,0.056641,0.303101,0.941162,503
29595940,9999,0.057617,0.302490,0.940186,496
29605942,10002,0.058960,0.305542,0.938721,500
29615947,10005,0.059692,0.312256,0.941772,504
29625936,9989,0.058228,0.312256,0.937134,505
29635932,9996,0.057983,0.309082,0.928345,508
29645947,10015,0.058960,0.306763,0.918945,504
29655929,9982,0.061401,0.304443,0.909668,501
29665950,10021,0.064697,0.304565,0.903442,506
29675946,9996,0.064575,0.318237,0.908447,507
29685930,9984,0.062134,0.318115,0.909180,505
29695924,9994,0.065796,0.325073,0.910767,498
29705951,10027,0.068481,0.318237,0.911499,505
29715949,9998,0.074463,0.306641,0.910156,508
29725937,9988,0.077881,0.296875,0.921875,506
29735945,10008,0.080444,0.298584,0.930054,503
29745949,10004,0.083374,0.301880,0.937988,507
29755972,10023,0.086548,0.300659,0.942871,516
29765937,9965,0.089600,0.297729,0.942627,513
29775924,9987,0.096924,0.284180,0.936401,516
29785952,10028,0.099365,0.285400,0.935181,521
29795939,9987,0.100952,0.276733,0.928101,524
29805935,9996,0.104492,0.278564,0.928711,531
29815949,10014,0.099976,0.280518,0.930298,531
29825934,9985,0.104370,0.278320,0.931885,536
29835943,10009,0.099731,0.278198,0.930542,536
29845926,9983,0.101685,0.277832,0.928833,529
29855932,10006,0.100708,0.274902,0.927368,528
29865947,10015,0.098022,0.272827,0.926880,538
29875950,10003,0.094482,0.272461,0.924438,534
29885943,9993,0.092041,0.276855,0.927979,535
29895925,9982,0.091064,0.278931,0.926636,530
29905926,10001,0.089844,0.281128,0.928101,532
29915953,10027,0.088379,0.285156,0.932983,528
29925944,9991,0.083618,0.289917,0.940552,528
29935929,9985,0.077881,0.292969,0.939819,517
29945950,10021,0.076538,0.278687,0.941040,522
29955937,9987,0.074707,0.270996,0.938477,520
29965931,9994,0.075806,0.267700,0.935913,516
29975950,10019,0.076904,0.270874,0.937988,516
29985930,9980,0.074951,0.280762,0.940552,516
29995945,10015,0.075439,0.293457,0.935547,515
30005930,9985,0.076904,0.291870,0.930908,509
30015946,10016,0.079224,0.286499,0.925171,513
30025949,10003,0.082153,0.281372,0.921997,514
30035928,9979,0.084473,0.279297,0.919800,516
30046715,10787,0.086792,0.281860,0.929321,514
30055950,9235,0.088257,0.280884,0.941040,510
30065936,9986,0.086670,0.279541,0.952271,516
30075954,10018,0.086670,0.277100,0.959106,513
30085950,9996,0.088501,0.272095,0.963013,512
30095940,9990,0.089111,0.269287,0.966675,514
30105946,10006,0.088989,0.263550,0.968384,510
30115934,9988,0.090332,0.262451,0.966919,510
30125931,9997,0.089600,0.268799,0.963379,503
30135940,10009,0.087646,0.269897,0.957275,506
30149045,13105,0.087769,0.278076,0.940186,501
30155947,6902,0.000000,0.000000,0.000000,508
30165958,10011,0.084839,0.285767,0.933350,510
30175935,9977,0.083984,0.286621,0.927368,503
30185939,10004,0.082031,0.285645,0.926758,512
30195942,10003,0.081543,0.284668,0.927124,512
30205926,9984,0.080200,0.280396,0.927490,511
30215929,10003,0.077393,0.272705,0.932129,511
30225948,10019,0.079102,0.265381,0.930664,512
30235949,10001,0.079224,0.250488,0.927612,504
30245932,9983,0.076660,0.239624,0.937012,510
30255953,10021,0.078491,0.242920,0.937134,502
30265924,9971,0.075806,0.257324,0.944824,508
30275949,10025,0.069580,0.236572,0.945801,499
30285947,9998,0.071777,0.232422,0.939575,502
30295951,10004,0.081299,0.252319,0.935547,503
30305936,9985,0.075073,0.268433,0.928223,504
30315952,10016,0.068970,0.268311,0.927490,506
30325951,9999,0.079590,0.280396,0.934082,502
30335949,9998,0.073242,0.291504,0.925171,502
30345941,9992,0.073242,0.293701,0.920654,500
30355939,9998,0.076904,0.284424,0.923218,500
30365965,10026,0.074219,0.276855,0.930176,494
30375941,9976,0.074219,0.291870,0.933960,495
30385947,10006,0.077271,0.291016,0.936035,495
30395936,9989,0.077148,0.285278,0.941406,495
30405950,10014,0.077271,0.277954,0.945190,496
30415926,9976,0.077393,0.275146,0.950073,493
30425925,9999,0.077515,0.277222,0.954590,497
30435933,10008,0.072632,0.271851,0.960571,497
30445950,10017,0.074097,0.271729,0.956421,503
30455930,9980,0.074219,0.269653,0.955566,500
30465930,10000,0.073242,0.270020,0.950562,513
30475940,10010,0.072144,0.274292,0.943726,509
30485926,9986,0.071777,0.278687,0.934570,518
30495934,10008,0.072876,0.280762,0.928345,517
30505939,10005,0.074219,0.289307,0.921509,530
30515937,9998,0.068481,0.282959,0.925537,531
30525927,9990,0.062866,0.283936,0.920288,531
30535936,10009,0.067017,0.285034,0.913330,523
30545938,10002,0.069946,0.292847,0.916138,523
30555930,9992,0.066284,0.277832,0.921509,530
30565947,10017,0.067505,0.269287,0.924927,528
30575951,10004,0.068115,0.270996,0.926880,522
30585931,9980,0.069336,0.279175,0.923218,522
30595947,10016,0.064819,0.273926,0.931396,520
30605935,9988,0.067505,0.275269,0.929565,517
30615944,10009,0.069092,0.274170,0.929077,517
30625954,10010,0.067993,0.270630,0.929321,509
30635951,9997,0.067871,0.267334,0.930664,513
30645945,9994,0.067749,0.268066,0.930786,514
30655939,9994,0.072388,0.272705,0.932007,511
30665942,10003,0.068604,0.273071,0.935913,508
30675944,10002,0.066895,0.273926,0.934937,511
30685936,9992,0.071045,0.278198,0.932861,513
30695946,10010,0.072754,0.283081,0.927246,511
30705939,9993,0.074097,0.279785,0.927734,511
30715940,10001,0.071289,0.280396,0.928955,502
30725962,10022,0.070679,0.285645,0.928345,511
30735938,9976,0.065796,0.281372,0.935547,508
30745935,9997,0.064575,0.278076,0.938843,507
30755930,9995,0.069824,0.298218,0.935425,505
30765939,10009,0.065796,0.292603,0.942871,506
30775924,9985,0.062500,0.285034,0.942261,499
30785942,10018,0.055298,0.283447,0.945557,502
30795944,10002,0.062988,0.281006,0.941162,506
30805944,10000,0.060913,0.281616,0.941528,507
30815937,9993,0.058472,0.290771,0.944336,506
30825925,9988,0.057007,0.292236,0.941895,496
30835932,10007,0.058716,0.291016,0.935059,505
30845945,10013,0.056763,0.287842,0.934570,505
30855928,9983,0.056030,0.285034,0.932129,493
30865949,10021,0.053955,0.284180,0.929810,506
30875926,9977,0.053101,0.283569,0.930054,505
30885934,10008,0.054077,0.281006,0.930176,503
30895940,10006,0.052856,0.281982,0.931396,502
30905935,9995,0.052979,0.283447,0.927490,503
30915942,10007,0.053833,0.283203,0.924438,505
30925935,9993,0.054687,0.277832,0.926880,505
30935942,10007,0.055054,0.278198,0.926392,501
30945951,10009,0.056885,0.280396,0.924072,504
30955940,9989,0.061523,0.281250,0.924805,501
30965934,9994,0.062744,0.274170,0.924805,503
30975979,10045,0.060547,0.274780,0.934204,502
30985941,9962,0.060425,0.274902,0.934814,498
30995931,9990,0.059326,0.279297,0.937378,502
31005941,10010,0.059448,0.278076,0.937134,505
31015951,10010,0.057007,0.277100,0.938721,504
31025927,9976,0.057007,0.281982,0.934326,502
31035928,10001,0.059082,0.288818,0.918579,507
31045954,10026,0.057495,0.287964,0.922485,500
31055927,9973,0.062134,0.284668,0.915894,508
31065936,10009,0.061646,0.287231,0.925415,515
31075942,10006,0.064087,0.291748,0.927246,517
31085939,9997,0.060547,0.295166,0.937988,520
31095935,9996,0.057617,0.286621,0.939209,520
31105934,9999,0.056152,0.281006,0.939087,523
31115929,9995,0.058472,0.273926,0.939575,530
31125952,10023,0.058350,0.274658,0.938965,525
31135934,9982,0.054687,0.281128,0.938965,523
31145932,9998,0.053833,0.286621,0.943359,531
31155944,10012,0.052856,0.286255,0.943604,531
31165960,10016,0.049805,0.284912,0.942993,530
31175931,9971,0.054077,0.287720,0.935669,527
31185925,9994,0.054932,0.286621,0.934570,533
31195969,10044,0.052734,0.280884,0.939697,530
31205959,9990,0.056763,0.282471,0.943237,528
31215952,9993,0.051392,0.283081,0.949951,527
31225952,10000,0.051880,0.284668,0.947266,516
31235938,9986,0.057129,0.277588,0.942749,516
31245934,9996,0.057739,0.272461,0.948975,520
31255941,10007,0.054321,0.278442,0.945923,513
31265932,9991,0.055298,0.283203,0.945435,516
31275945,10013,0.053467,0.282227,0.941895,511
31285946,10001,0.055420,0.279175,0.938354,508
31295943,9997,0.052734,0.277344,0.933594,507
31305935,9992,0.051270,0.281250,0.926636,510
31315932,9997,0.052856,0.286987,0.925171,506
31325949,10017,0.050659,0.290405,0.923340,507
31335926,9977,0.049805,0.288574,0.922852,505
31345924,9998,0.051758,0.285889,0.919556,506
31355952,10028,0.050537,0.285278,0.918579,506
31365929,9977,0.044678,0.282349,0.923828,495
31375941,10012,0.044678,0.281982,0.928101,495
31385946,10005,0.044922,0.283447,0.929810,505
31395932,9986,0.043823,0.281616,0.927124,503
31405926,9994,0.042725,0.276978,0.925903,503
31415976,10050,0.040649,0.274048,0.923584,503
31425954,9978,0.039795,0.277100,0.926147,495
31435924,9970,0.039063,0.279175,0.929565,497
31445932,10008,0.037476,0.278564,0.932007,492
31455946,10014,0.037598,0.278320,0.930908,500
31465937,9991,0.040161,0.277832,0.926880,497
31475930,9993,0.045898,0.277832,0.929199,499
31485924,9994,0.045776,0.281006,0.935425,491
31495942,10018,0.046387,0.289673,0.936646,498
31505935,9993,0.047485,0.295898,0.938843,497
31515937,10002,0.045166,0.297363,0.937378,495
31525937,10000,0.050171,0.295166,0.932251,496
31535932,9995,0.052246,0.296021,0.933350,486
31545953,10021,0.050537,0.294800,0.932373,493
31555928,9975,0.051147,0.293091,0.935913,493
31565948,10020,0.054077,0.297363,0.938721,493
31575931,9983,0.054565,0.307007,0.948364,487
31585945,10014,0.050903,0.310303,0.949585,491
31595963,10018,0.057251,0.309448,0.947021,492
31605947,9984,0.062012,0.309937,0.944946,491
31615950,10003,0.061523,0.305420,0.948364,490
31625933,9983,0.061523,0.302124,0.948975,485
31635974,10041,0.061890,0.304810,0.947632,489
31645930,9956,0.063477,0.305054,0.947876,499
31655924,9994,0.063477,0.302002,0.949829,503
31665937,10013,0.060181,0.297974,0.948608,507
31675935,9998,0.062500,0.295166,0.945435,508
31685948,10013,0.062622,0.284546,0.936279,516
31695936,9988,0.061157,0.277710,0.935913,514
31705949,10013,0.058105,0.273193,0.935669,525
31715945,9996,0.056885,0.270142,0.934937,528
31725939,9994,0.057739,0.270386,0.933105,530
31735947,10008,0.058716,0.270752,0.931274,531
31745940,9993,0.056519,0.257324,0.932739,534
31755941,10001,0.052979,0.253296,0.935059,532
31765953,10012,0.052124,0.248535,0.933838,521
31775937,9984,0.052979,0.244873,0.933838,530
31785953,10016,0.052979,0.241333,0.938232,523
31795929,9976,0.040405,0.264160,0.945923,531
31805930,10001,0.047852,0.237305,0.942627,522
31815939,10009,0.046265,0.219360,0.939697,531
31825945,10006,0.042358,0.223755,0.942627,527
31835929,9984,0.043579,0.239136,0.939209,515
31845929,10000,0.047485,0.257935,0.934692,517
31855950,10021,0.047974,0.285767,0.933960,514
31865946,9996,0.046265,0.285522,0.942749,520
31875931,9985,0.046997,0.286133,0.933105,514
31885952,10021,0.048462,0.273438,0.930420,514
31895945,9993,0.048828,0.265869,0.930054,509
31905943,9998,0.044922,0.275757,0.929932,510
31915941,9998,0.050171,0.281982,0.931274,508
31925926,9985,0.050781,0.290039,0.931152,513
31935928,10002,0.048218,0.291626,0.928833,506
31945940,10012,0.048462,0.288940,0.927368,511
31955949,10009,0.050415,0.284912,0.931274,515
31965947,9998,0.041382,0.289673,0.939209,505
31975952,10005,0.038940,0.292358,0.937500,504
31985943,9991,0.040039,0.295288,0.932251,513
31995952,10009,0.038696,0.296631,0.930420,513
32005925,9973,0.036255,0.293579,0.931152,513
32015938,10013,0.031494,0.291626,0.937866,507
32025924,9986,0.028687,0.293823,0.939331,510
32035945,10021,0.027832,0.296265,0.937866,512
32045951,10006,0.026367,0.299438,0.935913,514
32055935,9984,0.027100,0.301270,0.933838,514
32065929,9994,0.027832,0.299194,0.932007,511
32075927,9998,0.024780,0.289673,0.927368,504
32085945,10018,0.026855,0.288330,0.925537,512
32095941,9996,0.022827,0.289551,0.926270,508
32105929,9988,0.026001,0.284424,0.926270,514
32115947,10018,0.024780,0.289185,0.928345,509
32125938,9991,0.026123,0.290283,0.928345,512
32135937,9999,0.024048,0.297241,0.927246,511
32145930,9993,0.026489,0.295410,0.926514,514
32155935,10005,0.027710,0.291260,0.922974,513
32165948,10013,0.030029,0.291748,0.928955,509
32175930,9982,0.026855,0.285522,0.921875,506
32185938,10008,0.029907,0.281250,0.922485,511
32195936,9998,0.034668,0.278687,0.925903,512
32205941,10005,0.035889,0.276611,0.931396,509
32215931,9990,0.036133,0.281128,0.934326,506
32225929,9998,0.038940,0.290771,0.938477,514
32235946,10017,0.041016,0.299561,0.945435,519
32245933,9987,0.042358,0.297241,0.944092,522
32255968,10035,0.042358,0.289429,0.944458,518
32265925,9957,0.041992,0.282593,0.943604,528
32275927,10002,0.040649,0.272705,0.940063,530
32285981,10054,0.040894,0.259155,0.937988,529
32295966,9985,0.043701,0.264404,0.938721,536
32305925,9959,0.042847,0.272949,0.937866,535
32315945,10020,0.043701,0.278442,0.933105,535
32325943,9998,0.044312,0.279541,0.929810,539
32335926,9983,0.045654,0.275879,0.924683,533
32345951,10025,0.039063,0.269531,0.916382,535
32355929,9978,0.041016,0.265991,0.911255,531
32365930,10001,0.040161,0.262207,0.905273,535
32375936,10006,0.039673,0.256592,0.901611,530
32385929,9993,0.040283,0.254150,0.899658,532
32395948,10019,0.040771,0.256958,0.897461,529
32405931,9983,0.045776,0.261230,0.902832,519
32415932,10001,0.045166,0.267090,0.907959,518
32425931,9999,0.044556,0.271240,0.913208,519
32435939,10008,0.044067,0.268921,0.913452,520
32445928,9989,0.043579,0.261230,0.912720,511
32455948,10020,0.046509,0.252686,0.911377,517
32465941,9993,0.049805,0.257935,0.913452,515
32475953,10012,0.050415,0.265991,0.921265,508
32485968,10015,0.050293,0.277710,0.931396,505
32495943,9975,0.049683,0.290283,0.941162,508
32505951,10008,0.049683,0.292969,0.953857,512
32515934,9983,0.048706,0.283936,0.951782,506
32525978,10044,0.049805,0.279663,0.950806,511
32535951,9973,0.046143,0.274658,0.949463,504
32545953,10002,0.048828,0.273560,0.950317,505
32555939,9986,0.053223,0.270752,0.951660,512
32565926,9987,0.056396,0.286133,0.958618,511
32575930,10004,0.058838,0.299316,0.965942,504
32585939,10009,0.055176,0.305542,0.973389,506
32595943,10004,0.052002,0.304077,0.976685,504
32605930,9987,0.048340,0.295410,0.980347,510
32615947,10017,0.039551,0.284912,0.979492,509
32625943,9996,0.041016,0.269897,0.970215,512
32635939,9996,0.044800,0.260254,0.961182,509
32645932,9993,0.048584,0.252075,0.958008,503
32655942,10010,0.050171,0.255493,0.957886,512
32665952,10010,0.046265,0.262817,0.957764,511
32675934,9982,0.050171,0.259277,0.946045,514
32685934,10000,0.053345,0.255737,0.937744,508
32695948,10014,0.052856,0.256226,0.929810,513
32705925,9977,0.056763,0.250366,0.926025,515
32715930,10005,0.057251,0.250854,0.926270,512
32725934,10004,0.062622,0.251099,0.947998,514
32735936,10002,0.058350,0.245117,0.933838,514
32745945,10009,0.075439,0.241211,0.926025,512
32755927,9982,0.080688,0.226074,0.927612,504
32765960,10033,0.075195,0.227661,0.935547,503
32775948,9988,0.074829,0.235352,0.940430,505
32785952,10004,0.077515,0.248657,0.959106,505
32795933,9981,0.070679,0.240967,0.966431,508
32805930,9997,0.069580,0.229248,0.966919,508
32815941,10011,0.070557,0.217163,0.966187,510
32825953,10012,0.066772,0.210571,0.967041,511
32835929,9976,0.061401,0.218872,0.961670,508
32845946,10017,0.058838,0.223877,0.956909,517
32855942,9996,0.058838,0.224854,0.954346,523
32865930,9988,0.056519,0.227417,0.955811,525
32875952,10022,0.053711,0.235840,0.962524,529
32885953,10001,0.047241,0.244385,0.970947,535
32895944,9991,0.045654,0.230835,0.962769,538
32905925,9981,0.049683,0.216797,0.952881,537
32915927,10002,0.052490,0.202759,0.943237,543
32925926,9999,0.055664,0.199219,0.939209,539
32935933,10007,0.055908,0.207642,0.942627,548
32945936,10003,0.055054,0.234741,0.947510,546
32955936,10000,0.057739,0.241455,0.943848,547
32965963,10027,0.059692,0.237549,0.937134,544
32975951,9988,0.061890,0.229858,0.931396,544
32985944,9993,0.062988,0.225830,0.928833,540
32995933,9989,0.063965,0.223633,0.927856,530
33005942,10009,0.063477,0.220093,0.931641,533
33015934,9992,0.064087,0.221069,0.934204,530
33025928,9994,0.064087,0.224121,0.936646,531
33035946,10018,0.064697,0.229492,0.939331,529
33045928,9982,0.065674,0.233398,0.944458,528
33055925,9997,0.067505,0.223389,0.946899,521
33065941,10016,0.064819,0.215088,0.949585,514
33075949,10008,0.064087,0.202026,0.951172,520
33085936,9987,0.066895,0.197388,0.960937,519
33095938,10002,0.063721,0.203613,0.974365,513
33105952,10014,0.061890,0.215454,0.986694,519
33115938,9986,0.057373,0.232910,0.998047,512
33125953,10015,0.055908,0.232178,0.996582,517
33135943,9990,0.051636,0.232544,0.990234,519
33145940,9997,0.051392,0.234863,0.978516,518
33155927,9987,0.053345,0.241699,0.962402,516
33165947,10020,0.059937,0.258545,0.937256,517
33175926,9979,0.061768,0.271973,0.933960,511
33185925,9999,0.064697,0.286865,0.940918,511
33195951,10026,0.062622,0.297852,0.952637,513
33205949,9998,0.061646,0.298462,0.956055,514
33215933,9984,0.066284,0.285522,0.958130,515
33225942,10009,0.064209,0.238403,0.964111,513
33235938,9996,0.059326,0.217285,0.965820,505
33245973,10035,0.061157,0.202637,0.966431,509
33255952,9979,0.063721,0.196899,0.967285,508
33265937,9985,0.067017,0.200439,0.974487,509
33275940,10003,0.063232,0.214478,0.984131,507
33285928,9988,0.063599,0.217896,0.983276,507
33295934,10006,0.061768,0.215088,0.980591,504
33305931,9997,0.058350,0.216431,0.979858,513
33315939,10008,0.057495,0.206665,0.972412,513
33325941,10002,0.054932,0.211914,0.940063,517
33335945,10004,0.051025,0.213989,0.962769,516
33345952,10007,0.045898,0.213745,0.955811,517
33355948,9996,0.049927,0.218140,0.948730,509
33365947,9999,0.047363,0.218384,0.943604,519
33375951,10004,0.050659,0.222412,0.938965,519
33385948,9997,0.051025,0.242920,0.931519,518
33395948,10000,0.051758,0.252197,0.928345,521
33405934,9986,0.053223,0.257935,0.925659,517
33415939,10005,0.053955,0.262329,0.924072,523
33425950,10011,0.053833,0.264282,0.922607,527
33435934,9984,0.056396,0.265869,0.925415,531
33445942,10008,0.059937,0.262329,0.931030,524
33455931,9989,0.058838,0.258911,0.936890,535
33465943,10012,0.061279,0.253296,0.943237,531
33475930,9987,0.061279,0.245850,0.950195,534
33485958,10028,0.060425,0.235229,0.958008,536
33495929,9971,0.057251,0.223877,0.950073,537
33505931,10002,0.069824,0.222656,0.953247,536
33515948,10017,0.060059,0.223267,0.973022,535
33525945,9997,0.048340,0.234741,0.974243,530
33535927,9982,0.053833,0.241699,0.962402,538
33545934,10007,0.061890,0.239258,0.944946,536
33555933,9999,0.058228,0.235840,0.938354,535
33565940,10007,0.062012,0.242676,0.934570,534
33575952,10012,0.064087,0.253296,0.926880,530
33585945,9993,0.066528,0.263428,0.920532,530
33595939,9994,0.070435,0.266968,0.913940,517
33605944,10005,0.069580,0.268433,0.904907,515
33615933,9989,0.072266,0.268799,0.902466,519
33625942,10009,0.073730,0.269897,0.903076,517
33635942,10000,0.073120,0.268677,0.904297,511
33645950,10008,0.073853,0.266113,0.907715,511
33655929,9979,0.075317,0.260864,0.915039,504
33665927,9998,0.076172,0.249390,0.924438,503
33675951,10024,0.073486,0.243164,0.936523,507
33685928,9977,0.067261,0.241455,0.944458,505
33695931,10003,0.065918,0.238525,0.951172,505
33705927,9996,0.064087,0.233032,0.955811,504
33715931,10004,0.064209,0.231201,0.953613,501
33725935,10004,0.063965,0.235229,0.952393,506
33735978,10043,0.063965,0.238647,0.951294,508
33745952,9974,0.065186,0.243774,0.949829,503
33755925,9973,0.066040,0.246582,0.945312,510
33765926,10001,0.067871,0.247803,0.937866,510
33775924,9998,0.070435,0.245605,0.933960,510
33785953,10029,0.072144,0.247314,0.933228,514
33795935,9982,0.070312,0.249512,0.934814,508
33805945,10010,0.072510,0.251465,0.935547,508
33815953,10008,0.076172,0.251953,0.936646,507
33825952,9999,0.079712,0.254761,0.943481,508
33835924,9972,0.081787,0.256348,0.945312,506
33845937,10013,0.082153,0.252563,0.945801,502
33855946,10009,0.083252,0.246826,0.948486,505
33865940,9994,0.083252,0.240234,0.950317,499
33875941,10001,0.082520,0.234741,0.959473,502
33885933,9992,0.083252,0.233521,0.963623,495
33895925,9992,0.082275,0.233521,0.966797,504
33905933,10008,0.079468,0.233398,0.965088,497
33915940,10007,0.078003,0.229492,0.962646,496
33925924,9984,0.074829,0.223877,0.961792,501
33935933,10009,0.067993,0.215698,0.954834,507
33945962,10029,0.066040,0.218872,0.948853,509
33955926,9964,0.063721,0.222534,0.944946,510
33965940,10014,0.063965,0.226196,0.943604,513
33975931,9991,0.061890,0.227539,0.941895,516
33985949,10018,0.061646,0.234619,0.939087,515
33995928,9979,0.058716,0.235352,0.934448,525
34005950,10022,0.058716,0.234131,0.934082,531
34015948,9998,0.058960,0.234253,0.935059,535
34025949,10001,0.057251,0.235596,0.939575,536
34035931,9982,0.054199,0.236694,0.943481,542
34045947,10016,0.055420,0.235840,0.944824,541
34055949,10002,0.056519,0.231689,0.951294,544
34065927,9978,0.054932,0.231812,0.955566,544
34075936,10009,0.055786,0.236450,0.961304,542
34085934,9998,0.055664,0.241943,0.966675,544
34095942,10008,0.058716,0.243408,0.965576,543
34105945,10003,0.059570,0.243042,0.964111,539
34115945,10000,0.059326,0.244263,0.961426,537
34125930,9985,0.062012,0.246582,0.957642,529
34135943,10013,0.063843,0.250854,0.954224,536
34145940,9997,0.064331,0.259033,0.951294,533
34155949,10009,0.067749,0.268066,0.949829,525
34165948,9999,0.069458,0.269043,0.949463,529
34175926,9978,0.067749,0.267700,0.951172,525
34185942,10016,0.066284,0.267090,0.950317,519
34195937,9995,0.068115,0.264038,0.947510,522
34205931,9994,0.069214,0.253906,0.949951,518
34215947,10016,0.069214,0.250244,0.951538,517
34225974,10027,0.070068,0.250122,0.952026,510
34235931,9957,0.071045,0.249146,0.954468,512
34248925,12994,0.066406,0.241211,0.957520,505
34255925,7000,0.000000,0.000000,0.000000,513
34265948,10023,0.066162,0.234619,0.949829,514
34275933,9985,0.065430,0.238525,0.949341,514
34285952,10019,0.063110,0.235352,0.945557,509
34295931,9979,0.067261,0.235474,0.943970,510
34305937,10006,0.062012,0.242065,0.944458,514
34315939,10002,0.062622,0.239258,0.945312,506
34325928,9989,0.055664,0.232422,0.942261,514
34335951,10023,0.054810,0.226196,0.938110,515
34345952,10001,0.056030,0.224365,0.942139,516
34355933,9981,0.052368,0.225220,0.941895,513
34365942,10009,0.054932,0.226440,0.941406,512
34375946,10004,0.055298,0.228882,0.935669,515
34385943,9997,0.059814,0.230591,0.936523,514
34395939,9996,0.054565,0.232422,0.933716,510
34405932,9993,0.060059,0.232910,0.930420,513
34415938,10006,0.060669,0.228516,0.930420,505
34425927,9989,0.058228,0.227783,0.932007,513
34435966,10039,0.063232,0.234741,0.936157,507
34446017,10051,0.059082,0.243774,0.931274,509
34455930,9913,0.063599,0.244873,0.930908,509
34465966,10036,0.062500,0.239258,0.932617,505
34475940,9974,0.062622,0.235474,0.938721,509
34485932,9992,0.059448,0.243652,0.950073,510
34495953,10021,0.060547,0.247192,0.950195,510
34505941,9988,0.064697,0.244019,0.949585,507
34515945,10004,0.068237,0.238159,0.950317,506
34525924,9979,0.072266,0.237793,0.954956,509
34535931,10007,0.077026,0.251465,0.970093,516
34545946,10015,0.077148,0.255371,0.973877,518
34555937,9991,0.077148,0.254517,0.976685,523
34565948,10011,0.075684,0.250366,0.981079,527
34575953,10005,0.071533,0.247437,0.981079,529
34585933,9980,0.068726,0.244507,0.977783,529
34595943,10010,0.068481,0.242432,0.969238,536
34605935,9992,0.063843,0.246216,0.965942,540
34615947,10012,0.055786,0.254028,0.954590,543
34625953,10006,0.059326,0.258179,0.953247,536
34635941,9988,0.052734,0.260742,0.957275,544
34649287,13346,0.047119,0.260132,0.956421,543
34658456,9169,0.046875,0.253418,0.951904,541
34666293,7837,0.046387,0.244995,0.948975,539
34675934,9641,0.043701,0.238037,0.946167,534
34685927,9993,0.046021,0.239380,0.940552,527
34695930,10003,0.050659,0.244873,0.935547,529
34705952,10022,0.054443,0.258179,0.931274,531
34715930,9978,0.053833,0.260620,0.932617,528
34725924,9994,0.053711,0.262939,0.936157,519
34735954,10030,0.053589,0.262817,0.939087,525
34745942,9988,0.053833,0.260010,0.939819,520
34755933,9991,0.055298,0.260132,0.932129,517
34765945,10012,0.056519,0.262085,0.929687,516
34775936,9991,0.059692,0.263184,0.929687,513
34785931,9995,0.058472,0.261597,0.931885,510
34795949,10018,0.057007,0.260254,0.936646,505
34805943,9994,0.056274,0.257568,0.941284,510
34815935,9992,0.054932,0.251709,0.946533,511
34825945,10010,0.054199,0.250854,0.947388,510
34835949,10004,0.055542,0.250854,0.947754,502
34845938,9989,0.054199,0.250488,0.946289,510
34855949,10011,0.052856,0.250122,0.946289,511
34865937,9988,0.050659,0.250366,0.945190,508
34875929,9992,0.049194,0.252075,0.945923,502
34885954,10025,0.048096,0.255615,0.945312,506
34895937,9983,0.046997,0.258179,0.943237,505
34905977,10040,0.047485,0.261230,0.940186,505
34915947,9970,0.047119,0.264160,0.934082,504
34925927,9980,0.049194,0.269165,0.931641,506
34935942,10015,0.052856,0.274170,0.931763,504
34945930,9988,0.052856,0.278076,0.934937,503
34955924,9994,0.051392,0.279663,0.937744,493
34965941,10017,0.053467,0.282104,0.937866,493
34975952,10011,0.056885,0.274658,0.935547,502
34985928,9976,0.052856,0.277100,0.935913,500
34995937,10009,0.053589,0.277954,0.935669,498
35005934,9997,0.056519,0.276611,0.934692,489
35015949,10015,0.054932,0.269897,0.931274,494
35025945,9996,0.054321,0.267700,0.929687,496
35035952,10007,0.056274,0.278931,0.928345,496
35045948,9996,0.056152,0.278687,0.926880,491
35055942,9994,0.057251,0.274170,0.922241,489
35065933,9991,0.059326,0.271484,0.922729,491
35075941,10008,0.058594,0.269287,0.927979,499
35085944,10003,0.056885,0.268555,0.935425,502
35095944,10000,0.059814,0.261597,0.938721,498
35105941,9997,0.058838,0.255005,0.939209,503
35115935,9994,0.058594,0.252563,0.937500,506
35125941,10006,0.059692,0.252441,0.934937,504
35135947,10006,0.061035,0.259888,0.935425,515
35145942,9995,0.057617,0.262207,0.933228,518
35155933,9991,0.056763,0.261841,0.932617,523
35165934,10001,0.055420,0.258423,0.931152,527
35175929,9995,0.055298,0.257202,0.933594,526
35185932,10003,0.054810,0.258911,0.936279,537
35195944,10012,0.052002,0.272827,0.935303,542
35205925,9981,0.049927,0.276489,0.937012,543
35215951,10026,0.049194,0.274048,0.936646,542
35225930,9979,0.050537,0.269775,0.935059,542
35235943,10013,0.050293,0.266357,0.937866,545
35245947,10004,0.045898,0.266357,0.945923,536
35256577,10630,0.046265,0.266113,0.941895,544
35265924,9347,0.046753,0.273560,0.942017,541
35275952,10028,0.040161,0.278931,0.939209,531
35285938,9986,0.044556,0.281128,0.934814,539
35295942,10004,0.046021,0.279175,0.930786,529
35305944,10002,0.042480,0.281250,0.930176,533
35315935,9991,0.042603,0.285522,0.932373,530
35325936,10001,0.044556,0.283203,0.934814,527
35335948,10012,0.042725,0.275146,0.935669,529
35350496,14548,0.042725,0.268799,0.938721,526
35360136,9640,0.043091,0.269165,0.942017,524
35369583,9447,0.042236,0.268555,0.942505,522
35379166,9583,0.042725,0.265503,0.946045,524
35385939,6773,0.038452,0.267334,0.944946,523
35395930,9991,0.035767,0.267090,0.942627,522
35405951,10021,0.037720,0.266113,0.935303,522
35415952,10001,0.034668,0.269653,0.924316,513
35425931,9979,0.035645,0.273804,0.922241,520
35435945,10014,0.038330,0.276123,0.921753,518
35445934,9989,0.040161,0.276123,0.923340,522
35456230,10296,0.042969,0.274902,0.931030,513
35465946,9716,0.041748,0.280273,0.948242,521
35475930,9984,0.042480,0.281006,0.950806,522
35485953,10023,0.045654,0.277222,0.952026,517
35495945,9992,0.048706,0.271606,0.950195,519
35505939,9994,0.051270,0.265625,0.947021,517
35515944,10005,0.054443,0.268677,0.946533,513
35525944,10000,0.052002,0.291260,0.941772,508
35535947,10003,0.050903,0.302734,0.940186,511
35545951,10004,0.044312,0.311646,0.944824,503
35558420,12469,0.035645,0.319214,0.942993,507
35565979,7559,0.000000,0.000000,0.000000,509
35575958,9979,0.036987,0.309326,0.930054,503
35585946,9988,0.038818,0.300049,0.931519,503
35595950,10004,0.037598,0.303467,0.935181,502
35605951,10001,0.035156,0.300903,0.944092,495
35615949,9998,0.029541,0.309692,0.948730,494
35625938,9989,0.032959,0.303955,0.950806,503
35635953,10015,0.032227,0.289551,0.957886,503
35645941,9988,0.027344,0.284302,0.953735,502
35655936,9995,0.031372,0.282349,0.953491,502
35666887,10951,0.031738,0.281372,0.950928,497
35676323,9436,0.038208,0.279053,0.949097,501
35685936,9613,0.033203,0.284912,0.951782,504
35695933,9997,0.034302,0.284546,0.950562,501
35705953,10020,0.033325,0.281982,0.942871,500
35715953,10000,0.034424,0.279663,0.936279,501
35725933,9980,0.031006,0.277832,0.930420,495
35735940,10007,0.028687,0.275635,0.929077,502
35745941,10001,0.025024,0.274536,0.927979,501
35755953,10012,0.021729,0.277954,0.929321,498
35765970,10017,0.020386,0.279541,0.927856,506
35775953,9983,0.020264,0.273926,0.923340,497
35785953,10000,0.025513,0.263794,0.923950,505
35795961,10008,0.027100,0.251099,0.931885,509
35805943,9982,0.028076,0.254028,0.935547,506
35815940,9997,0.027588,0.255615,0.940063,517
35825927,9987,0.026489,0.258179,0.941040,514
35835940,10013,0.027710,0.259888,0.938721,528
35845937,9997,0.029175,0.260254,0.929077,532
35855927,9990,0.033081,0.260986,0.925659,529
35865944,10017,0.038208,0.261108,0.923462,540
35875938,9994,0.039795,0.265137,0.920166,536
35885946,10008,0.040527,0.271118,0.919434,544
35895927,9981,0.043213,0.276123,0.918945,537
35905953,10026,0.046387,0.283813,0.918335,540
35915947,9994,0.045654,0.285400,0.922119,538
35925939,9992,0.046631,0.287231,0.922729,534
35935945,10006,0.049561,0.288574,0.922974,533
35945930,9985,0.051514,0.289795,0.923584,531
35955936,10006,0.051514,0.288574,0.925171,530
35965954,10018,0.053955,0.285889,0.927246,529
35975932,9978,0.055176,0.285400,0.930786,528
35986107,10175,0.054932,0.289185,0.937500,521
35995939,9832,0.052612,0.293701,0.943726,523
36005937,9998,0.051880,0.291870,0.951050,520
36015962,10025,0.050293,0.279053,0.955200,520
36025944,9982,0.049194,0.275391,0.953369,521
36035925,9981,0.048584,0.273682,0.954224,519
36045943,10018,0.045654,0.274658,0.952148,512
36055924,9981,0.043945,0.274902,0.950073,518
36065943,10019,0.042236,0.277588,0.947021,516
36075934,9991,0.037231,0.277954,0.942383,517
36085942,10008,0.034302,0.279663,0.936279,515
36095942,10000,0.032593,0.282227,0.932617,516
36105936,9994,0.029297,0.287109,0.928345,511
36115940,10004,0.028809,0.293091,0.925537,517
36125926,9986,0.026978,0.298950,0.922607,514
36135937,10011,0.028076,0.295410,0.923340,516
36145929,9992,0.029663,0.291626,0.922729,515
36155933,10004,0.031494,0.291260,0.923218,515
36165929,9996,0.033691,0.292236,0.925903,515
36175933,10004,0.034058,0.295654,0.939575,514
36185932,9999,0.034668,0.296265,0.940063,513
36195968,10036,0.039551,0.292969,0.943726,513
36205954,9986,0.038940,0.290771,0.949829,512
36215952,9998,0.037231,0.288452,0.951538,512
36225931,9979,0.036743,0.289551,0.942139,508
36235928,9997,0.039673,0.292114,0.937866,508
36245935,10007,0.034790,0.299194,0.945557,510
36255950,10015,0.026978,0.307495,0.942017,511
36265934,9984,0.033691,0.310181,0.936523,509
36275933,9999,0.031738,0.301025,0.921021,511
36285937,10004,0.026245,0.292358,0.924316,509
36295941,10004,0.030762,0.296509,0.919556,508
36305938,9997,0.037109,0.296875,0.914795,503
36315929,9991,0.038940,0.289185,0.917114,507
36325926,9997,0.036621,0.282593,0.921875,510
36335929,10003,0.037842,0.277222,0.923340,509
36345930,10001,0.040039,0.279419,0.917847,508
36355931,10001,0.046387,0.281372,0.915771,510
36365946,10015,0.046265,0.272461,0.916870,509
36375925,9979,0.049683,0.269531,0.916504,500
36385930,10005,0.047974,0.271362,0.916870,503
36395938,10008,0.056274,0.280273,0.915894,509
36405924,9986,0.056152,0.281738,0.916870,501
36415942,10018,0.058716,0.283203,0.922241,510
36425947,10005,0.056519,0.281982,0.923950,509
36435937,9990,0.055054,0.283325,0.929077,512
36445976,10039,0.051636,0.284668,0.929810,509
36455949,9973,0.053101,0.284302,0.927124,509
36465949,10000,0.054443,0.285889,0.925171,510
36476604,10655,0.056030,0.292358,0.922729,507
36488980,12376,0.057617,0.307617,0.925537,505
36495941,6961,0.000000,0.000000,0.000000,497
36505951,10010,0.054077,0.308105,0.924805,502
36515938,9987,0.054321,0.300415,0.922974,501
36525928,9990,0.054321,0.289795,0.921997,505
36535931,10003,0.054199,0.281738,0.925171,508
36545947,10016,0.054687,0.279907,0.933105,511
36555928,9981,0.054810,0.281372,0.942749,511
36565948,10020,0.052490,0.284302,0.957031,520
36575940,9992,0.051392,0.280762,0.958374,520
36585934,9994,0.050659,0.275269,0.956177,529
36595952,10018,0.049927,0.267944,0.952515,536
36605944,9992,0.047241,0.262207,0.948975,542
36615949,10005,0.046631,0.261108,0.939209,544
36625936,9987,0.047607,0.264160,0.935547,539
36635934,9998,0.048706,0.269531,0.933960,551
36645957,10023,0.049438,0.274048,0.935059,552
36655946,9989,0.050415,0.277710,0.936768,551
36665945,9999,0.047852,0.277344,0.934326,547
36675934,9989,0.050781,0.265503,0.936157,550
36685952,10018,0.045898,0.267090,0.941284,549
36695928,9976,0.049438,0.261597,0.944580,547
36705929,10001,0.046265,0.260620,0.950317,544
36715945,10016,0.046875,0.259644,0.953247,542
36725940,9995,0.046875,0.264893,0.962524,538
36735935,9995,0.052246,0.261963,0.962280,539
36745951,10016,0.051147,0.261841,0.963257,529
36755949,9998,0.050049,0.264404,0.966064,537
36765952,10003,0.047241,0.265869,0.969727,527
36775924,9972,0.044678,0.263672,0.972656,532
36785929,10005,0.043579,0.257446,0.970581,525
36795941,10012,0.044922,0.262329,0.967041,521
36805935,9994,0.044556,0.267456,0.965332,528
36815945,10010,0.043701,0.272827,0.962891,515
36825931,9986,0.041504,0.275269,0.959961,519
36835928,9997,0.036865,0.277710,0.945923,522
36845946,10018,0.036743,0.276001,0.940552,523
36855941,9995,0.036865,0.275391,0.937988,524
36865940,9999,0.035522,0.279419,0.938354,522
36875947,10007,0.035645,0.284668,0.941650,520
36885977,10030,0.034058,0.282471,0.945190,514
36895947,9970,0.036865,0.275024,0.944336,522
36905928,9981,0.038818,0.271240,0.944946,517
36915953,10025,0.041626,0.270020,0.946655,520
36925929,9976,0.043701,0.270996,0.946777,511
36935950,10021,0.046265,0.277588,0.947266,517
36945929,9979,0.046509,0.283447,0.949707,515
36955928,9999,0.046753,0.282349,0.949463,515
36965935,10007,0.047729,0.277588,0.944824,512
36975948,10013,0.050415,0.275391,0.936279,511
36985937,9989,0.052734,0.276001,0.931763,505
36995925,9988,0.051025,0.276855,0.922363,501
37005946,10021,0.051758,0.276123,0.919312,509
37015940,9994,0.051514,0.271606,0.918945,508
37025931,9991,0.050903,0.266724,0.916382,507
37035930,9999,0.050659,0.261963,0.915405,506
37045937,10007,0.048828,0.258667,0.916138,509
37055945,10008,0.052368,0.255249,0.912476,507
37065933,9988,0.054199,0.253174,0.911865,505
37075951,10018,0.053467,0.252075,0.912109,509
37085928,9977,0.053955,0.252319,0.915649,507
37096458,10530,0.053589,0.251465,0.920288,501
37107523,11065,0.052002,0.246826,0.921265,506
37115950,8427,0.058472,0.244995,0.918945,500
37125936,9986,0.058838,0.244995,0.918701,502
37135929,9993,0.057007,0.248291,0.920410,500
37145952,10023,0.055786,0.255127,0.921875,496
37155930,9978,0.056396,0.262207,0.925171,504
37165946,10016,0.052490,0.263306,0.924561,502
37175935,9989,0.056641,0.262329,0.922241,500
37185947,10012,0.056885,0.264404,0.919800,501
37195934,9987,0.055298,0.268311,0.919922,503
37205953,10019,0.054199,0.275635,0.923218,502
37215952,9999,0.052979,0.284302,0.928223,503
37225929,9977,0.051758,0.281616,0.930542,501
37235941,10012,0.052124,0.278564,0.935669,493
37245932,9991,0.052002,0.274902,0.941528,502
37255940,10008,0.052979,0.273315,0.945923,490
37265941,10001,0.054199,0.270264,0.949829,500
37275950,10009,0.053833,0.264648,0.959351,501
37285929,9979,0.053101,0.261597,0.965576,501
37295924,9995,0.053101,0.261108,0.969360,505
37305945,10021,0.052612,0.263062,0.973755,507
37315927,9982,0.051025,0.267090,0.976807,512
37325924,9997,0.049683,0.272705,0.974854,510
37335952,10028,0.048218,0.274414,0.973511,521
37345928,9976,0.045532,0.277466,0.973022,528
37355933,10005,0.041748,0.280884,0.969971,532
37365935,10002,0.039673,0.282715,0.965576,537
37375947,10012,0.038574,0.283569,0.960693,542
37386176,10229,0.034302,0.287842,0.958008,544
37395945,9769,0.031860,0.290161,0.952515,544
37405933,9988,0.031860,0.291260,0.948853,545
37415952,10019,0.030640,0.289429,0.947388,542
37425946,9994,0.028320,0.285522,0.946533,547
37435926,9980,0.025513,0.286987,0.942505,545
37445952,10026,0.025146,0.284790,0.938477,537
37455934,9982,0.025513,0.281128,0.935181,535
37465937,10003,0.024170,0.277344,0.934570,538
37475929,9992,0.024292,0.271362,0.936157,534
37485935,10006,0.023315,0.270874,0.936646,533
37495934,9999,0.027710,0.271484,0.934692,531
37505938,10004,0.028687,0.269531,0.931763,529
37518091,12153,0.029541,0.269531,0.930176,528
37525934,7843,0.029541,0.267944,0.927856,524
37535937,10003,0.032227,0.267822,0.926636,516
37545924,9987,0.033325,0.269531,0.926758,520
37555943,10019,0.032715,0.268677,0.926758,517
37565948,10005,0.036255,0.268188,0.924438,522
37575952,10004,0.038940,0.268188,0.923584,518
37590446,14494,0.040039,0.268921,0.928223,511
37599887,9441,0.041260,0.268188,0.929810,519
37606007,6120,0.043579,0.269043,0.929199,517
37615926,9919,0.045166,0.269775,0.930176,518
37625931,10005,0.045776,0.267822,0.932373,510
37635948,10017,0.044678,0.267212,0.934570,516
37645930,9982,0.045654,0.270996,0.938721,512
37655940,10010,0.049805,0.275269,0.940674,513
37665953,10013,0.051270,0.276367,0.938599,503
37675949,9996,0.052124,0.274292,0.939819,504
37685938,9989,0.052246,0.274292,0.940918,508
37695945,10007,0.051514,0.277222,0.938354,503
37705967,10022,0.055176,0.281372,0.935913,495
37715950,9983,0.055420,0.281250,0.936157,501
37725974,10024,0.054199,0.281372,0.933716,501
37735947,9973,0.056885,0.281860,0.928223,500
37745924,9977,0.060181,0.282471,0.926270,496
37755936,10012,0.060059,0.282104,0.927124,496
37765945,10009,0.058960,0.276733,0.931274,496
37775934,9989,0.060791,0.272339,0.934204,489
37785930,9996,0.062622,0.269775,0.939087,489
37795927,9997,0.061035,0.269897,0.947388,492
37805950,10023,0.059570,0.270630,0.950806,496
37815947,9997,0.063599,0.265015,0.953369,489
37825952,10005,0.060547,0.260498,0.954834,496
37835944,9992,0.058228,0.257202,0.953979,496
37845934,9990,0.058105,0.258301,0.953003,495
37855929,9995,0.055786,0.263550,0.947266,495
37865951,10022,0.055908,0.268677,0.939453,493
37875950,9999,0.053345,0.278198,0.931030,497
37885942,9992,0.050293,0.282104,0.934204,500
37895937,9995,0.046509,0.283447,0.937134,493
37905951,10014,0.045654,0.284058,0.936157,500
37915925,9974,0.045654,0.280884,0.934570,499
37925939,10014,0.039917,0.266479,0.935181,503
37935949,10010,0.039673,0.263428,0.934692,501
37945957,10008,0.040527,0.261353,0.935425,492
37955952,9995,0.041138,0.261963,0.935425,491
37965946,9994,0.041870,0.263916,0.938110,498
37975941,9995,0.041016,0.269409,0.940063,502
37985926,9985,0.039795,0.273926,0.936279,502
37995943,10017,0.041748,0.273804,0.927856,502
38005943,10000,0.044067,0.272827,0.921143,497
38017547,11604,0.046265,0.271973,0.916138,506
38026404,8857,0.046265,0.272583,0.918579,502
38035931,9527,0.044556,0.279907,0.926880,512
38045931,10000,0.044800,0.280640,0.930420,512
38055944,10013,0.045288,0.275024,0.934204,516
38065945,10001,0.047485,0.268799,0.934570,520
38075951,10006,0.049316,0.264648,0.934326,528
38085936,9985,0.052246,0.261475,0.968018,527
38095953,10017,0.052490,0.259766,0.940308,534
38108462,12509,0.052612,0.260620,0.944458,539
38115950,7488,0.052368,0.261841,0.946167,541
38127155,11205,0.054565,0.262817,0.946289,540
38135940,8785,0.055908,0.264160,0.946167,536
38145931,9991,0.057373,0.267578,0.942139,545
38155933,10002,0.057617,0.269897,0.939697,545
38165936,10003,0.058350,0.271240,0.936523,537
38175947,10011,0.060425,0.270142,0.936279,535
38185935,9988,0.058960,0.270630,0.939575,538
38195953,10018,0.057495,0.270142,0.951416,537
38205946,9993,0.053589,0.272949,0.953125,534
38218147,12201,0.055420,0.272583,0.952515,531
38225928,7781,0.053955,0.268677,0.954102,530
38235941,10013,0.051392,0.263550,0.958374,522
38245947,10006,0.048218,0.264771,0.959717,523
38255953,10006,0.048706,0.270142,0.954834,522
38265926,9973,0.048828,0.273804,0.951660,520
38275941,10015,0.049805,0.274902,0.949829,518
38285949,10008,0.049805,0.277344,0.946899,519
38295930,9981,0.048950,0.280273,0.947510,516
38305928,9998,0.048218,0.285522,0.942261,511
38317256,11328,0.049194,0.285645,0.937988,519
38325947,8691,0.049194,0.282471,0.934082,516
38335945,9998,0.050415,0.280518,0.931885,514
38345929,9984,0.050537,0.280640,0.932373,521
38355959,10030,0.051147,0.281738,0.933472,517
38365948,9989,0.048950,0.279663,0.935303,518
38375937,9989,0.049927,0.273804,0.932495,515
38385937,10000,0.051270,0.268433,0.931030,516
38395946,10009,0.050903,0.265381,0.934448,514
38405947,10001,0.049438,0.264526,0.936401,515
38418144,12197,0.051880,0.265015,0.936890,508
38426182,8038,0.052246,0.265625,0.936157,513
38435940,9758,0.055054,0.266235,0.933838,502
38445934,9994,0.057129,0.267456,0.933960,509
38455948,10014,0.058960,0.272217,0.932739,501
38465925,9977,0.061157,0.278198,0.933228,501
38475925,10000,0.063721,0.285278,0.930786,504
38485931,10006,0.065552,0.284546,0.930176,506
38495952,10021,0.065308,0.284790,0.930542,504
38505953,10001,0.067505,0.283447,0.930420,506
38515933,9980,0.067749,0.283203,0.930664,505
38525934,10001,0.070435,0.285889,0.933838,506
38535937,10003,0.068359,0.285522,0.938721,507
38545929,9992,0.067993,0.285645,0.940796,507
38555974,10045,0.065674,0.286011,0.944458,506
38565948,9974,0.062012,0.284912,0.945312,507
38575926,9978,0.061768,0.282715,0.942993,508
38585937,10011,0.062012,0.278931,0.937134,499
38595936,9999,0.061401,0.278320,0.934326,506
38605927,9991,0.059937,0.277344,0.932007,506
38616740,10813,0.059204,0.276367,0.929443,509
38625926,9186,0.059814,0.276978,0.928711,505
38635933,10007,0.055298,0.275269,0.928955,507
38645931,9998,0.056274,0.271484,0.929810,501
38655928,9997,0.054810,0.270142,0.930176,500
38665931,10003,0.054321,0.267700,0.928101,505
38675936,10005,0.054321,0.269531,0.927490,502
38685950,10014,0.052856,0.265503,0.926758,504
38695943,9993,0.049927,0.256714,0.926758,507
38705946,10003,0.047363,0.256104,0.927612,506
38715940,9994,0.046875,0.257568,0.929443,507
38725944,10004,0.047241,0.261230,0.931274,509
38735927,9983,0.047852,0.264893,0.931396,514
38745934,10007,0.048218,0.268066,0.930054,515
38755937,10003,0.048462,0.266479,0.932373,520
38765968,10031,0.046997,0.264771,0.933472,521
38775944,9976,0.045166,0.264771,0.937866,530
38785952,10008,0.044189,0.263062,0.941895,532
38795946,9994,0.044189,0.260864,0.950195,536
38805931,9985,0.042969,0.259155,0.948486,532
38815949,10018,0.047485,0.259888,0.949341,543
38825930,9981,0.044800,0.260620,0.952026,540
38835953,10023,0.043823,0.265259,0.953735,539
38845944,9991,0.042847,0.267090,0.952393,531
38855935,9991,0.044312,0.266602,0.947266,531
38865951,10016,0.041992,0.272217,0.948364,529
38875928,9977,0.041504,0.274536,0.939453,534
38885945,10017,0.044922,0.274902,0.932251,530
38895931,9986,0.044067,0.274902,0.927490,522
38905936,10005,0.042114,0.279419,0.932251,522
38915952,10016,0.042725,0.274414,0.934204,521
38925939,9987,0.039551,0.266724,0.936646,523
38935929,9990,0.038940,0.268555,0.942383,513
38945939,10010,0.038696,0.267212,0.941040,517
38955948,10009,0.043823,0.262207,0.942383,509
38965932,9984,0.038330,0.262939,0.951782,515
38975946,10014,0.038696,0.261230,0.954102,515
38985925,9979,0.040405,0.256104,0.954956,508
38995936,10011,0.035034,0.250977,0.950195,513
39005931,9995,0.035522,0.250854,0.950317,504
39015932,10001,0.036011,0.258789,0.948120,506
39025933,10001,0.036621,0.261108,0.944214,505
39035950,10017,0.038330,0.262939,0.941650,508
39045929,9979,0.036865,0.263428,0.941528,507
39055932,10003,0.034790,0.264893,0.940186,512
39065925,9993,0.036987,0.264404,0.938477,508
39075949,10024,0.034302,0.260498,0.943970,504
39085939,9990,0.032959,0.259766,0.942383,500
39095947,10008,0.034302,0.258667,0.942017,506
39105926,9979,0.035034,0.255615,0.943481,503
39115926,10000,0.034058,0.258301,0.945923,506
39125951,10025,0.034302,0.264771,0.948975,503
39135952,10001,0.035278,0.266357,0.946167,501
39145949,9997,0.036499,0.267090,0.946411,502
39155962,10013,0.036621,0.268921,0.947998,497
39165951,9989,0.035278,0.271362,0.945557,499
39175970,10019,0.039185,0.273315,0.941772,500
39185934,9964,0.042480,0.269409,0.934326,501
39195929,9995,0.043335,0.268921,0.931274,503
39205952,10023,0.046387,0.267822,0.929199,498
39215953,10001,0.046631,0.263916,0.930298,493
39226387,10434,0.044800,0.255127,0.931519,504
39235952,9565,0.043701,0.249390,0.934326,504
39252796,16844,0.043579,0.250000,0.938843,504
39259466,6670,0.000000,0.000000,0.000000,496
39267550,8084,0.044067,0.245972,0.940308,505
39279177,11627,0.046021,0.243652,0.940918,501
39285944,6767,0.000000,0.000000,0.000000,501
39295953,10009,0.046997,0.246582,0.943115,504
39305932,9979,0.046143,0.246948,0.946533,504
39315935,10003,0.044800,0.247681,0.950073,503
39325983,10048,0.045044,0.248901,0.953857,496
39335934,9951,0.044800,0.252930,0.953369,504
39345925,9991,0.048096,0.262329,0.951782,505
39355956,10031,0.048584,0.262817,0.954346,509
39365935,9979,0.047729,0.264526,0.954346,515
39375976,10041,0.047363,0.264038,0.952515,517
39385924,9948,0.048706,0.262207,0.951172,520
39395944,10020,0.047363,0.260864,0.947266,520
39405930,9986,0.048584,0.263550,0.947266,520
39415933,10003,0.047607,0.266602,0.946899,523
39425952,10019,0.047363,0.267212,0.946533,531
39435926,9974,0.046875,0.265137,0.946655,531
39445936,10010,0.047607,0.264526,0.948975,531
39455939,10003,0.046509,0.266479,0.951904,528
39465952,10013,0.046997,0.257202,0.948975,524
39475932,9980,0.042969,0.261230,0.955200,527
39485938,10006,0.038818,0.264771,0.958252,527
39495952,10014,0.041260,0.265869,0.960327,522
39505930,9978,0.040039,0.265137,0.954224,520
39515930,10000,0.038330,0.262939,0.952271,518
39525951,10021,0.039185,0.265259,0.948853,516
39535940,9989,0.042358,0.266113,0.947144,512
39545941,10001,0.040649,0.265137,0.942627,509
39555932,9991,0.043823,0.266113,0.937744,503
39565944,10012,0.041626,0.276367,0.935791,502
39575925,9981,0.042969,0.278320,0.933228,501
39585972,10047,0.044067,0.275513,0.927856,500
39595942,9970,0.047241,0.270508,0.924316,499
39605946,10004,0.048218,0.265137,0.922729,493
39615930,9984,0.050293,0.261963,0.925049,497
39625935,10005,0.055664,0.262207,0.929321,490
39635950,10015,0.055298,0.261597,0.933716,498
39645935,9985,0.056030,0.258301,0.934570,487
39655947,10012,0.057983,0.254272,0.935913,494
39665952,10005,0.061523,0.248901,0.936401,495
39675950,9998,0.066528,0.246094,0.938110,496
39685942,9992,0.068726,0.244385,0.941284,494
39695936,9994,0.068481,0.245239,0.943481,491
39705942,10006,0.066772,0.245483,0.945923,492
39715944,10002,0.067261,0.247925,0.949341,491
39725946,10002,0.067383,0.251099,0.942261,486
39735941,9995,0.069458,0.253906,0.939453,487
39745941,10000,0.069458,0.256226,0.938599,490
39755946,10005,0.067993,0.261719,0.938599,486
39765934,9988,0.065918,0.267822,0.940918,485
39775932,9998,0.062622,0.272705,0.940674,485
39785967,10035,0.063477,0.276001,0.932251,485
39795925,9958,0.061157,0.274780,0.928101,486
39805952,10027,0.062378,0.276001,0.925537,480
39815952,10000,0.060669,0.275269,0.923462,483
39825952,10000,0.058105,0.274780,0.926270,475
39839065,13113,0.057251,0.273804,0.925415,479
39845931,6866,0.057983,0.267944,0.926514,482
39856729,10798,0.057251,0.261353,0.929565,482
39865953,9224,0.057861,0.258301,0.932861,483
39875925,9972,0.058594,0.256104,0.939209,487
39885942,10017,0.057617,0.253174,0.946045,487
39895937,9995,0.056519,0.246338,0.953003,493
39905948,10011,0.055908,0.245850,0.953857,487
39915934,9986,0.055298,0.247559,0.955322,497
39925926,9992,0.054565,0.250610,0.954102,503
39935952,10026,0.054443,0.253296,0.952637,510
39945938,9986,0.052734,0.257935,0.950439,516
39955926,9988,0.051758,0.259521,0.950317,519
39965941,10015,0.049316,0.261108,0.949829,523
39975944,10003,0.048218,0.264526,0.950562,532
39985925,9981,0.046143,0.268188,0.948242,527
39995962,10037,0.045410,0.269531,0.946167,539
40005949,9987,0.046875,0.267578,0.940796,538
40015941,9992,0.047363,0.267212,0.938599,533
40025941,10000,0.048096,0.265747,0.937256,539
40035952,10011,0.047363,0.265503,0.937378,540
40045928,9976,0.047607,0.264648,0.935669,537
40055947,10019,0.049438,0.255981,0.928955,539
40065932,9985,0.050903,0.249878,0.929932,538
40075928,9996,0.052002,0.245605,0.934082,535
40085938,10010,0.052979,0.244995,0.940186,533
40095941,10003,0.051758,0.246338,0.947998,524
40105928,9987,0.049683,0.245728,0.954102,530
40115928,10000,0.051147,0.231567,0.951172,528
40125936,10008,0.050659,0.221802,0.949097,518
40135936,10000,0.050415,0.217163,0.946777,521
40145941,10005,0.050415,0.219849,0.943481,515
40155941,10000,0.050415,0.228149,0.939209,517
40165925,9984,0.049316,0.237305,0.938721,508
40175931,10006,0.048340,0.237915,0.938477,516
40185927,9996,0.047607,0.237183,0.936035,514
40195932,10005,0.048828,0.237183,0.935059,511
40205959,10027,0.048950,0.236816,0.932983,511
40215932,9973,0.048462,0.237671,0.933838,503
40225951,10019,0.046631,0.239136,0.935669,509
40235931,9980,0.046143,0.239746,0.941895,508
40245942,10011,0.046021,0.240479,0.946533,501
40255924,9982,0.046631,0.241943,0.950073,508
40265933,10009,0.047241,0.241333,0.950195,500
40275927,9994,0.049316,0.239014,0.952759,498
40285952,10025,0.049072,0.238403,0.954956,503
40295952,10000,0.048584,0.241333,0.955444,505
40305937,9985,0.049072,0.242554,0.956787,503
40315926,9989,0.052368,0.244263,0.959839,493
40325935,10009,0.052979,0.255859,0.959351,501
40335932,9997,0.052856,0.256104,0.958374,500
40345941,10009,0.053833,0.254761,0.956543,499
40355941,10000,0.053589,0.257813,0.953613,500
40365926,9985,0.054810,0.258301,0.951172,500
40375938,10012,0.052612,0.257080,0.950317,496
40385951,10013,0.052124,0.253662,0.949097,501
40395950,9999,0.052734,0.257568,0.944580,502
40405965,10015,0.052246,0.255981,0.941895,501
40415938,9973,0.052612,0.253052,0.942017,497
40425946,10008,0.051880,0.248047,0.944458,500
40435944,9998,0.052979,0.240479,0.946777,496
40445939,9995,0.053345,0.237915,0.946899,504
40455940,10001,0.052979,0.233643,0.947876,505
40465929,9989,0.052734,0.229736,0.952271,507
40475951,10022,0.052002,0.227905,0.958374,509
40485949,9998,0.052246,0.230713,0.959229,512
40495925,9976,0.054565,0.231934,0.958984,510
40505942,10017,0.053833,0.233276,0.958252,520
40515939,9997,0.054077,0.231689,0.954224,524
40525930,9991,0.055908,0.232178,0.952393,529
40535933,10003,0.054810,0.234863,0.950928,527
40545940,10007,0.053589,0.247681,0.949097,536
40555953,10013,0.051758,0.251587,0.946777,541
40565939,9986,0.052124,0.253784,0.942871,545
40575959,10020,0.052856,0.254761,0.942017,547
40585930,9971,0.052612,0.253662,0.942505,547
40595931,10001,0.050171,0.253052,0.946777,548
40605940,10009,0.050293,0.247803,0.952271,547
40615942,10002,0.050903,0.242554,0.951538,546
40625947,10005,0.050903,0.237915,0.951050,547
40635931,9984,0.051270,0.232544,0.948486,537
40645927,9996,0.050781,0.232300,0.950073,544
40655951,10024,0.049438,0.239258,0.951660,543
40665947,9996,0.052124,0.237183,0.950684,535
40675934,9987,0.052979,0.233032,0.948608,538
40685924,9990,0.049927,0.229736,0.948730,527
40695946,10022,0.049438,0.231689,0.944824,525
40705945,9999,0.054443,0.225830,0.945312,528
40715939,9994,0.049561,0.227173,0.947998,527
40725951,10012,0.049194,0.232544,0.950806,524
40735950,9999,0.047974,0.240479,0.956543,521
40745948,9998,0.050171,0.234619,0.954468,514
40755944,9996,0.053833,0.232178,0.950317,518
40765939,9995,0.053345,0.233765,0.953613,517
40775944,10005,0.051270,0.235962,0.957397,513
40785952,10008,0.050781,0.239746,0.958984,512
40795937,9985,0.051636,0.239624,0.957642,506
40805939,10002,0.053467,0.241089,0.956421,510
40815948,10009,0.053467,0.248779,0.954834,511
40825951,10003,0.052734,0.251343,0.950928,511
40835929,9978,0.053955,0.250610,0.949585,510
40845925,9996,0.054199,0.250122,0.945679,510
40855925,10000,0.054321,0.247681,0.943970,508
40866896,10971,0.055908,0.248413,0.943970,504
40878668,11772,0.054565,0.249756,0.946167,508
40887792,9124,0.053833,0.253418,0.950806,503
40895942,8150,0.052002,0.251465,0.946045,506
40905942,10000,0.058350,0.243530,0.943970,501
40915946,10004,0.054687,0.240601,0.940674,505
40925933,9987,0.060425,0.240479,0.944702,497
40935947,10014,0.056519,0.237671,0.945801,505
40945946,9999,0.055176,0.234375,0.945801,503
40955951,10005,0.056763,0.234131,0.947021,503
40966519,10568,0.053955,0.230713,0.948120,501
40979151,12632,0.057129,0.228882,0.943115,500
40985941,6790,0.058350,0.233276,0.938965,500
40995946,10005,0.060181,0.236450,0.934204,500
41005940,9994,0.061768,0.237427,0.932739,493
41015928,9988,0.062256,0.234375,0.934448,504
41025937,10009,0.061035,0.235352,0.936401,502
41035940,10003,0.064209,0.238403,0.942017,505
41045929,9989,0.060791,0.238525,0.942505,505
41055931,10002,0.062256,0.236938,0.942871,507
41065942,10011,0.063232,0.235352,0.944702,508
41075946,10004,0.062256,0.236450,0.948242,504
41085947,10001,0.061279,0.238770,0.954468,514
41095949,10002,0.059814,0.242310,0.954712,526
41105953,10004,0.060913,0.240845,0.953125,526
41115940,9987,0.061035,0.240234,0.955444,529
41125936,9996,0.060791,0.239502,0.959473,535
41135949,10013,0.059814,0.242920,0.961182,539
41145937,9988,0.060181,0.248047,0.958130,544
41155972,10035,0.060669,0.248901,0.955566,547
41165924,9952,0.058105,0.249268,0.952881,550
41175928,10004,0.058716,0.249634,0.950439,547
41186347,10419,0.059082,0.249878,0.949341,551
41195934,9587,0.058960,0.280884,0.947388,542
41205936,10002,0.054321,0.250732,0.947998,551
41215950,10014,0.054565,0.250366,0.946045,546
41225935,9985,0.054932,0.247314,0.943604,546
41235950,10015,0.055420,0.244141,0.941528,546
41245929,9979,0.055298,0.241943,0.940796,538
41255945,10016,0.054687,0.247559,0.945068,542
41268733,12788,0.053833,0.247314,0.946899,533
41276598,7865,0.053345,0.245361,0.945312,533
41285936,9338,0.054565,0.241943,0.943237,526
41295936,10000,0.055420,0.236328,0.941528,521
41305949,10013,0.055542,0.236328,0.943970,520
41315951,10002,0.057251,0.239868,0.945068,518
41325925,9974,0.057251,0.242310,0.947144,511
41335938,10013,0.058350,0.240601,0.948608,508
41345947,10009,0.059204,0.235962,0.947388,502
41355950,10003,0.059814,0.232910,0.946045,508
41365931,9981,0.062256,0.236084,0.950562,513
41375950,10019,0.061035,0.239624,0.951660,512
41385929,9979,0.059326,0.239258,0.950195,510
41395936,10007,0.059814,0.237183,0.951172,508
41405925,9989,0.061768,0.240601,0.950806,506
41416282,10357,0.059692,0.245728,0.950806,507
41425946,9664,0.061523,0.243286,0.946777,503
41435932,9986,0.061157,0.245972,0.945068,500
41445939,10007,0.058350,0.249634,0.944702,498
41455941,10002,0.059937,0.251465,0.946289,500
41465952,10011,0.062378,0.251587,0.944702,508
41475945,9993,0.061157,0.258301,0.944458,491
41485947,10002,0.060791,0.256958,0.944092,496
41495928,9981,0.062988,0.256104,0.945801,490
41505929,10001,0.061523,0.255859,0.944702,484
41515927,9998,0.062500,0.254517,0.943115,490
41525927,10000,0.064209,0.250122,0.945190,489
41535934,10007,0.062378,0.251587,0.945435,488
41545961,10027,0.061768,0.252930,0.943848,486
41555928,9967,0.062378,0.253418,0.945435,483
41565932,10004,0.065308,0.252930,0.945068,486
41575928,9996,0.063721,0.250977,0.947144,485
41586438,10510,0.062256,0.246094,0.943481,478
41595953,9515,0.063599,0.250244,0.940308,484
41605925,9972,0.065430,0.255981,0.936279,482
41615928,10003,0.065918,0.256470,0.933838,477
41625948,10020,0.069214,0.251831,0.934204,475
41635932,9984,0.067505,0.250000,0.937256,482
41645934,10002,0.065918,0.250244,0.940063,485
41655943,10009,0.067017,0.247070,0.942505,478
41668795,12852,0.069336,0.245972,0.942383,488
41675929,7134,0.067627,0.244873,0.944946,489
41685943,10014,0.067017,0.244263,0.947144,491
41695950,10007,0.065308,0.243530,0.950195,495
41705929,9979,0.065430,0.242798,0.947510,500
41715954,10025,0.065552,0.240234,0.945435,501
41725931,9977,0.064941,0.239990,0.941406,511
41735943,10012,0.064575,0.241821,0.937134,514
41745963,10020,0.063843,0.250122,0.927856,523
41755945,9982,0.066284,0.250610,0.925171,528
41765958,10013,0.067627,0.250244,0.921997,527
41775935,9977,0.068970,0.249268,0.922119,540
41785946,10011,0.068359,0.252197,0.922729,542
41795940,9994,0.068237,0.261353,0.934692,542
41805931,9991,0.069458,0.261841,0.943726,545
41815931,10000,0.071289,0.259277,0.949219,537
41825952,10021,0.071533,0.255249,0.953735,541
41835933,9981,0.071289,0.252563,0.957886,542
41845926,9993,0.070190,0.252808,0.960693,535
41855928,10002,0.069580,0.253662,0.967163,535
41865932,10004,0.068726,0.252441,0.970581,527
41875947,10015,0.066406,0.253906,0.970215,532
41885954,10007,0.065308,0.257690,0.969116,525
41895929,9975,0.062988,0.261841,0.967285,523
41905927,9998,0.062134,0.261963,0.960815,513
41915951,10024,0.061646,0.262573,0.956177,514
41925935,9984,0.060059,0.265869,0.952271,509
41935924,9989,0.057617,0.270752,0.948120,508
41945944,10020,0.057617,0.271729,0.942627,504
41955948,10004,0.057861,0.268799,0.940552,502
41967454,11506,0.055908,0.261963,0.934814,500
41975930,8476,0.056885,0.259766,0.935181,498
41985930,10000,0.054321,0.254761,0.934326,500
42003044,17114,0.057373,0.245239,0.939453,489
42008555,5511,0.056763,0.241821,0.941895,498
42015931,7376,0.000000,0.000000,0.000000,497
42025952,10021,0.058472,0.246216,0.943115,498
42035933,9981,0.057495,0.246704,0.942139,494
42045947,10014,0.057129,0.248413,0.940063,499
42055924,9977,0.056152,0.250366,0.938232,495
42065952,10028,0.057251,0.254395,0.934204,496
42075946,9994,0.057495,0.261353,0.923828,495
42085940,9994,0.056641,0.263550,0.922974,487
42095931,9991,0.054443,0.263062,0.922729,486
42105928,9997,0.053467,0.264404,0.922119,486
42115949,10021,0.054687,0.266724,0.921143,492
42125930,9981,0.055298,0.266479,0.925293,486
42135948,10018,0.056030,0.265991,0.928101,492
42145941,9993,0.058350,0.264404,0.930786,486
42155934,9993,0.058960,0.259888,0.935181,494
42165934,10000,0.059204,0.255615,0.939575,493
42175926,9992,0.059570,0.251831,0.942505,494
42187142,11216,0.061768,0.253418,0.948364,493
42196486,9344,0.064087,0.255737,0.949341,491
42205933,9447,0.064697,0.255127,0.950684,493
42215951,10018,0.066162,0.254150,0.950562,492
42225928,9977,0.066528,0.254150,0.950073,493
42235929,10001,0.067993,0.258179,0.944946,484
42245935,10006,0.068604,0.260986,0.941528,489
42255925,9990,0.070801,0.261963,0.937378,489
42265934,10009,0.069702,0.261597,0.933960,486
42275934,10000,0.068848,0.260132,0.932129,492
42288191,12257,0.066040,0.262939,0.934448,493
42295932,7741,0.068237,0.266968,0.930542,483
42305948,10016,0.069336,0.267212,0.928833,496
42315929,9981,0.070679,0.265869,0.929321,488
42325943,10014,0.072266,0.263550,0.931152,484
42335932,9989,0.072754,0.262329,0.934204,490
42345938,10006,0.073364,0.259766,0.941162,487
42355939,10001,0.071899,0.254272,0.944824,483
42365926,9987,0.071167,0.250610,0.948853,484
42375931,10005,0.072754,0.247559,0.951294,497
42385926,9995,0.070190,0.248535,0.953979,497
42397993,12067,0.070679,0.253906,0.950928,506
42405949,7956,0.071533,0.254639,0.948975,510
42415932,9983,0.071899,0.253784,0.948730,515
42425941,10009,0.069458,0.256348,0.947632,523
42435944,10003,0.067749,0.260620,0.947021,528
42445940,9996,0.067383,0.262573,0.944702,534
42455935,9995,0.068970,0.262451,0.938843,531
42465925,9990,0.069946,0.261475,0.937622,544
42475924,9999,0.070068,0.264160,0.938843,546
42485930,10006,0.069702,0.265869,0.938599,543
42497129,11199,0.068481,0.266968,0.937988,552
42505950,8821,0.069702,0.264160,0.937012,552
42515925,9975,0.071533,0.261841,0.935913,548
42525942,10017,0.071533,0.261597,0.937866,546
42535935,9993,0.071045,0.262451,0.938110,547
42545945,10010,0.071289,0.261475,0.938477,547
42555942,9997,0.069580,0.260254,0.938110,543
42565951,10009,0.071289,0.249756,0.938599,538
42575953,10002,0.071289,0.243530,0.941406,532
42585928,9975,0.071289,0.241699,0.942627,537
42596914,10986,0.071289,0.244019,0.945435,533
42605946,9032,0.072876,0.247192,0.947510,530
42615980,10034,0.074219,0.248413,0.950195,526
42625929,9949,0.075195,0.247803,0.946045,512
42635941,10012,0.076172,0.250610,0.946411,518
42645949,10008,0.076172,0.254883,0.947144,513
42655948,9999,0.075195,0.260620,0.949097,509
42665926,9978,0.075684,0.263672,0.948120,501
42675932,10006,0.076904,0.266846,0.950806,504
42685926,9994,0.073242,0.270264,0.950684,500
42695952,10026,0.074463,0.271362,0.949341,498
42705948,9996,0.075073,0.270630,0.949219,488
42715937,9989,0.074951,0.267090,0.948120,489
42725926,9989,0.068726,0.263550,0.946777,495
42735951,10025,0.069214,0.264526,0.944336,494
42745944,9993,0.068481,0.265381,0.941895,493
42755933,9989,0.068237,0.265259,0.941895,495
42765937,10004,0.066650,0.262329,0.941528,494
42775936,9999,0.066895,0.259033,0.936401,493
42785931,9995,0.069214,0.247314,0.927124,493
42795926,9995,0.069214,0.244873,0.926514,497
42805980,10054,0.069580,0.243774,0.925415,498
42815960,9980,0.071777,0.244751,0.925659,499
42825924,9964,0.070923,0.249756,0.933472,499
42835929,10005,0.075439,0.241089,0.930664,501
42845935,10006,0.072998,0.239136,0.929565,493
42855945,10010,0.076172,0.241089,0.929687,497
42865950,10005,0.073364,0.244263,0.932739,501
42875938,9988,0.076782,0.237061,0.933472,501
42885935,9997,0.076416,0.234985,0.934204,490
42895947,10012,0.076904,0.245239,0.939331,492
42905939,9992,0.076538,0.247314,0.942749,495
42915951,10012,0.076538,0.245239,0.945923,488
42925930,9979,0.076416,0.243408,0.948608,491
42935940,10010,0.076294,0.246704,0.949951,491
42945935,9995,0.078857,0.254395,0.948242,490
42955928,9993,0.079468,0.255371,0.949829,486
42965926,9998,0.077759,0.258423,0.952881,488
42975940,10014,0.076416,0.261475,0.958374,486
42985946,10006,0.076660,0.262939,0.960693,481
42995968,10022,0.074585,0.262085,0.964478,483
43005936,9968,0.070190,0.257568,0.964600,484
43015936,10000,0.068970,0.256348,0.963013,484
43025943,10007,0.068115,0.253784,0.962402,483
43035945,10002,0.066772,0.253174,0.961182,477
43045941,9996,0.066650,0.253418,0.961060,483
43055952,10011,0.060059,0.251465,0.960571,482
43065950,9998,0.058960,0.251465,0.955566,481
43075928,9978,0.059692,0.251221,0.948975,479
43085931,10003,0.060181,0.250244,0.941528,480
43095935,10004,0.060181,0.248657,0.934570,485
43105925,9990,0.061646,0.248047,0.931885,486
43115928,10003,0.059204,0.250244,0.929932,485
43125934,10006,0.058228,0.252319,0.929199,479
43135935,10001,0.058350,0.251709,0.929321,481
43145933,9998,0.059082,0.248047,0.927368,484
43155927,9994,0.060181,0.242065,0.929077,492
43165924,9997,0.061890,0.239502,0.928833,491
43175947,10023,0.062256,0.242920,0.931152,490
43185952,10005,0.064453,0.243530,0.934326,496
43195949,9997,0.065308,0.244019,0.937012,502
43205939,9990,0.065918,0.242432,0.939575,503
43215929,9990,0.066040,0.243530,0.941650,506
43225934,10005,0.068970,0.245361,0.943604,519
43235924,9990,0.068604,0.247925,0.946289,526
43245927,10003,0.069214,0.249146,0.946777,529
43255935,10008,0.070801,0.249756,0.947021,526
43265928,9993,0.070068,0.248779,0.947144,531
43275935,10007,0.070923,0.251099,0.942017,536
43285926,9991,0.070679,0.255005,0.940674,532
43295938,10012,0.070190,0.257568,0.940674,537
43305946,10008,0.069580,0.257568,0.940674,540
43316587,10641,0.068237,0.256470,0.939941,535
43325934,9347,0.066406,0.253784,0.939453,535
43335951,10017,0.066650,0.254883,0.938599,532
43345941,9990,0.066895,0.255249,0.939819,532
43355927,9986,0.068359,0.255859,0.943115,532
43365946,10019,0.067261,0.257935,0.943970,529
43375946,10000,0.068848,0.261108,0.947388,525
43385943,9997,0.068848,0.262695,0.947388,523
43395940,9997,0.070190,0.257935,0.946289,517
43405932,9992,0.072388,0.253662,0.949219,511
43415947,10015,0.072388,0.253662,0.952026,507
43425931,9984,0.070068,0.258057,0.953735,499
43435948,10017,0.070557,0.261475,0.952881,497
43445944,9996,0.069702,0.259033,0.949951,487
43455973,10029,0.070923,0.254639,0.946289,485
43465939,9966,0.070435,0.253174,0.942993,487
43475929,9990,0.071899,0.252808,0.941162,482
43485932,10003,0.069946,0.253052,0.943481,489
43495937,10005,0.067261,0.254028,0.943970,487
43505951,10014,0.067505,0.253296,0.943848,488
43515936,9985,0.065674,0.251953,0.943726,490
43525942,10006,0.065796,0.249268,0.942627,488
43535936,9994,0.066528,0.247314,0.941650,488
43545927,9991,0.064453,0.244141,0.943481,481
43555941,10014,0.065674,0.244019,0.942749,489
43565954,10013,0.065186,0.243286,0.941772,490
43575947,9993,0.064697,0.242676,0.942017,483
43585937,9990,0.063721,0.241699,0.942749,486
43595939,10002,0.062744,0.240234,0.943481,480
43605937,9998,0.063232,0.235840,0.941895,485
43615928,9991,0.062134,0.234375,0.941650,479
43625927,9999,0.061768,0.234009,0.942139,487
43635924,9997,0.060913,0.235107,0.943115,487
43645944,10020,0.061157,0.236938,0.943848,488
43655924,9980,0.062622,0.240234,0.943481,481
43665950,10026,0.063965,0.242920,0.943115,486
43675937,9987,0.063843,0.246338,0.942505,480
43685941,10004,0.065186,0.248535,0.944092,492
43695942,10001,0.064209,0.249756,0.946289,489
43705941,9999,0.064209,0.250122,0.947998,490
43715929,9988,0.067139,0.250244,0.945557,486
43725943,10014,0.068604,0.248169,0.945923,491
43735938,9995,0.068970,0.249512,0.946899,484
43745938,10000,0.067505,0.250000,0.949829,491
43755937,9999,0.067993,0.251587,0.949463,489
43765936,9999,0.070557,0.252808,0.948730,484
43775924,9988,0.070068,0.252197,0.950073,492
43785952,10028,0.069702,0.253906,0.952148,484
43795926,9974,0.067627,0.254517,0.953369,479
43805952,10026,0.067993,0.254272,0.951416,487
43815942,9990,0.069092,0.253418,0.950684,488
43825942,10000,0.066772,0.253174,0.948975,480
43835927,9985,0.066772,0.251221,0.946655,486
43845952,10025,0.067505,0.251221,0.945557,477
43855939,9987,0.068604,0.251343,0.943604,487
43865981,10042,0.071045,0.245850,0.942505,489
43875932,9951,0.065918,0.246948,0.942993,488
43885941,10009,0.069824,0.247559,0.942139,478
43895950,10009,0.068481,0.245728,0.937500,480
43905933,9983,0.069824,0.245483,0.934204,489
43915946,10013,0.067871,0.245117,0.934204,488
43925933,9987,0.068726,0.244263,0.938232,492
43935946,10013,0.068481,0.243164,0.939453,491
43945926,9980,0.067627,0.242554,0.940796,497
43955942,10016,0.066284,0.242920,0.943726,495
43965927,9985,0.066650,0.243408,0.946655,505
43975942,10015,0.066284,0.243896,0.948853,510
43985949,10007,0.066284,0.239746,0.951660,516
43995947,9998,0.066284,0.239746,0.952148,516
44005941,9994,0.065796,0.241577,0.951172,519
44016554,10613,0.065063,0.245850,0.950073,529
44025924,9370,0.063599,0.248169,0.949585,533
44035939,10015,0.065430,0.252075,0.947388,537
44045948,10009,0.064209,0.255371,0.945312,534
44055938,9990,0.064453,0.258301,0.942383,541
44065942,10004,0.064209,0.260498,0.938721,537
44075932,9990,0.065674,0.261230,0.939575,546
44085948,10016,0.064087,0.260742,0.941895,544
44095942,9994,0.061279,0.258179,0.946411,544
44105934,9992,0.061157,0.256592,0.947021,550
44118514,12580,0.062378,0.253784,0.942383,549
44125930,7416,0.063721,0.251465,0.941162,543
