t_us,dt_us,ax,ay,az,ppg
143485380,10020,0.132080,0.625854,0.724243,524
143495385,10005,0.131592,0.625854,0.725952,516
143505379,9994,0.130737,0.625488,0.724976,520
143515360,9981,0.132202,0.627930,0.724243,516
143525367,10007,0.131958,0.626953,0.724121,511
143535384,10017,0.132080,0.626465,0.724243,514
143545360,9976,0.131592,0.626831,0.725342,512
143555386,10026,0.131836,0.626831,0.724854,504
143565368,9982,0.132568,0.625122,0.725098,509
143575387,10019,0.132324,0.624268,0.726074,511
143585374,9987,0.133179,0.625244,0.726074,509
143595371,9997,0.131104,0.626099,0.728516,507
143605369,9998,0.132324,0.625244,0.727539,509
143615389,10020,0.130859,0.625732,0.725708,506
143625370,9981,0.131958,0.625610,0.725464,502
143635381,10011,0.132324,0.624634,0.724731,506
143645404,10023,0.130737,0.625488,0.724976,505
143655377,9973,0.132080,0.624756,0.724731,498
143665375,9998,0.132202,0.627563,0.724365,501
143675383,10008,0.130859,0.626953,0.725586,505
143685368,9985,0.132324,0.625977,0.725830,502
143695370,10002,0.132446,0.627808,0.725708,503
143705381,10011,0.130859,0.625732,0.725586,507
143715389,10008,0.130859,0.626221,0.725952,507
143725376,9987,0.131226,0.627441,0.723633,508
143735361,9985,0.132324,0.626099,0.724121,500
143745364,10003,0.132690,0.625488,0.724976,506
143755363,9999,0.132080,0.625610,0.726440,509
143765366,10003,0.132324,0.626099,0.726685,503
143775362,9996,0.132935,0.627930,0.725098,504
143785381,10019,0.131470,0.626343,0.724121,509
143795389,10008,0.131104,0.626831,0.724609,505
143805390,10001,0.132568,0.625977,0.725098,515
143815363,9973,0.132935,0.626343,0.725342,518
143825372,10009,0.132080,0.626709,0.727051,518
143835364,9992,0.133545,0.626709,0.724487,526
143845362,9998,0.132812,0.627686,0.725342,528
143855386,10024,0.132202,0.627075,0.724731,537
143865381,9995,0.130005,0.626953,0.724243,540
143875367,9986,0.130859,0.627686,0.723877,549
143885362,9995,0.130737,0.627197,0.723999,550
143895378,10016,0.130981,0.626709,0.724976,554
143905369,9991,0.131592,0.627075,0.723999,552
143915417,10048,0.132446,0.628174,0.724243,557
143925386,9969,0.132324,0.626587,0.723999,551
143935372,9986,0.132202,0.627563,0.725586,555
143945379,10007,0.132568,0.627563,0.724243,550
143955373,9994,0.131836,0.627075,0.724609,554
143965377,10004,0.131104,0.628418,0.725342,551
143975380,10003,0.130249,0.628906,0.725098,550
143985386,10006,0.131348,0.626831,0.722412,549
143995378,9992,0.130493,0.627197,0.723267,542
144005368,9990,0.132080,0.628174,0.724731,547
144015388,10020,0.132812,0.628418,0.725098,546
144025369,9981,0.132568,0.628296,0.725708,544
144035388,10019,0.131592,0.627686,0.725220,540
144045369,9981,0.130859,0.627563,0.724731,537
144055384,10015,0.131226,0.628052,0.723145,530
144065383,9999,0.130615,0.629639,0.723267,532
144075369,9986,0.131226,0.629028,0.723633,527
144085412,10043,0.130371,0.629150,0.723755,530
144095377,9965,0.131470,0.629028,0.723633,527
144105376,9999,0.131104,0.627563,0.723511,528
144115372,9996,0.130981,0.627563,0.723755,523
144125372,10000,0.130981,0.627563,0.723389,518
144135367,9995,0.131348,0.628052,0.723511,522
144145389,10022,0.130127,0.629395,0.722900,515
144155375,9986,0.130493,0.629028,0.723389,515
144165372,9997,0.130005,0.628296,0.721802,520
144175368,9996,0.130127,0.628662,0.724487,519
144185373,10005,0.130981,0.629150,0.724487,519
144195385,10012,0.131958,0.628906,0.724121,520
144205389,10004,0.131592,0.629028,0.723511,519
144215379,9990,0.131714,0.628296,0.723511,518
144225381,10002,0.130859,0.629150,0.723511,518
144235389,10008,0.131104,0.629761,0.724243,517
144245383,9994,0.130371,0.629150,0.724487,510
144255386,10003,0.130371,0.629395,0.723389,516
144265363,9977,0.130859,0.629150,0.723145,515
144275373,10010,0.130127,0.626709,0.722900,515
144285361,9988,0.129395,0.628540,0.723389,507
144295380,10019,0.131714,0.628174,0.723877,513
144305384,10004,0.132080,0.629150,0.724243,513
144315364,9980,0.131226,0.629517,0.724609,504
144325375,10011,0.131104,0.629028,0.723145,512
144335389,10014,0.129395,0.627930,0.723389,512
144345386,9997,0.130859,0.627075,0.723389,507
144355381,9995,0.130615,0.629028,0.724609,513
144365361,9980,0.131836,0.629639,0.725098,511
144375381,10020,0.131836,0.628052,0.721924,509
144385367,9986,0.130615,0.626221,0.722778,511
144395371,10004,0.129883,0.627930,0.723877,511
144405361,9990,0.131226,0.628174,0.723389,507
144415364,10003,0.131348,0.629395,0.724976,508
144425367,10003,0.132080,0.630493,0.724365,508
144435364,9997,0.130859,0.627808,0.722412,499
144445375,10011,0.129272,0.626709,0.721436,506
144455361,9986,0.130249,0.626221,0.723022,508
144465369,10008,0.129150,0.627930,0.724487,506
144475393,10024,0.130493,0.629761,0.724609,500
144485373,9980,0.130859,0.629028,0.722656,507
144495389,10016,0.130371,0.626587,0.723022,508
144505362,9973,0.130371,0.625610,0.723755,508
144515382,10020,0.131470,0.626709,0.725342,503
144525364,9982,0.130981,0.626465,0.726807,507
144535375,10011,0.131348,0.629028,0.725952,508
144545378,10003,0.130981,0.629272,0.722534,510
144555371,9993,0.129761,0.628174,0.722046,507
144565378,10007,0.129639,0.627808,0.723633,514
144575378,10000,0.130737,0.629150,0.724854,522
144585360,9982,0.130981,0.628784,0.723999,527
144595369,10009,0.131592,0.627563,0.724365,528
144605360,9991,0.130737,0.627197,0.723267,537
144615374,10014,0.131348,0.627319,0.724365,539
144625368,9994,0.129028,0.628662,0.725098,552
144635386,10018,0.130005,0.627808,0.725464,551
144645381,9995,0.129395,0.628052,0.723145,560
144655382,10001,0.130737,0.629272,0.722534,560
144665363,9981,0.130737,0.627319,0.723145,561
144675368,10005,0.129883,0.627319,0.724243,562
144690149,14781,0.131592,0.628784,0.725952,562
144695643,5494,0.000000,0.000000,0.000000,561
144705374,9731,0.130249,0.629517,0.722656,560
144715389,10015,0.130615,0.627808,0.721680,560
144725378,9989,0.130127,0.630127,0.723389,559
144735379,10001,0.129883,0.631104,0.723633,549
144745379,10000,0.130493,0.631226,0.723877,554
144755360,9981,0.130127,0.629761,0.721558,549
144765367,10007,0.130005,0.629761,0.721802,547
144778530,13163,0.129517,0.628540,0.722290,550
144789901,11371,0.130493,0.628540,0.723877,534
144796941,7040,0.000000,0.000000,0.000000,529
144805384,8443,0.131348,0.629761,0.723389,536
144815361,9977,0.130859,0.630371,0.721802,529
144825386,10025,0.129883,0.629883,0.722046,529
144835381,9995,0.129517,0.629517,0.722778,526
144845368,9987,0.128052,0.628662,0.723389,524
144855388,10020,0.129883,0.629150,0.724243,524
144865361,9973,0.129272,0.629883,0.723267,517
144875373,10012,0.130615,0.629028,0.723022,515
144885374,10001,0.129883,0.629028,0.723267,518
144895384,10010,0.130615,0.629761,0.723633,519
144905376,9992,0.129395,0.629639,0.723633,512
144915382,10006,0.130249,0.629883,0.723267,519
144925385,10003,0.129761,0.629639,0.722412,520
144935405,10020,0.130737,0.628418,0.722046,510
144945361,9956,0.129150,0.629272,0.723389,509
144955375,10014,0.129639,0.629517,0.723999,513
144965367,9992,0.130127,0.630859,0.724365,513
144975369,10002,0.131348,0.631104,0.723022,512
144985376,10007,0.129883,0.629761,0.722290,511
144998820,13444,0.129150,0.627563,0.720703,510
145005360,6540,0.128906,0.627808,0.721313,510
145015380,10020,0.129272,0.630005,0.723877,510
145025369,9989,0.130615,0.631592,0.724121,509
145035362,9993,0.130859,0.629395,0.722046,504
145045366,10004,0.130493,0.629639,0.720825,502
145055363,9997,0.129761,0.628906,0.722168,508
145065371,10008,0.129028,0.629517,0.723267,502
145075377,10006,0.129395,0.629761,0.725220,507
145085369,9992,0.130493,0.631470,0.721191,509
145095383,10014,0.130371,0.630737,0.723022,509
145105401,10018,0.129150,0.630249,0.723145,508
145115364,9963,0.128662,0.629883,0.722900,508
145125362,9998,0.129272,0.628784,0.721924,504
145135379,10017,0.130737,0.628906,0.723511,501
145145369,9990,0.131836,0.630737,0.723877,505
145155369,10000,0.130737,0.630249,0.723145,505
145165363,9994,0.131592,0.629883,0.723511,507
145175371,10008,0.130127,0.630127,0.723877,505
145185376,10005,0.131104,0.630371,0.721924,506
145195369,9993,0.129639,0.629272,0.722534,504
145205363,9994,0.129517,0.628662,0.722290,504
145215384,10021,0.128906,0.628906,0.723022,502
145225385,10001,0.128906,0.628540,0.723145,506
145235380,9995,0.130981,0.628662,0.723145,506
145245369,9989,0.133667,0.629028,0.723633,498
145255383,10014,0.131226,0.629639,0.722900,504
145265371,9988,0.128418,0.629395,0.720703,499
145275369,9998,0.130249,0.629517,0.723999,496
145285365,9996,0.130005,0.629517,0.723999,502
145295378,10013,0.131104,0.630127,0.723145,503
145305375,9997,0.129150,0.630615,0.723022,497
145315363,9988,0.130981,0.630249,0.723633,498
145325403,10040,0.129272,0.627563,0.723145,501
145335377,9974,0.130737,0.625244,0.723877,498
145345363,9986,0.130249,0.627075,0.725830,502
145355380,10017,0.129395,0.631348,0.723633,502
145365382,10002,0.132324,0.632080,0.723022,501
145375383,10001,0.130249,0.631592,0.722534,506
145385364,9981,0.128418,0.629517,0.723022,508
145395382,10018,0.128540,0.628906,0.722900,520
145405372,9990,0.127075,0.627319,0.724243,528
145415375,10003,0.130493,0.628662,0.726562,537
145425366,9991,0.130615,0.630127,0.725342,547
145435365,9999,0.129761,0.630737,0.724365,554
145445371,10006,0.130005,0.630127,0.724487,560
145455365,9994,0.128662,0.630615,0.723755,566
145465389,10024,0.128784,0.628784,0.723267,572
145475389,10000,0.130493,0.629028,0.723755,574
145485387,9998,0.129395,0.628784,0.723511,572
145495373,9986,0.128784,0.628906,0.723022,568
145505376,10003,0.128296,0.628784,0.722778,575
145515381,10005,0.128540,0.629883,0.723877,573
145525364,9983,0.129395,0.632202,0.725220,570
145535377,10013,0.128174,0.632446,0.721191,570
145545368,9991,0.127686,0.630981,0.721558,568
145555379,10011,0.129395,0.629028,0.720459,564
145565383,10004,0.127686,0.629028,0.720337,558
145575369,9986,0.130127,0.632202,0.724243,556
145585361,9992,0.129272,0.633057,0.723999,559
145595384,10023,0.129028,0.633667,0.722290,558
145605401,10017,0.129883,0.632690,0.722656,553
145615382,9981,0.130371,0.631348,0.721069,548
145625374,9992,0.128662,0.629761,0.721069,544
145635370,9996,0.128418,0.631714,0.721069,534
145645382,10012,0.128662,0.634399,0.723267,532
145655360,9978,0.129517,0.635742,0.723511,532
145665386,10026,0.127563,0.633423,0.721069,530
145675369,9983,0.127075,0.629761,0.720825,522
145685363,9994,0.128662,0.628418,0.722778,523
145695369,10006,0.128540,0.630371,0.723511,519
145705384,10015,0.128784,0.632202,0.723755,515
145715367,9983,0.129883,0.632568,0.722534,519
145725369,10002,0.129883,0.632690,0.721802,516
145735374,10005,0.126709,0.631714,0.722290,522
145745383,10009,0.126099,0.631226,0.720581,519
145755378,9995,0.126587,0.630371,0.719604,515
145765375,9997,0.127319,0.629761,0.720337,517
145775389,10014,0.127563,0.630737,0.722778,511
145785386,9997,0.128662,0.632568,0.723267,516
145795362,9976,0.129272,0.631226,0.722412,513
145805390,10028,0.128174,0.631836,0.722778,518
145815362,9972,0.129150,0.632935,0.720581,510
145825377,10015,0.127930,0.632812,0.719482,511
145835367,9990,0.126953,0.631592,0.718628,509
145845363,9996,0.127319,0.631836,0.723633,512
145855386,10023,0.127686,0.633545,0.723877,511
145865388,10002,0.128418,0.632935,0.723267,504
145875362,9974,0.127930,0.631104,0.720703,503
145885386,10024,0.128052,0.629395,0.719849,506
145895372,9986,0.127563,0.632202,0.722656,506
145905378,10006,0.126953,0.633423,0.722900,506
145915375,9997,0.127319,0.632446,0.722656,504
145925372,9997,0.128174,0.631226,0.721313,503
145935362,9990,0.128174,0.630737,0.721436,501
145945363,10001,0.127808,0.631226,0.722168,503
145955385,10022,0.127563,0.630005,0.722656,499
145965385,10000,0.128662,0.630981,0.723145,499
145975389,10004,0.127930,0.631348,0.723511,505
145985360,9971,0.127197,0.632202,0.722778,506
145995379,10019,0.128296,0.631470,0.721924,498
146005406,10027,0.128296,0.631714,0.721069,503
146015366,9960,0.127197,0.632690,0.723267,506
146025389,10023,0.126343,0.632690,0.723267,505
146035368,9979,0.126953,0.631470,0.721436,500
146045370,10002,0.128052,0.629639,0.720703,503
146055376,10006,0.127441,0.631958,0.723511,504
146065376,10000,0.127686,0.632690,0.723877,497
146075366,9990,0.127441,0.631836,0.722412,500
146085371,10005,0.127808,0.631836,0.722046,502
146095386,10015,0.129150,0.633057,0.722656,498
146105368,9982,0.126221,0.633179,0.721191,500
146115370,10002,0.126465,0.628906,0.721924,501
146125385,10015,0.128296,0.629517,0.722778,501
146135385,10000,0.129272,0.630371,0.723633,499
146145388,10003,0.129395,0.631104,0.724121,495
146155375,9987,0.128174,0.631470,0.724121,504
146165366,9991,0.129028,0.631470,0.723511,502
146175401,10035,0.127930,0.630737,0.722168,502
146185382,9981,0.128174,0.630859,0.720459,502
146195385,10003,0.127930,0.630615,0.720825,513
146205363,9978,0.129761,0.631226,0.723145,519
146215367,10004,0.129761,0.631714,0.723633,529
146225371,10004,0.128662,0.631470,0.724609,536
146235377,10006,0.128418,0.630249,0.723877,540
146245387,10010,0.128784,0.627930,0.721680,553
146255366,9979,0.129028,0.629272,0.721436,560
146265381,10015,0.127930,0.630859,0.723022,568
146275381,10000,0.128418,0.631714,0.723145,573
146285370,9989,0.127808,0.630737,0.722900,575
146295365,9995,0.127930,0.630615,0.722900,571
146305382,10017,0.127563,0.630493,0.721924,576
146315376,9994,0.127808,0.630005,0.722046,576
146325373,9997,0.128540,0.630127,0.721436,576
146335380,10007,0.129028,0.632202,0.723755,569
146345380,10000,0.129517,0.632690,0.723999,569
146355363,9983,0.129761,0.631836,0.723145,566
146365362,9999,0.127319,0.631348,0.721191,564
146375367,10005,0.127441,0.630859,0.722168,562
146385369,10002,0.128418,0.631592,0.720703,557
146395386,10017,0.129883,0.630249,0.720581,559
146405389,10003,0.129272,0.629883,0.722778,552
146415372,9983,0.129028,0.630127,0.723267,552
146425383,10011,0.129395,0.631958,0.725708,547
146435377,9994,0.128662,0.630615,0.722534,540
146445384,10007,0.129517,0.630859,0.721680,540
146455390,10006,0.129883,0.632202,0.721069,529
146465408,10018,0.127441,0.631104,0.720215,529
146475389,9981,0.126709,0.632324,0.720337,526
146485386,9997,0.130005,0.632202,0.721436,519
146495361,9975,0.130859,0.630493,0.723145,512
146505387,10026,0.126465,0.630493,0.721924,515
146515381,9994,0.130249,0.630493,0.722656,516
146525406,10025,0.129639,0.630737,0.722412,513
146535381,9975,0.127075,0.630737,0.721313,511
146545361,9980,0.129761,0.630493,0.723511,510
146555373,10012,0.127441,0.630859,0.723755,509
146565363,9990,0.128296,0.631836,0.722656,511
146575376,10013,0.127686,0.631348,0.722168,508
146585367,9991,0.128540,0.630859,0.723755,508
146595373,10006,0.129150,0.630981,0.723145,503
146605379,10006,0.128418,0.630615,0.720459,502
146615381,10002,0.129272,0.631592,0.722290,508
146625387,10006,0.128296,0.631958,0.723389,509
146635417,10030,0.129028,0.630493,0.722290,505
146645371,9954,0.128906,0.629761,0.723145,504
146655372,10001,0.128540,0.630493,0.724487,504
146665360,9988,0.128540,0.630249,0.723267,505
146675382,10022,0.128540,0.630371,0.721924,504
146685382,10000,0.127319,0.630127,0.721069,502
146695380,9998,0.128540,0.630859,0.722168,504
146705389,10009,0.127808,0.630493,0.722656,505
146715364,9975,0.128662,0.630493,0.723389,503
146725378,10014,0.128174,0.630981,0.723145,505
146735368,9990,0.126953,0.630127,0.722168,500
146745386,10018,0.127441,0.629761,0.721313,504
146755365,9979,0.127930,0.629639,0.722534,501
146765381,10016,0.130493,0.632568,0.724243,502
146775376,9995,0.128662,0.632080,0.723755,506
146785363,9987,0.129395,0.631714,0.722412,506
146795409,10046,0.128784,0.629395,0.720825,507
146805370,9961,0.127930,0.630005,0.723511,498
146815369,9999,0.128784,0.630737,0.724121,501
146825381,10012,0.128906,0.630859,0.723511,502
146835363,9982,0.128906,0.630005,0.723755,497
146845365,10002,0.129272,0.629639,0.723145,502
146855374,10009,0.129272,0.629272,0.723389,493
146865365,9991,0.129517,0.629395,0.723511,499
146875365,10000,0.128296,0.629883,0.723022,490
146885361,9996,0.130371,0.635010,0.723755,489
146895377,10016,0.128174,0.630005,0.723267,498
146905364,9987,0.126343,0.630127,0.723145,493
146915365,10001,0.129150,0.629028,0.721924,492
146925363,9998,0.129028,0.630127,0.721680,488
146935370,10007,0.130371,0.634399,0.725220,493
146945387,10017,0.131470,0.632690,0.727295,489
146955374,9987,0.129028,0.630127,0.722656,494
146965372,9998,0.129883,0.628296,0.721069,490
146975374,10002,0.127686,0.630127,0.719971,496
146985368,9994,0.129517,0.632935,0.724609,491
146995388,10020,0.128296,0.629761,0.723633,498
147005365,9977,0.128052,0.629028,0.722534,492
147015366,10001,0.128296,0.629150,0.720947,496
147025394,10028,0.129272,0.628296,0.720703,490
147035366,9972,0.130371,0.631714,0.725708,498
147045388,10022,0.129883,0.632080,0.725586,501
147055362,9974,0.128906,0.631470,0.724243,501
147065386,10024,0.127930,0.631470,0.721313,505
147075383,9997,0.127319,0.628418,0.719604,512
147085386,10003,0.129272,0.631226,0.724609,517
147095381,9995,0.129150,0.632202,0.725098,525
147105365,9984,0.129395,0.631714,0.725220,535
147115367,10002,0.127808,0.629028,0.722778,540
147125360,9993,0.130005,0.628052,0.720703,552
147135402,10042,0.130737,0.627930,0.723267,557
147145380,9978,0.126953,0.631958,0.724731,561
147155377,9997,0.128174,0.630859,0.721313,568
147165364,9987,0.128906,0.630615,0.720825,578
147175372,10008,0.129639,0.629395,0.720093,578
147185390,10018,0.128418,0.629639,0.722778,581
147195364,9974,0.129761,0.631836,0.724243,581
147205364,10000,0.130371,0.630981,0.724609,579
147215364,10000,0.129761,0.631592,0.723389,578
147225362,9998,0.127197,0.630859,0.720581,576
147235369,10007,0.128784,0.629272,0.720215,570
147245388,10019,0.129395,0.630127,0.722900,563
147255389,10001,0.127197,0.632202,0.726562,563
147265369,9980,0.129395,0.630859,0.722046,564
147275363,9994,0.119995,0.630493,0.715698,563
147285365,10002,0.139648,0.632568,0.713867,560
147295401,10036,0.133789,0.638062,0.721313,554
147305389,9988,0.127319,0.631104,0.732788,552
147315372,9983,0.127197,0.627686,0.721802,551
147325389,10017,0.124146,0.626709,0.708862,540
147335372,9983,0.130859,0.632446,0.711792,540
147345389,10017,0.128296,0.637695,0.729858,535
147355400,10011,0.122559,0.641602,0.729980,525
147365382,9982,0.130737,0.627075,0.713379,530
147375362,9980,0.137085,0.629272,0.709717,526
147385365,10003,0.134155,0.629883,0.723511,517
147395368,10003,0.126221,0.631958,0.729980,520
147405366,9998,0.123047,0.633911,0.729858,520
147415383,10017,0.122070,0.625122,0.711182,518
147425383,10000,0.127197,0.634155,0.717041,515
147435385,10002,0.131226,0.636597,0.725098,513
147445360,9975,0.129517,0.632080,0.730225,515
147455379,10019,0.132202,0.635132,0.724854,513
147465389,10010,0.129028,0.621826,0.713135,509
147475374,9985,0.128662,0.627808,0.718140,517
147485376,10002,0.127563,0.633545,0.727539,506
147495377,10001,0.126221,0.639648,0.730957,504
147505380,10003,0.126709,0.637939,0.725952,503
147515361,9981,0.127808,0.637329,0.719238,501
147525386,10025,0.125122,0.622192,0.719604,501
147535381,9995,0.128540,0.625732,0.722412,500
147545366,9985,0.132080,0.635864,0.725586,499
147555387,10021,0.133057,0.635986,0.723633,493
147565376,9989,0.130493,0.637451,0.724609,496
147575387,10011,0.125977,0.631348,0.721680,491
147585390,10003,0.124268,0.629395,0.720215,495
147595372,9982,0.123535,0.630005,0.719604,493
147605367,9995,0.125610,0.629639,0.722900,485
147615367,10000,0.126953,0.631348,0.723877,492
147625411,10044,0.127563,0.632202,0.721680,485
147635374,9963,0.130859,0.634033,0.719360,483
147645382,10008,0.129517,0.632568,0.721558,487
147655388,10006,0.127808,0.630981,0.724976,489
147665387,9999,0.125977,0.630127,0.724731,489
147675374,9987,0.126343,0.630981,0.721680,491
147685406,10032,0.127563,0.633545,0.720093,494
147695362,9956,0.128296,0.632446,0.722778,492
147705367,10005,0.126465,0.633667,0.725830,489
147715384,10017,0.125610,0.633423,0.723755,495
147725362,9978,0.130127,0.630371,0.719360,489
147735368,10006,0.130371,0.630371,0.721558,491
147745390,10022,0.128052,0.631104,0.724731,491
147755365,9975,0.130249,0.635498,0.727905,491
147765363,9998,0.127563,0.634033,0.723633,490
147775369,10006,0.126343,0.632324,0.720825,488
147785365,9996,0.126221,0.628906,0.718750,489
147795380,10015,0.128052,0.631592,0.721313,488
147805387,10007,0.129395,0.634644,0.723145,490
147815366,9979,0.130249,0.635132,0.722778,486
147825381,10015,0.130127,0.635010,0.720947,490
147835363,9982,0.128174,0.632324,0.721924,484
147845372,10009,0.125854,0.629761,0.721191,492
147855360,9988,0.128784,0.633301,0.723145,485
147865379,10019,0.127075,0.633179,0.723877,475
147875372,9993,0.127563,0.631714,0.722046,487
147885386,10014,0.129150,0.631714,0.720947,491
147895383,9997,0.129150,0.630127,0.721313,492
147905381,9998,0.128296,0.633423,0.721313,492
147915367,9986,0.129150,0.632690,0.723633,490
147925378,10011,0.127686,0.631348,0.722046,493
147935360,9982,0.128906,0.631226,0.721680,490
147945383,10023,0.126953,0.631714,0.722046,496
147955368,9985,0.125488,0.628296,0.723511,493
147965369,10001,0.128296,0.629517,0.725098,494
147975364,9995,0.130493,0.631348,0.724609,498
147985370,10006,0.130005,0.632812,0.723389,501
147995367,9997,0.130371,0.633667,0.722900,504
148005360,9993,0.128418,0.632080,0.724121,510
148015380,10020,0.125610,0.627686,0.722046,516
148025391,10011,0.126343,0.627197,0.722778,525
148035360,9969,0.128052,0.629761,0.723145,534
148045361,10001,0.128784,0.632202,0.723389,539
148055372,10011,0.131226,0.634766,0.724976,551
148065381,10009,0.127808,0.629150,0.723633,549
148075360,9979,0.127197,0.626343,0.723389,562
148085378,10018,0.127930,0.627441,0.722656,565
148095375,9997,0.127197,0.629761,0.723267,569
148105380,10005,0.128418,0.631592,0.724243,568
148115365,9985,0.127808,0.630615,0.723145,568
148125371,10006,0.127563,0.629517,0.722900,559
148135417,10046,0.128662,0.628784,0.724365,564
148145389,9972,0.126953,0.628418,0.723633,562
148155387,9998,0.129761,0.628906,0.723633,555
148165373,9986,0.131470,0.631958,0.724609,552
148175383,10010,0.127075,0.630737,0.723389,549
148185360,9977,0.126831,0.630127,0.723755,547
148195361,10001,0.126831,0.629639,0.724609,542
148205390,10029,0.126343,0.629761,0.724121,539
148215385,9995,0.128052,0.630737,0.723877,537
148225363,9978,0.130005,0.629272,0.723633,534
148235377,10014,0.129395,0.629639,0.722656,532
148245368,9991,0.129517,0.629639,0.724121,521
148255387,10019,0.128296,0.630493,0.723755,523
148265360,9973,0.128662,0.632324,0.723755,520
148275368,10008,0.128540,0.632812,0.723877,519
148285367,9999,0.126953,0.628296,0.722534,510
148295379,10012,0.127319,0.627441,0.722534,512
148305365,9986,0.127930,0.628174,0.724976,520
148315393,10028,0.127930,0.629883,0.724487,509
148325381,9988,0.129517,0.629395,0.724243,508
148335366,9985,0.129150,0.629272,0.723511,509
148345374,10008,0.127808,0.628540,0.723877,506
148355368,9994,0.128906,0.630005,0.724731,510
148365383,10015,0.127686,0.631958,0.726440,509
148375385,10002,0.127441,0.630859,0.725586,508
148385379,9994,0.128052,0.631104,0.721924,509
148395380,10001,0.127319,0.627686,0.720459,507
148405361,9981,0.128418,0.627197,0.723511,505
148415389,10028,0.129761,0.629395,0.727051,499
148425385,9996,0.130249,0.632202,0.727783,506
148435386,10001,0.130981,0.632690,0.725952,495
148445365,9979,0.125977,0.627075,0.720093,484
148455375,10010,0.126221,0.625366,0.720947,491
148465389,10014,0.126709,0.628662,0.723755,495
148475376,9987,0.127563,0.631226,0.726807,493
148485386,10010,0.127441,0.632324,0.726318,491
148495385,9999,0.130127,0.630249,0.723145,491
148505360,9975,0.130859,0.629150,0.723022,483
148515362,10002,0.129517,0.628174,0.724243,489
148525389,10027,0.127686,0.627930,0.725708,489
148535384,9995,0.127441,0.630005,0.725952,489
148545399,10015,0.128784,0.630981,0.724243,489
148555385,9986,0.129028,0.628906,0.721558,490
148565364,9979,0.128418,0.627930,0.723511,488
148575385,10021,0.127563,0.628662,0.724487,486
148585375,9990,0.128906,0.629639,0.726196,484
148595386,10011,0.130371,0.630005,0.726562,487
148605373,9987,0.129272,0.629150,0.723022,483
148615362,9989,0.127441,0.628418,0.722900,485
148625364,10002,0.126831,0.628540,0.724609,489
148635382,10018,0.125488,0.629150,0.726074,489
148645362,9980,0.127075,0.629272,0.726685,490
148655374,10012,0.127686,0.629395,0.724365,488
148665368,9994,0.129150,0.629639,0.723511,489
148675373,10005,0.126953,0.628662,0.723755,481
148685384,10011,0.129272,0.629761,0.723755,480
148695386,10002,0.129517,0.628540,0.724487,486
148705370,9984,0.129150,0.631592,0.723999,482
148715382,10012,0.129150,0.631226,0.723145,488
148725381,9999,0.129272,0.629150,0.723755,489
148735378,9997,0.128906,0.627686,0.724243,482
148745362,9984,0.126465,0.628174,0.724487,489
148755386,10024,0.127930,0.629150,0.724731,482
148765389,10003,0.129883,0.629028,0.723633,487
148775374,9985,0.129150,0.629395,0.725342,483
148785379,10005,0.128662,0.628052,0.724976,487
148795366,9987,0.129272,0.628418,0.725342,483
148805368,10002,0.128418,0.627930,0.727051,488
148815368,10000,0.128906,0.628906,0.725708,490
148825376,10008,0.129517,0.632202,0.723511,491
148835376,10000,0.128418,0.630859,0.723267,490
148845377,10001,0.127930,0.628174,0.723022,503
148855368,9991,0.128296,0.628296,0.723022,508
148865376,10008,0.128784,0.627075,0.724609,515
148875376,10000,0.130493,0.630249,0.728027,526
148885374,9998,0.131104,0.632080,0.727173,533
148895371,9997,0.129639,0.630737,0.723877,542
148905374,10003,0.126587,0.628540,0.721924,548
148915364,9990,0.125854,0.628174,0.722656,549
148925386,10022,0.127075,0.627563,0.724487,555
148935386,10000,0.128906,0.630127,0.724854,561
148945363,9977,0.130737,0.630371,0.725342,564
148955377,10014,0.129639,0.630005,0.723633,557
148965367,9990,0.128784,0.630127,0.723145,563
148975365,9998,0.128296,0.629150,0.723877,559
148985365,10000,0.127930,0.625854,0.724121,559
148995372,10007,0.129517,0.629517,0.725098,558
149005387,10015,0.128662,0.632080,0.725342,555
149015387,10000,0.129150,0.633179,0.724243,552
149025367,9980,0.128906,0.631104,0.723877,558
149035385,10018,0.127441,0.629150,0.722656,555
149045389,10004,0.128662,0.629639,0.722778,538
149055398,10009,0.129517,0.630005,0.725586,542
149065374,9976,0.130249,0.630859,0.725342,533
149075387,10013,0.131592,0.630859,0.724731,533
149085368,9981,0.129883,0.630615,0.725342,530
149095380,10012,0.126953,0.629395,0.722412,521
149105372,9992,0.126221,0.629517,0.723145,520
149115381,10009,0.128296,0.629395,0.723633,520
149125365,9984,0.129150,0.630249,0.724365,520
149135365,10000,0.130127,0.631226,0.725830,511
149145378,10013,0.129395,0.629272,0.723389,512
149155366,9988,0.129028,0.628418,0.722168,512
149165380,10014,0.128418,0.628662,0.723999,506
149175371,9991,0.127930,0.629272,0.723633,508
149185375,10004,0.128906,0.631104,0.724243,506
149195372,9997,0.128418,0.632324,0.723145,507
149205379,10007,0.128784,0.628784,0.723999,503
149215376,9997,0.128174,0.628906,0.724243,503
149225373,9997,0.127686,0.629028,0.723389,503
149235364,9991,0.129639,0.629150,0.724487,501
149245367,10003,0.128540,0.631226,0.724243,496
149255384,10017,0.130005,0.631226,0.723511,502
149265384,10000,0.129028,0.631348,0.723877,501
149275380,9996,0.127197,0.629517,0.723267,499
149285366,9986,0.127808,0.629028,0.722900,499
149295389,10023,0.128418,0.628906,0.723511,498
149305369,9980,0.128906,0.630005,0.724243,496
149315388,10019,0.128906,0.630127,0.723633,492
149325373,9985,0.129028,0.628784,0.723999,494
149335380,10007,0.127441,0.627563,0.723877,493
149345377,9997,0.127319,0.628662,0.723755,488
149359314,13937,0.129761,0.630859,0.724731,485
149365385,6071,0.000000,0.000000,0.000000,491
149375388,10003,0.128174,0.630615,0.723267,486
149385376,9988,0.128540,0.629517,0.722412,481
149395384,10008,0.128418,0.629150,0.723145,485
149405368,9984,0.127686,0.629028,0.723389,483
149415381,10013,0.129395,0.630493,0.725586,487
149425386,10005,0.131104,0.631226,0.725830,484
149435386,10000,0.129639,0.629150,0.723145,479
149445375,9989,0.128418,0.628052,0.723511,485
149455372,9997,0.128296,0.628418,0.723999,484
149465374,10002,0.128418,0.630737,0.724976,479
149475364,9990,0.128784,0.629883,0.723389,486
149485383,10019,0.128540,0.630127,0.722412,488
149495362,9979,0.128296,0.629150,0.722168,486
149505388,10026,0.128052,0.628418,0.723633,488
149515384,9996,0.127441,0.628906,0.724487,486
149525364,9980,0.127930,0.630371,0.723755,480
149535382,10018,0.130005,0.630493,0.723022,479
149545387,10005,0.129150,0.631592,0.723633,486
149555384,9997,0.129028,0.631958,0.724609,484
149565360,9976,0.126953,0.629272,0.720947,484
149575380,10020,0.128296,0.628174,0.721924,478
149585390,10010,0.129395,0.629150,0.723389,483
149595383,9993,0.128540,0.631836,0.724365,482
149605370,9987,0.129761,0.631348,0.724121,476
149615384,10014,0.128540,0.629395,0.723633,477
149625374,9990,0.127319,0.628296,0.723999,480
149635382,10008,0.128418,0.629639,0.724487,478
149645381,9999,0.129883,0.629639,0.723999,488
149655365,9984,0.130371,0.629761,0.723999,491
149665389,10024,0.129883,0.630493,0.723999,490
149675381,9992,0.128418,0.631592,0.723389,490
149685390,10009,0.128296,0.630005,0.723022,495
149695388,9998,0.128052,0.629517,0.724121,497
149705377,9989,0.128174,0.629639,0.723267,512
149715378,10001,0.129883,0.630249,0.723999,511
149725382,10004,0.130005,0.630615,0.723999,523
149735386,10004,0.128540,0.630615,0.724243,529
149745381,9995,0.127563,0.630371,0.723267,538
149755387,10006,0.127563,0.630249,0.722778,541
149765371,9984,0.128174,0.630371,0.723022,552
149775377,10006,0.129150,0.629395,0.723633,552
149785364,9987,0.129639,0.630737,0.723633,558
149795363,9999,0.129272,0.631836,0.724121,560
149805381,10018,0.129150,0.629639,0.722900,557
149815382,10001,0.127319,0.629883,0.722412,562
149825373,9991,0.127563,0.629272,0.722412,558
149835370,9997,0.127563,0.628418,0.723022,556
149845377,10007,0.129395,0.630127,0.724487,554
149855371,9994,0.130737,0.632568,0.724731,552
149865382,10011,0.128906,0.632568,0.724121,545
149875360,9978,0.128296,0.632080,0.722168,550
149885366,10006,0.127563,0.630859,0.721924,541
149895387,10021,0.128174,0.629150,0.720215,542
149905362,9975,0.127441,0.629395,0.726074,542
149915385,10023,0.129883,0.631836,0.724854,538
149925366,9981,0.128906,0.632324,0.722656,532
149935378,10012,0.128906,0.629150,0.720825,532
149945379,10001,0.128540,0.628784,0.722412,523
149955361,9982,0.128296,0.630249,0.724121,527
149965380,10019,0.129639,0.633545,0.724731,523
149975377,9997,0.129150,0.631104,0.723267,520
149985379,10002,0.128540,0.627808,0.721558,516
149995373,9994,0.128174,0.628418,0.722778,514
150005372,9999,0.128174,0.630249,0.723877,507
150015384,10012,0.126831,0.630615,0.723511,507
150025371,9987,0.128906,0.631226,0.722290,505
150035401,10030,0.130127,0.631348,0.722168,505
150045374,9973,0.128784,0.630737,0.723022,507
150055387,10013,0.129150,0.632202,0.724243,505
150065375,9988,0.127563,0.631226,0.723755,499
150075388,10013,0.128662,0.629395,0.723633,502
150085375,9987,0.127686,0.629150,0.723755,502
150095368,9993,0.127686,0.629517,0.723877,499
150105375,10007,0.127686,0.630127,0.723755,496
150115363,9988,0.127319,0.630615,0.724487,501
150125379,10016,0.127686,0.631714,0.723267,497
150135385,10006,0.129517,0.631592,0.720337,497
150145372,9987,0.128540,0.629761,0.720703,495
150155364,9992,0.127686,0.629395,0.722412,493
150165366,10002,0.128296,0.630981,0.724365,486
150176521,11155,0.128052,0.631592,0.722900,488
150185368,8847,0.127686,0.630127,0.723022,486
150195384,10016,0.128296,0.629883,0.723633,492
150205370,9986,0.129150,0.630249,0.724487,492
150215394,10024,0.127808,0.630737,0.724976,491
150225377,9983,0.129761,0.630615,0.724976,491
150235386,10009,0.130005,0.630615,0.722412,490
150245374,9988,0.128174,0.631592,0.721558,491
150255369,9995,0.127808,0.629883,0.721802,489
150265386,10017,0.127319,0.629517,0.722778,483
150275363,9977,0.128784,0.629395,0.723755,490
150285381,10018,0.128296,0.630005,0.725220,490
150295386,10005,0.128174,0.630615,0.724854,492
150305370,9984,0.127930,0.630493,0.724365,488
150315372,10002,0.128540,0.629883,0.723999,494
150325370,9998,0.128052,0.631592,0.722778,492
150335390,10020,0.126465,0.630737,0.723877,494
150345373,9983,0.127075,0.630737,0.722534,493
150355380,10007,0.126831,0.631104,0.721436,490
150365367,9987,0.126709,0.629517,0.722778,492
150375360,9993,0.127563,0.629761,0.723999,492
150385372,10012,0.127930,0.631592,0.723145,487
150395364,9992,0.128418,0.630981,0.725586,489
150405365,10001,0.128296,0.631714,0.725098,488
150415386,10021,0.127319,0.631592,0.723267,487
150425363,9977,0.127686,0.630249,0.721680,487
150435388,10025,0.126465,0.630127,0.721069,482
150445361,9973,0.126587,0.631104,0.722534,484
150455404,10043,0.128296,0.632080,0.724243,486
150465387,9983,0.128052,0.629761,0.723877,487
150475387,10000,0.128662,0.628540,0.724121,484
150485375,9988,0.130127,0.630493,0.724976,487
150495368,9993,0.129761,0.630859,0.726440,489
150505380,10012,0.127930,0.630005,0.721313,495
150515381,10001,0.126953,0.630493,0.721436,499
150525369,9988,0.126831,0.629761,0.721313,508
150535387,10018,0.128052,0.630859,0.722900,509
150545373,9986,0.127686,0.631592,0.723511,517
150555372,9999,0.128296,0.631470,0.722778,532
150565390,10018,0.130249,0.630493,0.721802,541
150575379,9989,0.128784,0.630981,0.721069,551
150585384,10005,0.128418,0.629883,0.722290,552
150595372,9988,0.128906,0.630127,0.722778,554
150605377,10005,0.128540,0.632324,0.723755,567
150615384,10007,0.128174,0.630981,0.723877,563
150625367,9983,0.127930,0.629150,0.721436,568
150635381,10014,0.128174,0.628296,0.723145,565
150645360,9979,0.128540,0.629761,0.723755,567
150655383,10023,0.128052,0.630371,0.724854,560
150665380,9997,0.128540,0.630981,0.723511,560
150675370,9990,0.129028,0.631958,0.723145,562
150685367,9997,0.127808,0.632202,0.723145,559
150695366,9999,0.128296,0.631592,0.723145,557
150705373,10007,0.127930,0.632080,0.723633,555
150715366,9993,0.129028,0.632690,0.722534,551
150725385,10019,0.129028,0.630981,0.723389,550
150735409,10024,0.127319,0.629761,0.723999,545
150745388,9979,0.128906,0.629883,0.723633,542
150755372,9984,0.127319,0.629028,0.723511,537
150765368,9996,0.127441,0.629761,0.724487,536
150775380,10012,0.128296,0.631836,0.723511,529
150785371,9991,0.127686,0.629883,0.722900,526
150795388,10017,0.127441,0.629761,0.723511,521
150805399,10011,0.128174,0.630737,0.722900,519
150815363,9964,0.127930,0.632080,0.723511,507
150825378,10015,0.128052,0.631714,0.723389,506
150835385,10007,0.129150,0.631714,0.723511,509
150845366,9981,0.128174,0.630859,0.722168,506
150855386,10020,0.129761,0.630859,0.723389,506
150865372,9986,0.127808,0.630127,0.724976,498
150875381,10009,0.127808,0.631104,0.724121,504
150885368,9987,0.128296,0.630615,0.723022,502
150895378,10010,0.128052,0.629761,0.723511,500
150905361,9983,0.129150,0.630737,0.723267,501
150915390,10029,0.129028,0.630249,0.723877,497
150925361,9971,0.128052,0.630249,0.723877,497
150935362,10001,0.127808,0.631226,0.723267,498
150945384,10022,0.128784,0.629272,0.723999,498
150955382,9998,0.130005,0.629517,0.722656,496
150965375,9993,0.129028,0.626831,0.724121,496
150975401,10026,0.127563,0.630859,0.728882,490
150985366,9965,0.128906,0.630127,0.728516,498
150995387,10021,0.127808,0.631348,0.724365,492
151005361,9974,0.128540,0.629761,0.723999,496
151015372,10011,0.128906,0.628784,0.722778,487
151025379,10007,0.129150,0.630371,0.725586,494
151035384,10005,0.128418,0.632202,0.727051,489
151045361,9977,0.130493,0.629883,0.723633,487
151055362,10001,0.128662,0.629639,0.723511,488
151065371,10009,0.128540,0.628418,0.721802,488
151075382,10011,0.128540,0.627930,0.723511,485
151085367,9985,0.128296,0.628906,0.725098,480
151095384,10017,0.128174,0.629761,0.726562,485
151105363,9979,0.130493,0.630371,0.725464,481
151115372,10009,0.129272,0.630249,0.723999,483
151125362,9990,0.128662,0.630249,0.724243,482
151135363,10001,0.128052,0.630249,0.724121,480
151145376,10013,0.127808,0.628784,0.723267,482
151155367,9991,0.128906,0.630127,0.724243,480
151165382,10015,0.129150,0.629150,0.723633,482
151175372,9990,0.130127,0.629639,0.725342,475
151185378,10006,0.129028,0.632690,0.725220,481
151195379,10001,0.128418,0.630737,0.724609,482
151205374,9995,0.129517,0.630371,0.723633,483
151215362,9988,0.127808,0.630127,0.722412,484
151225382,10020,0.128540,0.631104,0.723267,477
151235388,10006,0.128418,0.630737,0.723389,477
151245383,9995,0.127930,0.629883,0.723511,482
151255380,9997,0.127930,0.628906,0.723511,482
151265382,10002,0.130981,0.630249,0.724854,484
151275366,9984,0.132080,0.629395,0.724365,484
151285364,9998,0.129028,0.630249,0.725098,483
151295381,10017,0.128906,0.630005,0.725586,490
151305360,9979,0.129883,0.631226,0.724609,492
151315361,10001,0.129272,0.631470,0.723267,493
151325388,10027,0.127930,0.629883,0.723511,504
151335384,9996,0.127197,0.630737,0.723389,516
151345390,10006,0.128662,0.629883,0.723877,517
151355365,9975,0.127808,0.629395,0.724487,525
151365381,10016,0.129150,0.628906,0.725586,539
151375388,10007,0.130371,0.630615,0.723999,536
151385361,9973,0.129150,0.630981,0.722778,548
151395368,10007,0.129395,0.630371,0.722900,556
151405364,9996,0.127930,0.631348,0.723755,562
151415365,10001,0.127441,0.630249,0.722412,564
151425417,10052,0.128052,0.629883,0.724731,569
151435379,9962,0.127686,0.629761,0.723511,570
151445386,10007,0.128174,0.629150,0.723877,571
151455378,9992,0.128784,0.629761,0.723755,571
151465360,9982,0.128784,0.630371,0.725098,567
151475383,10023,0.127930,0.630127,0.725220,564
151485389,10006,0.129761,0.630127,0.722900,556
151495379,9990,0.127930,0.629883,0.723145,553
151505386,10007,0.128296,0.629761,0.723389,553
151515363,9977,0.127563,0.632080,0.723999,546
151525365,10002,0.128418,0.631348,0.723389,545
151535363,9998,0.129395,0.630005,0.723145,545
151545363,10000,0.130127,0.630371,0.723389,541
151555382,10019,0.129028,0.630493,0.723755,535
151565361,9979,0.130249,0.629883,0.723511,534
151575364,10003,0.129761,0.631348,0.724121,532
151585389,10025,0.129883,0.632935,0.723511,529
151595386,9997,0.126709,0.631348,0.721924,528
151605362,9976,0.127197,0.631226,0.723022,517
151615373,10011,0.128052,0.630615,0.723022,520
151626523,11150,0.128418,0.629883,0.723022,517
151635362,8839,0.128662,0.628296,0.723755,514
151645372,10010,0.128296,0.629395,0.723511,509
151655361,9989,0.130737,0.629761,0.724487,510
151665381,10020,0.129761,0.631226,0.724609,509
151675389,10008,0.129395,0.630249,0.724487,509
151685367,9978,0.129761,0.632812,0.724365,504
151695382,10015,0.129272,0.631714,0.723022,500
151705384,10002,0.128784,0.631348,0.723022,508
151715381,9997,0.128052,0.630737,0.722900,501
151725366,9985,0.128052,0.631958,0.723267,508
151735384,10018,0.128052,0.632935,0.724121,504
151745372,9988,0.127563,0.632080,0.723022,501
151755369,9997,0.127563,0.628174,0.723145,502
151765365,9996,0.128174,0.626831,0.723267,499
151775382,10017,0.127319,0.625732,0.726929,497
151785390,10008,0.129517,0.627686,0.728271,489
151795375,9985,0.128784,0.630981,0.727661,489
151805377,10002,0.128418,0.631958,0.723389,485
151815363,9986,0.128174,0.630859,0.722168,491
151825364,10001,0.125854,0.632446,0.721802,490
151835374,10010,0.125977,0.632446,0.721558,487
151845374,10000,0.126587,0.633301,0.723145,483
151855381,10007,0.127319,0.632935,0.723511,486
151865371,9990,0.127441,0.629883,0.724731,479
151875381,10010,0.127930,0.628784,0.724243,476
151885367,9986,0.127319,0.627808,0.723877,481
151895383,10016,0.127319,0.627563,0.723511,475
151905375,9992,0.128418,0.629272,0.723633,481
151915375,10000,0.127686,0.632935,0.724365,478
151925367,9992,0.127686,0.632324,0.722778,480
151935369,10002,0.127563,0.632812,0.723633,488
151945373,10004,0.127075,0.633057,0.722900,491
151955384,10011,0.126709,0.630859,0.720093,492
151965368,9984,0.128052,0.633423,0.721680,491
151975363,9995,0.127563,0.633423,0.722412,493
151985370,10007,0.127808,0.631470,0.721313,498
151995378,10008,0.126221,0.628906,0.722290,500
152005361,9983,0.128296,0.626953,0.723633,504
152015368,10007,0.128052,0.629150,0.724731,501
152025388,10020,0.129639,0.630127,0.725952,509
152035367,9979,0.130493,0.632202,0.726440,505
152045383,10016,0.128174,0.632080,0.725952,512
152055364,9981,0.127319,0.630127,0.723145,509
152065368,10004,0.126099,0.628418,0.722412,514
152075387,10019,0.128418,0.628784,0.724609,512
152085362,9975,0.130127,0.630737,0.727173,513
152095400,10038,0.129395,0.631958,0.727783,513
152105367,9967,0.129150,0.632812,0.726685,510
152115387,10020,0.129150,0.630859,0.723511,510
152125380,9993,0.127075,0.628296,0.721313,507
152135385,10005,0.128052,0.628906,0.725220,510
152145376,9991,0.128662,0.630371,0.726807,507
152155375,9999,0.130859,0.631226,0.727417,514
152165376,10001,0.130737,0.629639,0.725830,512
152175368,9992,0.128052,0.627808,0.724976,523
152185386,10018,0.126709,0.627686,0.723389,529
152195374,9988,0.127441,0.628662,0.723877,538
152205383,10009,0.128052,0.630005,0.723755,535
152215376,9993,0.128296,0.631104,0.723877,544
152225368,9992,0.129150,0.632690,0.724121,549
152235390,10022,0.128418,0.631348,0.722656,559
152245388,9998,0.127930,0.627563,0.723877,557
152255376,9988,0.130615,0.629150,0.725586,558
152265363,9987,0.129028,0.631104,0.724609,555
152275374,10011,0.130859,0.630859,0.724609,562
152285363,9989,0.129272,0.631592,0.723877,557
152295389,10026,0.128296,0.630493,0.723267,559
152305370,9981,0.126221,0.631104,0.723267,553
152315372,10002,0.125977,0.630371,0.723511,556
152325377,10005,0.127808,0.629272,0.721313,558
152335384,10007,0.129761,0.629150,0.721313,554
152345382,9998,0.130249,0.628906,0.725586,553
152355377,9995,0.128418,0.628784,0.728271,552
152365381,10004,0.128296,0.628784,0.726929,542
152375362,9981,0.129028,0.629517,0.725830,545
152385363,10001,0.129150,0.629517,0.724121,530
152395385,10022,0.128296,0.630249,0.724121,535
152405362,9977,0.127930,0.631470,0.724243,529
152415384,10022,0.125610,0.630249,0.724731,519
152425384,10000,0.126343,0.630615,0.724243,518
152435413,10029,0.127197,0.630127,0.721558,518
152445370,9957,0.128052,0.628540,0.721680,512
152455375,10005,0.129395,0.629272,0.725952,510
152465383,10008,0.128906,0.632446,0.725830,511
152475367,9984,0.129150,0.632568,0.725708,511
152485378,10011,0.128662,0.629883,0.725464,505
152495374,9996,0.127319,0.629883,0.724365,507
152505368,9994,0.127319,0.628662,0.723267,505
152515388,10020,0.126221,0.630493,0.725830,509
152525375,9987,0.126221,0.629395,0.726196,510
152535370,9995,0.126465,0.630005,0.724731,508
152545361,9991,0.127563,0.628784,0.722656,508
152555385,10024,0.127930,0.626953,0.722778,506
152565386,10001,0.125854,0.630981,0.731812,499
152575386,10000,0.129639,0.626831,0.724243,504
152585385,9999,0.133179,0.637207,0.736694,506
152595365,9980,0.127563,0.631226,0.729492,503
152605375,10010,0.129883,0.622803,0.724121,500
152615382,10007,0.129395,0.623901,0.722412,501
152625365,9983,0.131836,0.626831,0.730103,494
152635360,9995,0.130127,0.633301,0.735474,497
152645370,10010,0.128418,0.630371,0.725952,494
152655363,9993,0.129272,0.626953,0.726074,494
152665387,10024,0.127563,0.629883,0.725098,494
152675389,10002,0.126099,0.629272,0.726562,488
152685400,10011,0.127441,0.628784,0.726562,487
152695361,9961,0.126831,0.628418,0.724365,489
152705366,10005,0.127808,0.627563,0.724121,485
152715372,10006,0.128174,0.627319,0.724121,483
152725389,10017,0.126831,0.626953,0.727173,479
152735382,9993,0.126831,0.627808,0.727417,488
152745376,9994,0.127686,0.630249,0.727905,484
152755378,10002,0.126831,0.630737,0.727295,482
152765360,9982,0.126465,0.628784,0.723267,485
152775386,10026,0.126465,0.627075,0.721802,487
152785381,9995,0.128540,0.631226,0.727295,487
152795362,9981,0.128540,0.631348,0.726074,485
152805360,9998,0.129272,0.631836,0.725342,490
152815376,10016,0.130493,0.629028,0.724854,494
152825360,9984,0.130737,0.628540,0.723267,488
152835370,10010,0.130371,0.628662,0.726562,486
152845364,9994,0.130493,0.628296,0.727051,486
152855387,10023,0.130005,0.630371,0.726685,483
152865382,9995,0.130005,0.629517,0.724854,485
152875385,10003,0.129272,0.626831,0.724487,481
152885369,9984,0.129517,0.627686,0.724243,477
152895370,10001,0.130127,0.629150,0.726074,482
152905389,10019,0.130249,0.630615,0.725952,487
152915369,9980,0.129395,0.632324,0.724487,490
152925364,9995,0.128906,0.629761,0.721802,499
152935417,10053,0.128174,0.628906,0.721802,500
152945372,9955,0.128784,0.628418,0.727539,507
152955376,10004,0.129028,0.629639,0.729004,521
152965389,10013,0.130005,0.630249,0.725586,529
152975360,9971,0.129639,0.629150,0.723755,535
152985383,10023,0.129395,0.627197,0.723511,545
152995372,9989,0.129761,0.626099,0.725098,547
153005365,9993,0.130005,0.630127,0.726685,554
153015384,10019,0.130005,0.630005,0.724609,554
153025368,9984,0.129272,0.630615,0.723755,552
153035373,10005,0.130249,0.631104,0.723877,555
153045360,9987,0.129272,0.630371,0.723267,559
153055365,10005,0.129395,0.627686,0.725220,551
153065378,10013,0.129272,0.629028,0.726318,549
153075386,10008,0.130615,0.629517,0.725586,556
153085385,9999,0.130005,0.629028,0.723999,555
153095379,9994,0.130127,0.628906,0.724243,553
153105391,10012,0.129395,0.629883,0.723267,549
153115375,9984,0.127319,0.628906,0.725342,543
153125371,9996,0.128296,0.629272,0.725708,548
153135378,10007,0.128540,0.628540,0.724365,545
153145368,9990,0.129883,0.627319,0.725098,544
153155377,10009,0.130005,0.626953,0.724854,537
153165363,9986,0.129883,0.627686,0.728149,536
153175380,10017,0.130737,0.629272,0.727051,533
153185371,9991,0.130615,0.629639,0.725464,523
153195374,10003,0.130493,0.630737,0.725952,523
153205385,10011,0.129639,0.630859,0.724976,518
153215360,9975,0.128540,0.628052,0.725830,516
153225379,10019,0.127563,0.627441,0.725586,515
153237995,12616,0.127686,0.626587,0.726562,507
153245386,7391,0.128906,0.628540,0.726929,504
153255369,9983,0.129883,0.628540,0.725342,503
153265378,10009,0.130249,0.628174,0.726074,496
153275396,10018,0.130737,0.630493,0.726807,498
153285381,9985,0.130005,0.630371,0.726562,496
153295375,9994,0.128906,0.628906,0.723755,495
153305361,9986,0.127441,0.628784,0.723999,493
153315370,10009,0.126953,0.627930,0.723755,481
153325370,10000,0.126953,0.629883,0.724976,488
153335382,10012,0.127319,0.629395,0.725830,479
153345376,9994,0.127197,0.629761,0.724487,486
153355386,10010,0.128540,0.629883,0.723389,478
153365383,9997,0.129150,0.630127,0.722900,479
153375380,9997,0.128784,0.628296,0.722900,483
153385375,9995,0.126953,0.627563,0.723267,487
153395386,10011,0.128296,0.628540,0.725464,485
153405368,9982,0.126709,0.629639,0.727295,488
153415386,10018,0.127441,0.627441,0.728394,494
153425386,10000,0.128174,0.626465,0.727905,489
153435412,10026,0.129028,0.626587,0.730591,491
153445366,9954,0.129395,0.631348,0.729492,498
153455382,10016,0.135620,0.636353,0.730713,498
153465387,10005,0.118774,0.610840,0.726807,503
153475387,10000,0.122681,0.622559,0.720703,499
153485374,9987,0.126953,0.627563,0.730103,496
153495371,9997,0.127319,0.627197,0.729492,496
153505382,10011,0.129395,0.626587,0.730713,497
153515374,9992,0.127808,0.625000,0.729492,495
153525372,9998,0.128784,0.623657,0.728882,490
153536302,10930,0.128418,0.623291,0.727417,492
153545376,9074,0.128052,0.624268,0.727783,489
153555364,9988,0.130615,0.625977,0.731689,490
153565386,10022,0.130127,0.629272,0.731445,489
153575368,9982,0.128418,0.628906,0.727417,488
153585377,10009,0.127197,0.626221,0.726562,484
153595407,10030,0.127686,0.625977,0.728516,485
153605362,9955,0.129150,0.627808,0.731079,482
153615387,10025,0.127686,0.628174,0.730103,482
153625366,9979,0.129150,0.620850,0.727905,482
153635368,10002,0.128540,0.623657,0.728638,482
153651244,15876,0.128174,0.624268,0.729492,476
153658069,6825,0.128052,0.624390,0.728882,477
153665382,7313,0.129028,0.625000,0.726807,470
153675363,9981,0.130859,0.626343,0.724609,471
153685363,10000,0.131470,0.628296,0.725586,473
153695381,10018,0.132568,0.628418,0.728027,477
153705380,9999,0.132446,0.631226,0.729248,478
153715362,9982,0.131836,0.629639,0.729004,480
153725371,10009,0.130005,0.626221,0.726929,486
153735366,9995,0.129272,0.624756,0.727051,492
153745366,10000,0.129639,0.623657,0.726807,494
153755376,10010,0.128540,0.624634,0.730835,498
153765403,10027,0.128906,0.627441,0.730591,508
153775367,9964,0.129517,0.627930,0.727661,514
153785376,10009,0.130737,0.627563,0.724731,528
153795370,9994,0.130493,0.626099,0.723145,535
153805371,10001,0.130493,0.627197,0.725220,535
153815385,10014,0.131714,0.628174,0.729004,548
153825372,9987,0.130249,0.627441,0.728638,553
153835401,10029,0.129883,0.624878,0.726685,557
153845388,9987,0.129150,0.623047,0.727173,558
153855373,9985,0.128906,0.625122,0.726562,557
153865386,10013,0.129761,0.626709,0.725586,558
153875382,9996,0.131348,0.630493,0.726929,557
153885381,9999,0.132446,0.629761,0.726807,557
153895360,9979,0.132446,0.630981,0.725464,555
153905369,10009,0.133545,0.627808,0.725708,552
153915367,9998,0.134033,0.626587,0.725708,550
153925373,10006,0.132446,0.627197,0.727661,543
153935387,10014,0.132324,0.627197,0.726196,545
153945371,9984,0.130493,0.627686,0.727051,542
153955384,10013,0.132446,0.627808,0.725586,537
153965364,9980,0.131104,0.628296,0.725830,536
153975371,10007,0.130005,0.627441,0.725098,531
153985361,9990,0.130859,0.627319,0.724609,526
153995364,10003,0.131470,0.627441,0.723755,522
154005379,10015,0.131104,0.627686,0.725098,523
154015362,9983,0.131226,0.626953,0.728149,522
154025363,10001,0.129150,0.625000,0.730469,520
154035387,10024,0.130249,0.623779,0.728149,521
154045388,10001,0.129883,0.623169,0.728027,520
154055382,9994,0.130493,0.625244,0.727905,518
154065364,9982,0.132446,0.627075,0.725342,518
154075362,9998,0.131714,0.627808,0.726440,518
154085388,10026,0.132568,0.628784,0.728271,515
154095376,9988,0.132568,0.627808,0.727051,506
154105374,9998,0.130371,0.626953,0.725464,509
154115379,10005,0.131592,0.626221,0.727661,513
154125379,10000,0.132080,0.625732,0.728516,505
154135368,9989,0.131226,0.624878,0.729492,508
154145386,10018,0.132935,0.624512,0.729004,498
154155383,9997,0.130127,0.624268,0.729126,501
154165368,9985,0.130493,0.624146,0.728516,498
154175396,10028,0.130615,0.625610,0.728271,497
154185370,9974,0.131104,0.624756,0.727051,494
154195360,9990,0.132812,0.629028,0.728516,488
154205374,10014,0.130493,0.628662,0.727173,492
154215384,10010,0.131226,0.626343,0.726685,485
154225373,9989,0.130005,0.625122,0.727539,485
154235368,9995,0.132690,0.625244,0.728394,487
154246535,11167,0.131592,0.626709,0.728271,486
154255379,8844,0.131958,0.624756,0.729004,483
154265380,10001,0.131470,0.625000,0.728760,484
154275397,10017,0.131470,0.623291,0.727417,485
154285378,9981,0.130493,0.624390,0.727539,486
154295373,9995,0.130371,0.624146,0.727783,486
154305380,10007,0.130981,0.626465,0.728149,479
154315362,9982,0.131958,0.626099,0.727417,489
154325382,10020,0.132568,0.626709,0.728760,490
154335372,9990,0.131592,0.624878,0.727173,483
154345374,10002,0.131836,0.624146,0.727905,491
154355388,10014,0.133911,0.622925,0.729492,491
154365386,9998,0.133423,0.625610,0.730713,493
154375373,9987,0.132812,0.626587,0.730103,494
154385384,10011,0.132324,0.625000,0.728027,495
154395385,10001,0.131104,0.624390,0.729980,498
154405375,9990,0.130615,0.626831,0.731689,498
154415363,9988,0.130493,0.628296,0.728760,494
154425381,10018,0.130371,0.626465,0.726318,494
154435362,9981,0.130249,0.623535,0.724731,497
154445392,10030,0.130615,0.621948,0.726440,494
154455381,9989,0.129761,0.623413,0.728027,492
154465388,10007,0.131226,0.625366,0.729858,486
154475375,9987,0.133667,0.626221,0.730835,485
154485382,10007,0.132690,0.627197,0.730469,491
154495380,9998,0.133545,0.629028,0.728149,490
154505369,9989,0.130859,0.626465,0.727783,492
154515402,10033,0.131836,0.625854,0.726929,491
154525361,9959,0.133057,0.626709,0.727051,483
154535380,10019,0.132568,0.626343,0.727295,484
154545371,9991,0.130981,0.625366,0.727905,488
154555376,10005,0.131958,0.625244,0.728271,489
154565390,10014,0.131348,0.623047,0.728271,488
154575377,9987,0.129517,0.624268,0.727539,489
154585371,9994,0.130859,0.626221,0.727051,490
154595374,10003,0.132935,0.627319,0.724243,490
154605385,10011,0.132935,0.627441,0.725342,502
154615365,9980,0.132812,0.626221,0.727661,510
154625389,10024,0.132812,0.625366,0.730103,514
154635390,10001,0.131348,0.624878,0.728394,520
154645384,9994,0.131470,0.623047,0.728027,528
154655385,10001,0.130981,0.623901,0.727417,534
154665380,9995,0.130859,0.624268,0.727539,544
154675388,10008,0.130249,0.625854,0.726440,551
154685382,9994,0.130249,0.625610,0.727539,549
154695386,10004,0.131836,0.627197,0.727417,555
154705384,9998,0.132690,0.625854,0.726929,552
154715388,10004,0.133179,0.625366,0.726685,556
154725383,9995,0.132812,0.625122,0.728638,551
154735380,9997,0.132446,0.626709,0.728027,556
154745383,10003,0.131714,0.625122,0.727173,548
154755361,9978,0.131592,0.625244,0.728149,557
154765368,10007,0.132324,0.628174,0.728394,558
154775366,9998,0.133179,0.627197,0.728027,555
154785392,10026,0.131470,0.626709,0.729004,549
154795367,9975,0.131958,0.627563,0.727295,553
154805384,10017,0.131592,0.627808,0.726929,551
154815380,9996,0.130493,0.626343,0.724854,551
154825371,9991,0.128906,0.625488,0.725220,547
154835367,9996,0.128540,0.624512,0.724609,544
154845372,10005,0.132080,0.624878,0.728760,539
154855360,9988,0.132690,0.627930,0.731323,536
154865382,10022,0.132812,0.628174,0.731079,531
154875375,9993,0.133057,0.626953,0.729614,532
154885368,9993,0.131714,0.625122,0.727417,528
154895378,10010,0.130127,0.625488,0.725586,525
154905371,9993,0.129883,0.627075,0.727539,521
154915364,9993,0.131470,0.628540,0.728516,521
154925389,10025,0.130127,0.627563,0.727417,512
154935380,9991,0.130981,0.624512,0.726929,514
154945361,9981,0.131104,0.622681,0.727661,513
154955382,10021,0.132935,0.624634,0.729980,508
154965402,10020,0.135986,0.625977,0.733154,509
154975372,9970,0.135376,0.629272,0.730835,508
154985388,10016,0.134399,0.628662,0.728027,506
154995383,9995,0.131958,0.625732,0.725220,504
155005385,10002,0.130981,0.627441,0.727661,497
155015377,9992,0.130005,0.628540,0.726562,494
155025363,9986,0.129883,0.626343,0.725464,493
155035379,10016,0.129761,0.625366,0.723755,496
155045372,9993,0.130859,0.624268,0.724976,490
155055382,10010,0.133545,0.655640,0.729248,490
155065363,9981,0.133911,0.625732,0.729614,489
155075375,10012,0.133423,0.626465,0.728394,494
155085366,9991,0.131714,0.625000,0.725952,491
155095381,10015,0.132202,0.625000,0.726440,486
155105383,10002,0.130859,0.625366,0.726685,493
155115383,10000,0.130859,0.625732,0.729736,491
155125361,9978,0.132080,0.625000,0.729126,493
155135379,10018,0.132935,0.625000,0.727783,498
155145361,9982,0.133667,0.625366,0.727051,497
155155366,10005,0.134033,0.625977,0.726807,500
155165384,10018,0.131592,0.626343,0.727661,492
155175388,10004,0.132324,0.626099,0.727173,500
155185381,9993,0.133057,0.625854,0.727417,500
155195376,9995,0.133057,0.625732,0.726318,499
155205372,9996,0.132202,0.626221,0.728027,500
155215387,10015,0.132324,0.625244,0.729248,500
155225389,10002,0.133057,0.624634,0.729492,499
155235404,10015,0.132812,0.625366,0.727417,501
155245387,9983,0.132935,0.625244,0.727173,498
155255366,9979,0.132812,0.624390,0.726807,497
155265372,10006,0.131836,0.624268,0.726929,496
155275384,10012,0.131104,0.625977,0.729248,496
155285385,10001,0.131348,0.625977,0.729736,496
155295381,9996,0.131226,0.625977,0.727417,493
155305388,10007,0.131836,0.624390,0.726440,497
155315386,9998,0.132812,0.622437,0.727173,497
155325362,9976,0.132080,0.624512,0.729126,497
155335377,10015,0.133545,0.625854,0.729980,500
155345399,10022,0.132935,0.628174,0.728638,501
155355366,9967,0.131592,0.625732,0.727661,501
155365389,10023,0.132324,0.624878,0.728027,506
155375386,9997,0.132446,0.624023,0.729980,502
155385369,9983,0.132446,0.623047,0.731567,497
155395365,9996,0.132935,0.624390,0.731689,503
155405374,10009,0.133545,0.625244,0.730835,502
155415369,9995,0.133057,0.624390,0.727417,500
155425365,9996,0.131836,0.623535,0.728027,500
155435378,10013,0.131348,0.622437,0.728149,511
155445363,9985,0.132446,0.625854,0.731201,513
155455370,10007,0.133545,0.625854,0.730469,521
155465388,10018,0.133423,0.625732,0.729736,523
155475373,9985,0.133179,0.626831,0.727661,536
155485386,10013,0.132446,0.624878,0.727051,540
155495378,9992,0.132324,0.622314,0.728638,544
155505366,9988,0.134155,0.624756,0.729370,547
155515383,10017,0.134521,0.625610,0.730103,546
155525377,9994,0.133057,0.625732,0.728516,553
155535385,10008,0.131714,0.622925,0.727539,547
155545369,9984,0.130615,0.623535,0.730469,555
155555377,10008,0.131714,0.626709,0.731201,555
155565389,10012,0.132935,0.626953,0.729492,555
155575388,9999,0.132568,0.626343,0.726562,557
155585387,9999,0.133545,0.626709,0.725952,556
155595379,9992,0.134033,0.626221,0.726807,549
155605374,9995,0.130493,0.627075,0.726929,548
155615372,9998,0.130615,0.626831,0.726562,544
155625369,9997,0.129395,0.626221,0.725952,549
155635383,10014,0.129639,0.625000,0.726318,545
155645377,9994,0.130249,0.625488,0.728027,537
155655365,9988,0.130493,0.624390,0.730225,537
155665370,10005,0.130615,0.623169,0.729004,538
155675389,10019,0.131836,0.624512,0.728760,536
155685378,9989,0.131348,0.625732,0.726807,534
155695382,10004,0.131836,0.625000,0.727173,532
155705361,9979,0.130493,0.627075,0.726318,525
155715385,10024,0.130493,0.629150,0.729126,530
155725375,9990,0.129883,0.629517,0.727539,528
155735374,9999,0.129761,0.628784,0.726562,518
155745364,9990,0.129517,0.627197,0.724854,516
155755374,10010,0.129761,0.625854,0.723999,516
155765360,9986,0.130859,0.626221,0.727539,518
155775380,10020,0.131226,0.627075,0.728271,511
155785361,9981,0.129883,0.625488,0.727539,514
155795376,10015,0.130493,0.623535,0.728149,511
155805363,9987,0.129639,0.623657,0.727295,509
155815368,10005,0.131348,0.625000,0.728394,497
155825363,9995,0.132324,0.629639,0.727783,503
155835361,9998,0.131836,0.631836,0.726196,497
155845388,10027,0.130859,0.630005,0.723877,500
155855387,9999,0.130127,0.628296,0.725342,497
155865408,10021,0.129395,0.627319,0.726440,490
155875384,9976,0.129639,0.626221,0.727539,487
155885369,9985,0.130127,0.626831,0.727905,489
155895366,9997,0.130615,0.628540,0.726929,479
155905378,10012,0.130127,0.630127,0.724976,483
155915362,9984,0.128784,0.628296,0.723022,480
155925373,10011,0.127686,0.625610,0.723022,476
155935387,10014,0.130981,0.629639,0.726807,477
155945368,9981,0.131836,0.632080,0.725342,478
155955369,10001,0.132080,0.631592,0.726807,475
155965377,10008,0.129761,0.632446,0.725952,476
155975380,10003,0.127441,0.629517,0.722534,475
155985382,10002,0.127075,0.630859,0.724243,484
155995382,10000,0.125732,0.631714,0.722778,485
156005386,10004,0.127441,0.631958,0.723511,487
156015360,9974,0.128052,0.631104,0.725586,488
156025360,10000,0.127930,0.628174,0.725830,490
156035363,10003,0.128540,0.628906,0.726318,490
156045366,10003,0.126953,0.630005,0.726440,489
156055360,9994,0.128662,0.630737,0.723755,490
156065385,10025,0.126221,0.631714,0.722290,488
156075373,9988,0.125610,0.631470,0.721191,490
156085386,10013,0.126465,0.633545,0.725098,486
156095384,9998,0.127075,0.629395,0.723999,490
156105389,10005,0.126709,0.634521,0.728394,485
156115388,9999,0.126099,0.629639,0.720703,489
156125365,9977,0.128906,0.628296,0.723999,491
156135372,10007,0.126465,0.629761,0.719604,489
156145366,9994,0.127930,0.631958,0.728271,484
156155385,10019,0.129395,0.631714,0.727295,491
156165377,9992,0.128052,0.631348,0.726562,492
156175360,9983,0.129028,0.630493,0.724854,489
156185372,10012,0.128418,0.630493,0.724365,489
156195366,9994,0.127441,0.629517,0.724731,496
156205387,10021,0.126953,0.630737,0.723145,502
156215385,9998,0.126831,0.630981,0.723389,502
156225372,9987,0.126221,0.630737,0.722656,503
156235382,10010,0.127319,0.630127,0.723267,510
156245375,9993,0.127197,0.630615,0.723755,516
156255365,9990,0.127808,0.631836,0.724243,519
156265374,10009,0.127197,0.629517,0.723755,534
156275374,10000,0.126587,0.628296,0.723877,539
156285399,10025,0.126709,0.628784,0.724731,539
156295378,9979,0.128174,0.627930,0.725464,544
156305382,10004,0.128540,0.631226,0.725952,544
156315389,10007,0.128296,0.632446,0.725708,541
156325389,10000,0.127563,0.632080,0.722656,545
156335362,9973,0.127197,0.630249,0.720459,539
156345388,10026,0.129639,0.630981,0.722412,547
156355375,9987,0.127808,0.632446,0.723755,545
156365379,10004,0.128662,0.630737,0.722900,546
156375389,10010,0.129517,0.631104,0.724243,541
156385364,9975,0.130005,0.631104,0.724243,543
156395372,10008,0.128662,0.630493,0.724487,542
156405361,9989,0.127197,0.627441,0.724365,538
156415387,10026,0.128418,0.628906,0.724487,531
156425365,9978,0.129517,0.631958,0.726074,532
156435374,10009,0.128784,0.632568,0.726196,526
156445363,9989,0.128906,0.632324,0.724121,526
156455387,10024,0.127686,0.628662,0.724243,523
156465370,9983,0.127319,0.626099,0.723511,521
156475375,10005,0.129517,0.630371,0.727051,518
156485378,10003,0.128540,0.631836,0.727173,514
156495361,9983,0.129395,0.632080,0.723633,512
156505373,10012,0.128174,0.631470,0.723755,513
156515372,9999,0.126465,0.629517,0.723389,504
156525375,10003,0.127563,0.629639,0.725098,507
156535364,9989,0.128174,0.630737,0.724731,508
156545390,10026,0.128540,0.631104,0.724854,503
156555363,9973,0.129517,0.629639,0.724487,501
156565365,10002,0.129272,0.629395,0.724121,504
156575363,9998,0.127441,0.627930,0.726562,503
156585373,10010,0.128540,0.628418,0.727417,497
156595388,10015,0.129272,0.630005,0.726929,502
156605368,9980,0.128906,0.629395,0.724609,500
156615365,9997,0.128906,0.630127,0.723022,501
156625390,10025,0.128052,0.629028,0.722656,501
156635397,10007,0.127441,0.630127,0.726318,501
156645383,9986,0.127930,0.631714,0.726929,501
156655375,9992,0.128052,0.631226,0.724976,501
156665388,10013,0.129150,0.629150,0.724854,501
156675385,9997,0.127930,0.628906,0.724121,504
156689147,13762,0.127563,0.625610,0.724609,501
156695518,6371,0.129150,0.626343,0.726074,502
156705374,9856,0.128906,0.629761,0.727295,498
156715364,9990,0.130371,0.630615,0.726074,495
156725379,10015,0.130493,0.631226,0.725342,503
156735369,9990,0.128296,0.629272,0.723877,501
156745372,10003,0.127563,0.628784,0.725586,496
156755385,10013,0.128540,0.628784,0.723999,495
156765389,10004,0.128418,0.629028,0.723877,502
156775372,9983,0.130127,0.629883,0.724854,495
156785374,10002,0.128662,0.628174,0.719971,497
156795360,9986,0.130859,0.628418,0.725830,498
156805396,10036,0.130859,0.628540,0.728638,501
156815387,9991,0.128784,0.625488,0.723999,502
156825380,9993,0.129517,0.622192,0.726929,502
156835361,9981,0.129272,0.627319,0.729736,503
156845389,10028,0.128418,0.627319,0.727295,506
156855384,9995,0.128540,0.626953,0.727051,508
156865371,9987,0.129639,0.626221,0.727417,513
156875364,9993,0.130981,0.628418,0.728638,518
156885366,10002,0.131104,0.629395,0.728271,518
156895375,10009,0.130127,0.628906,0.726807,527
156905383,10008,0.129883,0.627075,0.725586,532
156915372,9989,0.129272,0.629395,0.727783,538
156925372,10000,0.129150,0.630981,0.727783,532
156935374,10002,0.128052,0.630371,0.726685,539
156945381,10007,0.128052,0.627808,0.724121,532
156955372,9991,0.126709,0.625732,0.725464,534
156965380,10008,0.128052,0.628662,0.728271,533
156975363,9983,0.128540,0.628052,0.729126,535
156985393,10030,0.129150,0.626343,0.727051,535
156997960,12567,0.128784,0.627563,0.726929,534
157005389,7429,0.000000,0.000000,0.000000,530
157015371,9982,0.128784,0.629272,0.726929,526
157025385,10014,0.127686,0.629028,0.726685,532
157035384,9999,0.127808,0.627319,0.727295,530
157045372,9988,0.129028,0.627808,0.727051,524
157055386,10014,0.126953,0.627441,0.727051,525
157065385,9999,0.129761,0.626099,0.726807,526
157075382,9997,0.129028,0.628418,0.727661,515
157085377,9995,0.129272,0.629028,0.728149,517
157095362,9985,0.130371,0.628052,0.725464,511
157105381,10019,0.131104,0.627563,0.724976,512
157115381,10000,0.129883,0.626953,0.726196,510
157125380,9999,0.129761,0.626343,0.728027,511
157135383,10003,0.128906,0.626953,0.727661,503
157145386,10003,0.130005,0.625244,0.726318,507
157155381,9995,0.130249,0.625977,0.726929,509
157165364,9983,0.129517,0.626831,0.728516,508
157175371,10007,0.130493,0.628662,0.729736,512
157185379,10008,0.130493,0.629028,0.728149,510
157195363,9984,0.130493,0.628784,0.726074,505
157210534,15171,0.129028,0.627441,0.726562,507
157216442,5908,0.000000,0.000000,0.000000,505
157225367,8925,0.127563,0.625122,0.724609,505
157235368,10001,0.128540,0.623657,0.728149,508
157245382,10014,0.129883,0.624268,0.729004,499
157255387,10005,0.130249,0.627563,0.729980,506
157265377,9990,0.129639,0.628784,0.727905,505
157275387,10010,0.129517,0.631104,0.727173,495
157285400,10013,0.128540,0.631104,0.723755,503
157295376,9976,0.127686,0.631104,0.722656,501
157305382,10006,0.127441,0.630005,0.723022,499
157315360,9978,0.126831,0.628662,0.724243,493
157325381,10021,0.125732,0.627075,0.725708,498
157335387,10006,0.126221,0.626831,0.726685,501
157345369,9982,0.127075,0.626465,0.727173,497
157355373,10004,0.127319,0.625732,0.729126,499
157365362,9989,0.128662,0.626587,0.737183,507
157375368,10006,0.130005,0.625122,0.734009,505
157385364,9996,0.130981,0.624146,0.730835,513
157395360,9996,0.132568,0.621216,0.729736,508
157405379,10019,0.133545,0.624756,0.736938,507
157415384,10005,0.131592,0.628784,0.735107,502
157425367,9983,0.130493,0.628052,0.731567,505
157435380,10013,0.128784,0.626953,0.729004,490
157445371,9991,0.128418,0.654541,0.722900,498
157455385,10014,0.128906,0.627930,0.721069,492
157465374,9989,0.129517,0.629395,0.722778,497
157475409,10035,0.131226,0.629028,0.724243,497
157485375,9966,0.130737,0.629272,0.721069,498
157495387,10012,0.131836,0.629517,0.723267,507
157505373,9986,0.129150,0.629028,0.724731,517
157515382,10009,0.128418,0.625000,0.726562,524
157525372,9990,0.131348,0.623535,0.729126,531
157535374,10002,0.131958,0.625732,0.732056,538
157545380,10006,0.130737,0.626709,0.731812,539
157555367,9987,0.130615,0.626831,0.728516,549
157565399,10032,0.127563,0.624390,0.723999,550
157575384,9985,0.128662,0.621094,0.718506,552
157585384,10000,0.129150,0.627075,0.724609,546
157595384,10000,0.127441,0.630371,0.723145,552
157605369,9985,0.129639,0.627808,0.726074,551
157615377,10008,0.131348,0.625366,0.730835,552
157625367,9990,0.130371,0.625610,0.730103,545
157635376,10009,0.131958,0.624146,0.728760,547
157645374,9998,0.130859,0.625366,0.726929,544
157655363,9989,0.130005,0.626221,0.724976,539
157665394,10031,0.131714,0.629028,0.726807,539
157675369,9975,0.130615,0.627808,0.728027,539
157685368,9999,0.132568,0.625732,0.728149,531
157695376,10008,0.131836,0.625854,0.729614,526
157705377,10001,0.131836,0.627319,0.729248,527
157715377,10000,0.132446,0.625488,0.728516,525
157725364,9987,0.131836,0.625366,0.727417,519
157735386,10022,0.130249,0.624512,0.727905,515
157745379,9993,0.130371,0.625610,0.729126,510
157755374,9995,0.129761,0.626343,0.727539,509
157765383,10009,0.129272,0.625610,0.727295,507
157775364,9981,0.131470,0.625732,0.728149,507
157785366,10002,0.130493,0.625610,0.729370,498
157795382,10016,0.131958,0.627319,0.729736,503
157805386,10004,0.131226,0.626343,0.728760,503
157815383,9997,0.131836,0.627563,0.727905,504
157825361,9978,0.133179,0.627075,0.725830,502
157835411,10050,0.130493,0.626709,0.725830,500
157845377,9966,0.130249,0.626343,0.728149,500
157855370,9993,0.130371,0.625000,0.728027,494
157865364,9994,0.128540,0.623657,0.728271,501
157875362,9998,0.130981,0.623169,0.729126,499
157885387,10025,0.131470,0.627930,0.728882,500
157895370,9983,0.131104,0.626099,0.726929,497
157905374,10004,0.130981,0.624146,0.726929,492
157915369,9995,0.131958,0.625610,0.727539,496
157925406,10037,0.132446,0.627808,0.729126,494
157935373,9967,0.133057,0.628052,0.726440,498
157945388,10015,0.130005,0.626221,0.727051,491
157955388,10000,0.130005,0.626221,0.727173,499
157965370,9982,0.129028,0.625488,0.727539,492
157975386,10016,0.127319,0.626099,0.727173,496
157985387,10001,0.129517,0.625977,0.727783,490
157995386,9999,0.129639,0.626831,0.726196,497
158005366,9980,0.130981,0.626953,0.727051,496
158015384,10018,0.130249,0.626831,0.726074,495
158025408,10024,0.129517,0.625366,0.725098,496
158035365,9957,0.130005,0.625488,0.726807,497
158045368,10003,0.131226,0.628296,0.729858,498
158055361,9993,0.131348,0.627075,0.727539,499
158065381,10020,0.131592,0.623169,0.727905,500
158075364,9983,0.131836,0.621338,0.728760,502
158085380,10016,0.130859,0.619629,0.730713,507
158095384,10004,0.134644,0.621582,0.733643,519
158105367,9983,0.135132,0.626099,0.732422,526
158115378,10011,0.132935,0.628784,0.730835,530
158125375,9997,0.134155,0.625488,0.733887,536
158135384,10009,0.131958,0.627319,0.727051,535
158145370,9986,0.131958,0.626831,0.729980,545
158155360,9990,0.130005,0.623535,0.727051,542
158165374,10014,0.131714,0.625732,0.727905,552
158175389,10015,0.131592,0.626465,0.728394,555
158185361,9972,0.131470,0.623291,0.730835,554
158195373,10012,0.131226,0.624268,0.730591,553
158205385,10012,0.130981,0.624512,0.729492,557
158215362,9977,0.127930,0.623657,0.725708,555
158225370,10008,0.129028,0.624268,0.726318,551
158235378,10008,0.128784,0.625488,0.725830,558
158245373,9995,0.128540,0.626343,0.728027,560
158255369,9996,0.129517,0.626831,0.729736,560
158265360,9991,0.130981,0.626343,0.728394,560
158275380,10020,0.133057,0.629639,0.729370,554
158285381,10001,0.132568,0.625732,0.727295,551
158295372,9991,0.132202,0.624146,0.730103,552
158305363,9991,0.130005,0.626221,0.727783,552
158315389,10026,0.131958,0.655640,0.730957,548
158329247,13858,0.130615,0.624878,0.730225,537
158343725,14478,0.130005,0.625244,0.726807,534
158349104,5379,0.000000,0.000000,0.000000,529
158355367,6263,0.130005,0.625977,0.726440,524
158365365,9998,0.129883,0.627319,0.725708,518
158375389,10024,0.131836,0.629150,0.727905,514
158385368,9979,0.135254,0.630249,0.726685,510
158395372,10004,0.132568,0.628296,0.724365,506
158405391,10019,0.129395,0.625732,0.723755,504
158415380,9989,0.130371,0.625977,0.726440,500
158425370,9990,0.129883,0.627686,0.724487,503
158435375,10005,0.126343,0.634521,0.725342,499
158445383,10008,0.128296,0.628418,0.723389,495
158455360,9977,0.130981,0.625732,0.724121,501
158465387,10027,0.127319,0.631958,0.722778,503
158475368,9981,0.128296,0.626221,0.727661,498
158485376,10008,0.130737,0.627319,0.723877,503
158495384,10008,0.133423,0.624756,0.728394,502
158505407,10023,0.134766,0.627808,0.728760,504
158515364,9957,0.131836,0.627808,0.727295,497
158525370,10006,0.130127,0.629395,0.726440,501
158535380,10010,0.128906,0.629639,0.723145,502
158545385,10005,0.128906,0.630615,0.723389,501
158555370,9985,0.130493,0.633057,0.725220,500
158565387,10017,0.132446,0.632568,0.725586,496
158575385,9998,0.131348,0.629883,0.725586,493
158585362,9977,0.130615,0.628052,0.725830,492
158595386,10024,0.130127,0.627808,0.724976,493
158605388,10002,0.128784,0.626343,0.723755,488
158615415,10027,0.130005,0.626587,0.724243,493
158625370,9955,0.128174,0.626953,0.724365,493
158635377,10007,0.126831,0.628052,0.724609,495
158645379,10002,0.130981,0.630127,0.724854,492
158655377,9998,0.129272,0.630371,0.725708,495
158665375,9998,0.131714,0.630737,0.725220,494
158675366,9991,0.132080,0.630249,0.724854,498
158685360,9994,0.130127,0.628906,0.725220,502
158695388,10028,0.130371,0.629517,0.726685,497
158705368,9980,0.131592,0.629761,0.726074,497
158715379,10011,0.130371,0.627441,0.726440,503
158725365,9986,0.131348,0.626831,0.727661,506
158735369,10004,0.130859,0.627808,0.724976,505
158745376,10007,0.129272,0.627075,0.725220,507
158755375,9999,0.132690,0.627808,0.727173,503
158765382,10007,0.130249,0.629395,0.725464,516
158775387,10005,0.132690,0.628906,0.724854,520
158785388,10001,0.131592,0.630249,0.724731,527
158795362,9974,0.129395,0.628296,0.724976,532
158805369,10007,0.129883,0.628540,0.724854,536
158815376,10007,0.128174,0.629395,0.723511,542
158825360,9984,0.129639,0.627686,0.723022,546
158835389,10029,0.132324,0.628052,0.723511,552
158845367,9978,0.130249,0.626831,0.724487,555
158855386,10019,0.131104,0.625977,0.726685,551
158865378,9992,0.132568,0.627686,0.727905,559
158875370,9992,0.132324,0.628418,0.730469,557
158885372,10002,0.132690,0.630493,0.729126,567
158895374,10002,0.130615,0.631226,0.727417,568
158905365,9991,0.128174,0.626587,0.723755,569
158915371,10006,0.129028,0.625854,0.725708,570
158929613,14242,0.130249,0.629883,0.727539,559
158939769,10156,0.130859,0.629761,0.726074,561
158946488,6719,0.131104,0.628906,0.724976,553
158955376,8888,0.130981,0.626587,0.724121,556
158965375,9999,0.130615,0.626099,0.726807,548
158975387,10012,0.130249,0.627930,0.729980,542
158985365,9978,0.131348,0.626221,0.727905,536
158995371,10006,0.131714,0.624512,0.726074,525
159005366,9995,0.129517,0.625244,0.726318,519
159015373,10007,0.130249,0.627563,0.725220,511
159025388,10015,0.130859,0.629395,0.726196,512
159035371,9983,0.130249,0.628296,0.725464,503
159045383,10012,0.132568,0.630127,0.725708,503
159055389,10006,0.133057,0.630493,0.724854,501
159065386,9997,0.131226,0.629150,0.725342,501
159075382,9996,0.130737,0.626465,0.726074,499
159085368,9986,0.131226,0.625244,0.729126,495
159095361,9993,0.131226,0.627075,0.728149,494
159105381,10020,0.132324,0.629150,0.727173,495
159115367,9986,0.130981,0.628906,0.724854,494
159125362,9995,0.130371,0.628296,0.723022,496
159135376,10014,0.130737,0.629761,0.724854,495
159145370,9994,0.130493,0.629150,0.725830,498
159155367,9997,0.131104,0.628418,0.725708,496
159165370,10003,0.130859,0.628418,0.726685,496
159175361,9991,0.131836,0.626953,0.726562,496
159185372,10011,0.130615,0.626099,0.726807,497
159195383,10011,0.129028,0.627319,0.724854,495
159205383,10000,0.130005,0.629272,0.725342,493
159215382,9999,0.130371,0.629272,0.725708,502
159225373,9991,0.131714,0.629272,0.726929,495
159235370,9997,0.133301,0.623169,0.725830,502
159245383,10013,0.132324,0.624512,0.731567,498
159255383,10000,0.129395,0.621948,0.724854,498
159265376,9993,0.132446,0.627808,0.731445,499
159275371,9995,0.132080,0.629028,0.730103,503
159285360,9989,0.130127,0.628296,0.727783,496
159295391,10031,0.129883,0.627930,0.723877,495
159305376,9985,0.129517,0.626465,0.720825,498
159315373,9997,0.131104,0.627686,0.724609,492
159325383,10010,0.132446,0.630981,0.732300,495
159339827,14444,0.131470,0.626831,0.723389,488
159345589,5762,0.000000,0.000000,0.000000,492
159355363,9774,0.127441,0.625977,0.724609,490
159365365,10002,0.128174,0.625610,0.723022,491
159375382,10017,0.128296,0.626465,0.724121,488
159385362,9980,0.129150,0.624878,0.724609,487
159395405,10043,0.129517,0.625244,0.725952,487
159405388,9983,0.131226,0.628784,0.730347,490
159415370,9982,0.129639,0.632202,0.727661,490
159425363,9993,0.127686,0.630981,0.722778,496
159435366,10003,0.126343,0.629883,0.717285,494
159445376,10010,0.125977,0.631470,0.716797,504
159455365,9989,0.126099,0.634277,0.722412,504
159465374,10009,0.128662,0.633423,0.730957,503
159475376,10002,0.132080,0.632324,0.740112,511
159485362,9986,0.129639,0.623657,0.725464,508
159495378,10016,0.135254,0.618286,0.723633,508
159505386,10008,0.135132,0.623291,0.733521,504
159515386,10000,0.133423,0.628296,0.728271,507
159525380,9994,0.129883,0.633057,0.728394,504
159535381,10001,0.129761,0.632202,0.727051,510
159545384,10003,0.126831,0.632446,0.723999,509
159555383,9999,0.126709,0.629517,0.722290,512
159565375,9992,0.127563,0.626587,0.723633,522
159575371,9996,0.129761,0.628174,0.727661,525
159585391,10020,0.130127,0.628662,0.727417,531
159595386,9995,0.131836,0.625366,0.728271,537
159605369,9983,0.131958,0.626587,0.727783,540
159615374,10005,0.132812,0.626099,0.728027,551
159625389,10015,0.130615,0.629395,0.727173,551
159635381,9992,0.130493,0.628540,0.726929,550
159645384,10003,0.129150,0.628296,0.726074,558
159655381,9997,0.128296,0.628174,0.724731,560
159665387,10006,0.127686,0.627930,0.724487,560
159675382,9995,0.130249,0.629028,0.725464,554
159685366,9984,0.131958,0.632080,0.726562,556
159695383,10017,0.130737,0.631470,0.725708,551
159705389,10006,0.130249,0.629150,0.723755,556
159715367,9978,0.129272,0.627075,0.723022,558
159725375,10008,0.128662,0.625854,0.725342,552
159735376,10001,0.128906,0.627808,0.728638,545
159745389,10013,0.129517,0.627563,0.727783,548
159755360,9971,0.129517,0.628174,0.726685,539
159765397,10037,0.130371,0.627197,0.725830,542
159775389,9992,0.130859,0.626831,0.724976,536
159785363,9974,0.130615,0.629272,0.726074,533
159795375,10012,0.132812,0.631104,0.725464,528
159805382,10007,0.131836,0.630249,0.724243,525
159815380,9998,0.130371,0.628540,0.724976,526
159825374,9994,0.130371,0.627808,0.724487,513
159835382,10008,0.130859,0.628906,0.725830,515
159845379,9997,0.130859,0.630127,0.728882,514
159855374,9995,0.130859,0.629883,0.728027,507
159865374,10000,0.132080,0.628540,0.724243,508
159875375,10001,0.130493,0.626099,0.723877,508
159885364,9989,0.130127,0.625366,0.725098,509
159895375,10011,0.129150,0.629028,0.727539,507
159905383,10008,0.130737,0.629639,0.725098,504
159915372,9989,0.130615,0.630005,0.724121,503
159925372,10000,0.129639,0.628540,0.723511,505
159935369,9997,0.130127,0.628784,0.723389,503
159945405,10036,0.131470,0.628662,0.723877,502
159955366,9961,0.132812,0.629517,0.727661,500
159965382,10016,0.131958,0.630127,0.725464,499
159975377,9995,0.131348,0.628906,0.723755,496
159985371,9994,0.130249,0.626953,0.723389,497
159995370,9999,0.127319,0.626587,0.723511,499
160005368,9998,0.129272,0.630737,0.725220,497
160015375,10007,0.128418,0.635132,0.726318,497
160025361,9986,0.129761,0.630127,0.723511,497
160035378,10017,0.131348,0.627197,0.724854,499
160045388,10010,0.130737,0.628418,0.724243,492
160055386,9998,0.130371,0.625854,0.727051,497
160065376,9990,0.132568,0.628540,0.729004,493
160075362,9986,0.130371,0.630249,0.726196,490
160085361,9999,0.128906,0.629150,0.724487,497
160095367,10006,0.127930,0.627319,0.723389,497
160105364,9997,0.127197,0.628296,0.722900,495
160115365,10001,0.130493,0.630859,0.727661,495
160125387,10022,0.131714,0.632812,0.727051,497
160135383,9996,0.132324,0.630493,0.725220,493
160145371,9988,0.132080,0.628174,0.724243,493
160155378,10007,0.131226,0.626709,0.723511,491
160165386,10008,0.130005,0.628418,0.723877,491
160175370,9984,0.129028,0.632446,0.724365,486
160185384,10014,0.129517,0.631958,0.723389,489
160195365,9981,0.129395,0.629639,0.722778,489
160205370,10005,0.129517,0.626343,0.723755,488
160215391,10021,0.130371,0.626343,0.725464,490
160225363,9972,0.133179,0.630127,0.727051,484
160235367,10004,0.133789,0.630371,0.725952,487
160245375,10008,0.132812,0.630127,0.725098,490
160255360,9985,0.131958,0.628418,0.724121,486
160265366,10006,0.130493,0.626831,0.724854,494
160275382,10016,0.130127,0.627319,0.728882,490
160285387,10005,0.130615,0.630371,0.727295,490
160295382,9995,0.132935,0.630737,0.725708,494
160305413,10031,0.132812,0.629395,0.722534,494
160315374,9961,0.132812,0.626099,0.722046,497
160325382,10008,0.132812,0.626831,0.723999,488
160335387,10005,0.133667,0.629028,0.729736,489
160345364,9977,0.133545,0.629272,0.728760,495
160355386,10022,0.132690,0.627197,0.725464,493
160365385,9999,0.131714,0.625000,0.724121,486
160375375,9990,0.131226,0.623779,0.724854,494
160385388,10013,0.132324,0.629150,0.727417,493
160395389,10001,0.134766,0.631104,0.726929,505
160405382,9993,0.135620,0.632935,0.726685,509
160415379,9997,0.135986,0.631470,0.726440,516
160425386,10007,0.134033,0.629150,0.724121,514
160435365,9979,0.130615,0.628174,0.723145,524
160445378,10013,0.129028,0.627930,0.724854,528
160455379,10001,0.128174,0.628296,0.723022,535
160465376,9997,0.128784,0.626343,0.721924,537
160475365,9989,0.130371,0.625732,0.723755,532
160485373,10008,0.130859,0.626099,0.724854,537
160495376,10003,0.132812,0.627197,0.729736,544
160505375,9999,0.134399,0.629761,0.728760,546
160515364,9989,0.135742,0.629761,0.727905,544
160525360,9996,0.135132,0.626465,0.726562,546
160535367,10007,0.134399,0.627197,0.725952,553
160545373,10006,0.133423,0.627441,0.726929,555
160555379,10006,0.133301,0.629395,0.728149,550
160565384,10005,0.132568,0.629639,0.726318,552
160575373,9989,0.133057,0.628784,0.723022,546
160587409,12036,0.132690,0.626465,0.723022,545
160595383,7974,0.132446,0.625244,0.724854,541
160605377,9994,0.133667,0.626831,0.730225,533
160615371,9994,0.132690,0.627686,0.727783,531
160625375,10004,0.133179,0.627563,0.726685,521
160635384,10009,0.132812,0.626953,0.724487,519
160645383,9999,0.131226,0.627686,0.723633,513
160655371,9988,0.131348,0.628906,0.725098,509
160665377,10006,0.131226,0.629883,0.725098,505
160675409,10032,0.133179,0.629395,0.725220,503
160685376,9967,0.132935,0.628784,0.724731,502
160695364,9988,0.132690,0.627441,0.724976,501
160705367,10003,0.132812,0.625366,0.726440,501
160715389,10022,0.133423,0.627197,0.727905,503
160725381,9992,0.133545,0.629883,0.728394,495
160735370,9989,0.133667,0.629883,0.726318,506
160745365,9995,0.134521,0.629150,0.724243,503
160755385,10020,0.133179,0.628906,0.724243,505
160765373,9988,0.133179,0.625977,0.726685,500
160775363,9990,0.133423,0.626831,0.725952,498
160785363,10000,0.133301,0.628540,0.727295,504
160795383,10020,0.133057,0.628174,0.725830,497
160805376,9993,0.131470,0.626587,0.724243,502
160815377,10001,0.131226,0.627686,0.724243,502
160825377,10000,0.131714,0.630127,0.723755,494
160835363,9986,0.132324,0.632202,0.724854,503
160845388,10025,0.132446,0.631592,0.724487,493
160855386,9998,0.133057,0.629761,0.726318,497
160865410,10024,0.131958,0.626953,0.724365,502
160875361,9951,0.130859,0.626099,0.726074,501
160885376,10015,0.130859,0.627075,0.727661,493
160895373,9997,0.130737,0.629150,0.726685,500
160905377,10004,0.131714,0.629272,0.725708,499
160915380,10003,0.130737,0.628906,0.724731,500
160925360,9980,0.130737,0.628784,0.723633,499
160935374,10014,0.132568,0.629028,0.723389,497
160945385,10011,0.132080,0.629761,0.725220,497
160956493,11108,0.131958,0.631714,0.726562,496
160965384,8891,0.131714,0.629517,0.725464,495
160975375,9991,0.132202,0.627197,0.724854,493
160985368,9993,0.130737,0.626953,0.728027,492
160995374,10006,0.131104,0.628418,0.726929,491
161005379,10005,0.131592,0.630005,0.727295,492
161015363,9984,0.131592,0.630615,0.723999,489
161025376,10013,0.131714,0.629028,0.722656,485
161035389,10013,0.130615,0.629517,0.722412,487
161045374,9985,0.130859,0.629395,0.724976,485
161055360,9986,0.131592,0.628906,0.726685,486
161065374,10014,0.132690,0.629272,0.725220,478
161075369,9995,0.131958,0.629272,0.724854,487
161085384,10015,0.131592,0.628662,0.723755,481
161095380,9996,0.131836,0.628906,0.724609,483
161105387,10007,0.132446,0.629883,0.726440,489
161115373,9986,0.133057,0.631470,0.725342,490
161125386,10013,0.132690,0.631836,0.725464,491
161135374,9988,0.131226,0.630005,0.725098,491
161145381,10007,0.130371,0.627319,0.725342,485
161155372,9991,0.130493,0.626953,0.726318,487
161165375,10003,0.130493,0.628784,0.725952,490
161175385,10010,0.130615,0.628906,0.723877,494
161185364,9979,0.132324,0.628418,0.724487,493
161195376,10012,0.132446,0.628052,0.725220,497
161205380,10004,0.132202,0.627808,0.728027,498
161215360,9980,0.133057,0.627930,0.728638,497
161225389,10029,0.133179,0.628052,0.728516,518
161235368,9979,0.132324,0.626709,0.727295,516
161245364,9996,0.133057,0.627197,0.727295,522
161255370,10006,0.133057,0.628418,0.727783,525
161265385,10015,0.131226,0.627930,0.727661,534
161275372,9987,0.130859,0.629028,0.726440,535
161285361,9989,0.130981,0.627808,0.724487,542
161295375,10014,0.131348,0.627930,0.723877,547
161305378,10003,0.130859,0.626099,0.724365,551
161315381,10003,0.130005,0.626343,0.727539,549
161325378,9997,0.130981,0.625977,0.727905,547
161335383,10005,0.131348,0.625610,0.727417,549
161345386,10003,0.131836,0.625854,0.727905,544
161355386,10000,0.133301,0.626709,0.727051,550
161365373,9987,0.131226,0.627197,0.726807,549
161375360,9987,0.132080,0.627930,0.726685,547
161385380,10020,0.132080,0.627808,0.725586,546
161395370,9990,0.131958,0.628174,0.725586,545
161405383,10013,0.132690,0.627319,0.725830,545
161415384,10001,0.130981,0.624756,0.727295,543
161425409,10025,0.131714,0.626343,0.727661,535
161435392,9983,0.132324,0.626343,0.727783,540
161445387,9995,0.132690,0.626587,0.728149,537
161455370,9983,0.133057,0.627441,0.727417,533
161465369,9999,0.132080,0.627197,0.727173,531
161475378,10009,0.131348,0.627319,0.725830,529
161485363,9985,0.131226,0.626953,0.727051,524
161495363,10000,0.131836,0.626587,0.726685,524
161505371,10008,0.131958,0.627808,0.725586,517
161515373,10002,0.132812,0.627930,0.726562,517
161525389,10016,0.132202,0.626953,0.726807,508
161535372,9983,0.132690,0.626831,0.726074,514
161545388,10016,0.130615,0.626587,0.726440,512
161555383,9995,0.131470,0.626587,0.726562,509
161565369,9986,0.131348,0.626709,0.726929,507
161575364,9995,0.130737,0.627075,0.726196,506
161585380,10016,0.131348,0.626465,0.726562,498
161595372,9992,0.131958,0.626709,0.727783,505
161605378,10006,0.132324,0.628174,0.727661,503
161615407,10029,0.131470,0.628662,0.726440,502
161625364,9957,0.130615,0.626953,0.726440,497
161635384,10020,0.130615,0.626099,0.726929,503
161645378,9994,0.131226,0.626709,0.726440,498
161655389,10011,0.132080,0.627319,0.726074,502
161665369,9980,0.131104,0.627441,0.727295,502
161675370,10001,0.131226,0.626343,0.726685,500
161685361,9991,0.131104,0.625854,0.726685,500
161695373,10012,0.129639,0.625977,0.725464,501
161705366,9993,0.134033,0.621460,0.721558,501
161715382,10016,0.133423,0.626831,0.727295,499
161725368,9986,0.131470,0.623901,0.723999,500
161735365,9997,0.133057,0.625366,0.733643,498
161745368,10003,0.132446,0.626953,0.733276,492
161755387,10019,0.131836,0.628174,0.726929,487
161765385,9998,0.133179,0.628906,0.731812,487
161775384,9999,0.130981,0.628052,0.726685,489
161785372,9988,0.133301,0.625854,0.727417,489
161795372,10000,0.131714,0.629028,0.727661,487
161805413,10041,0.131104,0.626953,0.726196,481
161815393,9980,0.133301,0.628174,0.725220,486
161825366,9973,0.132324,0.628784,0.724609,483
161835360,9994,0.131470,0.629028,0.725464,485
161845369,10009,0.132202,0.628418,0.727539,488
161855382,10013,0.130737,0.626709,0.727417,488
161865380,9998,0.130371,0.625854,0.727051,487
161875388,10008,0.130493,0.625122,0.726929,489
161885386,9998,0.131348,0.626831,0.726318,484
161895369,9983,0.131836,0.628296,0.726685,489
161905364,9995,0.131470,0.627319,0.726074,488
161915389,10025,0.131836,0.627441,0.727661,492
161925389,10000,0.132568,0.627563,0.727051,492
161935369,9980,0.132935,0.627441,0.726685,494
161945362,9993,0.131958,0.627075,0.726807,493
161955371,10009,0.131226,0.627075,0.727539,488
161965361,9990,0.131348,0.625244,0.727539,493
161975389,10028,0.132935,0.625854,0.727417,493
161985367,9978,0.132446,0.624146,0.728027,490
161995380,10013,0.132568,0.625244,0.728027,496
162005367,9987,0.132690,0.625244,0.729126,486
162015383,10016,0.133301,0.625122,0.728882,493
162025382,9999,0.133301,0.625732,0.729004,491
162035381,9999,0.133789,0.625854,0.727295,494
162045370,9989,0.133179,0.626465,0.727173,493
162055366,9996,0.132080,0.626099,0.727783,500
162065389,10023,0.133301,0.626953,0.727539,500
162075363,9974,0.132568,0.623657,0.726929,504
162085372,10009,0.131470,0.624878,0.727539,511
162095365,9993,0.131836,0.625854,0.728027,520
162107932,12567,0.132446,0.626831,0.727173,530
162115364,7432,0.133545,0.625244,0.727905,534
162125373,10009,0.133057,0.625244,0.729004,538
162135376,10003,0.133545,0.625610,0.728760,542
162145373,9997,0.135010,0.625732,0.728638,548
162155369,9996,0.134277,0.625977,0.727539,552
162165360,9991,0.132080,0.625854,0.727905,544
162175386,10026,0.132446,0.626221,0.727661,552
162187696,12310,0.132080,0.624390,0.728149,552
162195375,7679,0.131714,0.623535,0.728882,543
162205411,10036,0.133423,0.625854,0.729370,549
162215394,9983,0.133911,0.625610,0.729492,547
162225373,9979,0.132568,0.624756,0.728882,544
162235365,9992,0.134033,0.624390,0.727783,543
162245385,10020,0.132568,0.624023,0.727783,538
162255377,9992,0.132324,0.625244,0.729370,535
162265384,10007,0.132690,0.625488,0.728394,532
162275363,9979,0.132935,0.626099,0.728516,530
162285388,10025,0.134399,0.624390,0.727783,525
162295384,9996,0.135132,0.623413,0.728149,520
162305387,10003,0.133423,0.622803,0.730713,513
162315387,10000,0.135498,0.625610,0.730347,516
162325375,9988,0.134521,0.625977,0.727783,513
162335383,10008,0.134155,0.625000,0.728271,511
162345365,9982,0.132202,0.623657,0.727661,510
162355367,10002,0.132446,0.624634,0.729614,503
162365362,9995,0.132690,0.623047,0.730713,507
162375369,10007,0.133911,0.624390,0.731323,505
162385378,10009,0.134399,0.624268,0.730347,508
162395380,10002,0.134888,0.624390,0.730713,503
162405395,10015,0.132812,0.622437,0.728882,504
162415390,9995,0.132812,0.623901,0.730713,504
162425385,9995,0.132446,0.623779,0.730713,502
162435382,9997,0.132690,0.624146,0.727295,497
162445388,10006,0.132202,0.624146,0.728149,499
162455376,9988,0.134277,0.626587,0.727905,503
162465374,9998,0.133423,0.625488,0.730225,502
162475385,10011,0.134644,0.626709,0.728760,504
162485384,9999,0.133545,0.627319,0.729126,498
162495375,9991,0.133423,0.626953,0.728149,496
162505389,10014,0.133545,0.625610,0.727173,498
162515375,9986,0.133057,0.623901,0.728638,496
162525383,10008,0.132935,0.624146,0.729004,494
162535366,9983,0.132690,0.624634,0.728882,484
162545375,10009,0.133545,0.624878,0.728027,491
162555379,10004,0.133179,0.624878,0.727661,488
162565377,9998,0.132324,0.624634,0.727051,487
162575385,10008,0.132935,0.624878,0.727783,484
162585383,9998,0.133179,0.625732,0.728516,488
162595388,10005,0.133423,0.626221,0.727051,489
162605375,9987,0.133789,0.630859,0.730347,490
162615386,10011,0.130371,0.629395,0.727905,483
162625364,9978,0.133789,0.625366,0.725220,489
162635373,10009,0.132568,0.625366,0.727661,489
162645371,9998,0.132690,0.626099,0.730591,488
162655383,10012,0.133423,0.624512,0.729858,485
162665368,9985,0.132446,0.625366,0.728149,488
162675390,10022,0.132202,0.625854,0.726807,492
162685378,9988,0.131714,0.624634,0.727783,491
162695362,9984,0.130981,0.624512,0.728638,493
162705374,10012,0.133179,0.624634,0.729858,495
162715380,10006,0.133423,0.624634,0.731934,494
162725381,10001,0.133301,0.621460,0.729248,494
162735364,9983,0.134766,0.621582,0.729614,500
162745363,9999,0.132812,0.622070,0.728882,490
162755364,10001,0.131958,0.622192,0.732300,491
162765363,9999,0.130859,0.624878,0.734863,497
162775397,10034,0.131592,0.622559,0.726196,498
162785369,9972,0.131226,0.624634,0.721680,495
162799134,13765,0.133179,0.622681,0.727051,494
162805383,6249,0.132202,0.630005,0.730225,489
162815376,9993,0.134033,0.624878,0.729736,488
162825378,10002,0.136353,0.625122,0.734375,490
162835365,9987,0.135742,0.622070,0.730835,489
162845367,10002,0.135620,0.624268,0.729126,489
162855386,10019,0.134521,0.621704,0.729492,492
162865380,9994,0.134399,0.620972,0.731079,496
162875374,9994,0.133423,0.621704,0.731079,500
162885365,9991,0.134766,0.624878,0.729126,505
162895384,10019,0.135132,0.625122,0.728638,503
162905372,9988,0.135742,0.625000,0.727905,512
162915364,9992,0.135254,0.624390,0.729614,522
162925360,9996,0.135620,0.622925,0.731079,525
162935375,10015,0.134766,0.621216,0.731445,530
162945376,10001,0.135254,0.622681,0.731079,534
162955383,10007,0.135620,0.622803,0.730103,528
162965388,10005,0.132935,0.624146,0.730713,534
162975381,9993,0.133545,0.621948,0.731445,527
162985385,10004,0.133301,0.624023,0.729858,535
162995368,9983,0.133545,0.622925,0.727173,526
163005377,10009,0.135864,0.625000,0.727539,532
163015369,9992,0.135010,0.624878,0.728271,522
163025362,9993,0.135864,0.625122,0.729004,529
163035374,10012,0.134888,0.624878,0.730347,529
163045374,10000,0.134033,0.622925,0.731201,519
163055383,10009,0.133545,0.623047,0.731445,524
163065377,9994,0.134277,0.623047,0.729858,523
163075389,10012,0.134399,0.623779,0.730591,522
163085387,9998,0.134155,0.624023,0.731201,513
163095390,10003,0.134888,0.624756,0.729858,514
163105361,9971,0.134033,0.623779,0.728027,514
163115384,10023,0.134399,0.624512,0.728516,513
163125362,9978,0.134644,0.625610,0.729858,505
163135404,10042,0.134399,0.624878,0.730469,508
163145385,9981,0.133911,0.624146,0.729736,498
163155380,9995,0.134155,0.623291,0.730347,504
163165365,9985,0.134644,0.623535,0.729736,503
163175378,10013,0.133545,0.624023,0.729736,503
163185378,10000,0.134155,0.624878,0.730225,503
163195362,9984,0.133545,0.625244,0.729248,504
163205389,10027,0.133179,0.625732,0.729004,501
163215373,9984,0.133057,0.622681,0.729004,499
163225382,10009,0.134644,0.623169,0.729126,501
163235363,9981,0.133179,0.624634,0.729126,510
163245360,9997,0.134033,0.624878,0.729004,500
163255375,10015,0.134521,0.626099,0.731079,500
163265361,9986,0.134033,0.625610,0.728882,496
163275368,10007,0.134155,0.622437,0.727783,502
163285365,9997,0.134277,0.621216,0.730225,503
163295370,10005,0.132935,0.622681,0.730957,502
163305366,9996,0.134521,0.624023,0.731689,500
163315406,10040,0.134766,0.624512,0.731445,502
163325382,9976,0.134644,0.623901,0.730225,495
163335385,10003,0.133667,0.622437,0.728760,500
163345385,10000,0.133789,0.622314,0.729126,500
163355380,9995,0.133179,0.622314,0.728516,492
163365365,9985,0.134521,0.624390,0.730835,492
163375373,10008,0.135498,0.625488,0.731445,494
163385364,9991,0.134644,0.624512,0.728394,491
163395362,9998,0.132935,0.622070,0.729370,498
163405387,10025,0.132446,0.621582,0.729004,498
163415380,9993,0.134033,0.623291,0.731201,496
163425388,10008,0.133057,0.624878,0.730347,496
163435388,10000,0.133911,0.623535,0.729004,494
163445363,9975,0.134521,0.622437,0.728394,499
163455373,10010,0.132690,0.622070,0.729614,497
163465369,9996,0.134033,0.623169,0.730835,499
163475360,9991,0.134766,0.624756,0.731934,494
163485370,10010,0.135254,0.625610,0.730225,497
163495388,10018,0.135010,0.623657,0.728394,490
163505397,10009,0.132935,0.622192,0.728394,498
163515360,9963,0.133423,0.622437,0.729004,498
163525384,10024,0.133789,0.623047,0.729492,493
163535369,9985,0.133423,0.623047,0.730591,503
163545375,10006,0.134644,0.622437,0.730957,506
163555364,9989,0.134644,0.622803,0.731445,509
163565374,10010,0.134644,0.622070,0.731567,514
163575385,10011,0.134888,0.621948,0.730591,521
163585381,9996,0.134033,0.622925,0.731201,532
163595379,9998,0.134033,0.623047,0.728638,521
163605378,9999,0.134033,0.623169,0.728760,530
163615364,9986,0.134033,0.622925,0.729858,534
163625376,10012,0.132690,0.622803,0.730713,537
163635378,10002,0.133423,0.622437,0.731201,534
163645366,9988,0.133545,0.622192,0.730835,534
163655373,10007,0.134644,0.622803,0.729858,535
163665376,10003,0.134521,0.624146,0.730957,531
163675384,10008,0.133545,0.624756,0.730469,532
163685388,10004,0.133911,0.624756,0.730225,529
163695379,9991,0.133789,0.624023,0.729980,530
163705373,9994,0.134155,0.622803,0.728516,527
163715386,10013,0.133545,0.621826,0.730225,524
163725378,9992,0.133911,0.622192,0.731201,521
163735373,9995,0.133911,0.622681,0.731201,516
163745371,9998,0.134521,0.624023,0.731689,518
163755362,9991,0.133911,0.624268,0.730713,517
163765394,10032,0.134033,0.623047,0.728027,515
163775375,9981,0.134277,0.624146,0.728149,511
163785365,9990,0.133057,0.623779,0.730225,511
163795382,10017,0.134033,0.624390,0.731812,510
163805377,9995,0.134521,0.624512,0.731567,510
163815375,9998,0.134399,0.623901,0.730957,507
163825384,10009,0.133545,0.623535,0.729370,509
163835382,9998,0.133423,0.623535,0.729126,501
163845365,9983,0.132568,0.622192,0.728394,503
163855374,10009,0.133179,0.622437,0.731201,508
163865364,9990,0.133179,0.623901,0.729126,501
163875388,10024,0.134155,0.623413,0.729980,506
163885360,9972,0.132446,0.622681,0.729858,497
163895375,10015,0.132935,0.623169,0.729736,505
163905369,9994,0.133057,0.622681,0.730103,504
163915387,10018,0.133545,0.624634,0.729980,502
163925387,10000,0.134155,0.623657,0.731079,501
163935365,9978,0.134155,0.624512,0.730469,498
163945381,10016,0.134277,0.623779,0.729614,501
163955377,9996,0.133301,0.622437,0.730835,504
163965363,9986,0.132446,0.621948,0.730469,499
163975387,10024,0.133301,0.622925,0.729980,503
163985371,9984,0.134155,0.623047,0.730591,502
163995376,10005,0.133667,0.623535,0.731323,501
164005372,9996,0.134644,0.623535,0.731567,494
164015371,9999,0.134399,0.622314,0.731323,501
164025376,10005,0.134766,0.622070,0.730835,497
164035413,10037,0.135132,0.623657,0.729980,492
164045372,9959,0.133789,0.623657,0.729004,493
164055368,9996,0.134033,0.623169,0.729248,488
164065376,10008,0.134277,0.622559,0.730713,492
164075364,9988,0.134277,0.622559,0.730713,492
164085366,10002,0.133789,0.624023,0.729492,492
164095366,10000,0.133911,0.623535,0.730591,486
164105367,10001,0.134155,0.622192,0.729004,491
164115384,10017,0.134155,0.622681,0.730347,490
164125381,9997,0.133545,0.622559,0.730835,490
164135374,9993,0.135132,0.621460,0.733154,490
164145387,10013,0.133545,0.623413,0.731689,492
164155376,9989,0.134888,0.623047,0.730713,494
164165364,9988,0.133911,0.623657,0.729858,493
164175383,10019,0.134277,0.621582,0.729492,495
164185365,9982,0.133911,0.621704,0.728394,503
164195364,9999,0.134766,0.624634,0.731934,505
164205360,9996,0.134521,0.623291,0.731445,509
164215362,10002,0.136108,0.623535,0.730225,518
164225371,10009,0.134521,0.623291,0.729614,524
164235375,10004,0.133545,0.622437,0.729736,528
164245370,9995,0.134399,0.623901,0.729248,526
164255372,10002,0.133545,0.625244,0.729370,534
164265386,10014,0.133911,0.624390,0.729004,541
164275376,9990,0.133667,0.624023,0.727539,540
164285365,9989,0.133789,0.622437,0.729370,541
164295379,10014,0.133179,0.622192,0.731201,540
164305373,9994,0.134766,0.622681,0.732178,542
164315362,9989,0.132202,0.623169,0.730835,537
164325370,10008,0.134399,0.622437,0.729736,535
164335388,10018,0.133301,0.623535,0.728271,539
164345388,10000,0.132935,0.625366,0.728638,538
164355369,9981,0.132812,0.626099,0.728271,539
164365383,10014,0.133301,0.625854,0.730225,534
164375386,10003,0.133911,0.622925,0.728027,535
164385384,9998,0.133057,0.621338,0.728882,531
164395375,9991,0.133545,0.621460,0.731323,524
164405363,9988,0.134888,0.622070,0.732056,526
164415408,10045,0.133911,0.624512,0.729980,519
164425379,9971,0.134033,0.625000,0.728516,523
164435360,9981,0.133301,0.625122,0.727051,518
164445383,10023,0.133667,0.623657,0.728027,517
164455361,9978,0.133911,0.623779,0.729004,514
164465390,10029,0.135132,0.625000,0.729736,512
164475362,9972,0.134644,0.624878,0.729126,512
164485383,10021,0.133667,0.622925,0.728149,510
164495389,10006,0.133423,0.622559,0.729004,508
164505366,9977,0.133423,0.623413,0.729004,508
164515378,10012,0.133789,0.624756,0.730713,511
164525392,10014,0.132935,0.625854,0.729858,501
164535382,9990,0.133301,0.624512,0.727783,502
164545365,9983,0.133667,0.623901,0.727051,509
164555368,10003,0.133545,0.622437,0.728271,507
164565368,10000,0.133545,0.623413,0.731201,505
164575388,10020,0.135254,0.624634,0.730225,504
164585379,9991,0.134644,0.625366,0.730347,505
164595386,10007,0.133179,0.624390,0.728638,501
164605361,9975,0.134033,0.622681,0.728516,503
164615400,10039,0.133179,0.625366,0.729004,497
164625366,9966,0.133423,0.625732,0.729248,498
164635381,10015,0.133667,0.626099,0.728516,504
164645363,9982,0.133545,0.625366,0.727173,501
164655369,10006,0.133667,0.625488,0.727417,503
164665376,10007,0.133301,0.624512,0.728271,500
164675381,10005,0.131714,0.623657,0.729004,517
164685373,9992,0.134644,0.625000,0.729492,500
164695364,9991,0.134644,0.625488,0.729614,501
164705360,9996,0.133667,0.625366,0.728516,498
164715388,10028,0.133301,0.625244,0.727295,500
164725401,10013,0.132690,0.625122,0.728027,498
164735389,9988,0.132202,0.624146,0.728516,493
164745364,9975,0.133667,0.625366,0.728760,501
164755373,10009,0.134277,0.624878,0.727783,497
164765372,9999,0.135132,0.624146,0.729248,497
164775380,10008,0.134155,0.624023,0.728638,498
164785381,10001,0.134277,0.624146,0.729858,493
164795388,10007,0.134521,0.625610,0.730713,495
164805372,9984,0.135742,0.625244,0.728882,499
164815409,10037,0.134644,0.625366,0.728882,499
164825379,9970,0.133789,0.624390,0.728760,506
164835385,10006,0.133179,0.624023,0.727783,510
164845379,9994,0.134155,0.623535,0.730347,515
164855365,9986,0.134888,0.625854,0.730225,519
164865361,9996,0.135010,0.624634,0.729736,525
164875373,10012,0.134399,0.621094,0.728271,524
164885374,10001,0.133667,0.621460,0.727661,533
164895389,10015,0.134521,0.621582,0.729980,542
164905386,9997,0.135132,0.625732,0.729370,543
164915366,9980,0.135010,0.625732,0.729614,546
164925381,10015,0.134766,0.625488,0.729004,551
164935382,10001,0.134155,0.624268,0.727905,554
164945372,9990,0.133545,0.622681,0.728149,550
164955363,9991,0.134033,0.621582,0.729858,552
164965383,10020,0.134888,0.625488,0.729858,553
164975365,9982,0.136108,0.625366,0.729492,553
164985376,10011,0.135254,0.623657,0.728394,553
164995366,9990,0.135376,0.622437,0.729492,553
165005366,10000,0.133667,0.624268,0.730835,553
165015383,10017,0.133057,0.623901,0.728760,551
165025386,10003,0.135132,0.625000,0.730347,543
165035385,9999,0.134644,0.624878,0.730103,547
165045369,9984,0.135132,0.624878,0.730713,545
165055376,10007,0.134521,0.624390,0.730469,535
165065365,9989,0.135376,0.622192,0.730225,538
165075378,10013,0.134399,0.622070,0.730347,528
165085364,9986,0.134033,0.623413,0.729614,532
165095386,10022,0.134644,0.623535,0.729736,525
165105385,9999,0.133545,0.622803,0.729492,519
165115371,9986,0.134521,0.623901,0.728882,521
165125403,10032,0.132935,0.624634,0.731201,519
165135385,9982,0.135864,0.624756,0.730591,515
165145378,9993,0.135864,0.624023,0.731201,515
165155360,9982,0.134155,0.623291,0.729614,512
165165385,10025,0.133789,0.623413,0.731567,513
165175364,9979,0.132812,0.624146,0.730225,509
165186020,10656,0.133789,0.623413,0.730347,512
165195386,9366,0.133667,0.623291,0.728638,512
165205379,9993,0.132690,0.624023,0.727539,510
165215411,10032,0.133667,0.625366,0.727905,507
165225364,9953,0.133789,0.624512,0.728516,508
165235389,10025,0.134888,0.621704,0.729858,508
165245377,9988,0.135254,0.622925,0.730103,504
165255360,9983,0.135864,0.623901,0.731812,504
165265378,10018,0.134033,0.624634,0.732300,510
165275383,10005,0.134033,0.624878,0.731323,511
165285388,10005,0.133545,0.624146,0.727417,511
165295370,9982,0.132935,0.622192,0.728149,512
165305368,9998,0.131958,0.621338,0.729492,506
165315370,10002,0.132324,0.621338,0.730469,510
165325372,10002,0.133667,0.623413,0.732544,512
165335367,9995,0.135498,0.623413,0.732056,501
165345362,9995,0.135620,0.622803,0.731812,511
165355361,9999,0.134888,0.623535,0.729980,508
165365378,10017,0.133911,0.623047,0.728638,510
165375378,10000,0.131958,0.621582,0.729614,503
165385373,9995,0.133179,0.622192,0.728271,507
165395360,9987,0.133545,0.623779,0.729004,505
165405368,10008,0.133423,0.625488,0.729126,504
165415374,10006,0.134033,0.625366,0.730469,503
165425382,10008,0.133789,0.625732,0.731445,495
165435382,10000,0.133179,0.624512,0.728394,492
165445367,9985,0.133667,0.655273,0.728882,499
165455372,10005,0.132568,0.627563,0.727905,497
165465375,10003,0.132446,0.628052,0.726929,487
165475385,10010,0.131470,0.625854,0.726562,489
165485376,9991,0.130859,0.625122,0.727173,496
165495369,9993,0.130981,0.623535,0.728149,494
165505394,10025,0.133789,0.624756,0.729858,496
165515369,9975,0.134766,0.625610,0.730347,499
165525386,10017,0.134644,0.626709,0.729004,499
165535360,9974,0.133911,0.627563,0.728638,503
165545376,10016,0.132935,0.627441,0.726929,510
165555363,9987,0.132324,0.626709,0.727417,512
165565365,10002,0.133179,0.625488,0.726929,520
165575378,10013,0.134399,0.625488,0.728394,525
165585387,10009,0.132935,0.625244,0.728394,528
165595407,10020,0.132324,0.623779,0.728882,541
165605380,9973,0.132935,0.625000,0.729614,545
165615361,9981,0.132202,0.625732,0.728882,550
165625371,10010,0.130981,0.625366,0.727417,554
165635367,9996,0.131348,0.625610,0.726929,556
165645386,10019,0.131592,0.624390,0.726562,557
165655386,10000,0.131714,0.623169,0.727295,560
165665385,9999,0.133057,0.624878,0.731201,556
165675389,10004,0.134155,0.624878,0.731689,558
165685381,9992,0.134888,0.624023,0.731079,568
165695387,10006,0.134033,0.621582,0.731934,562
165705370,9983,0.132568,0.621826,0.730469,565
165715364,9994,0.134033,0.623535,0.730347,564
165725374,10010,0.132690,0.626465,0.730347,563
165735367,9993,0.134033,0.628296,0.730957,560
165745379,10012,0.132202,0.624634,0.720459,550
165755371,9992,0.134277,0.621460,0.726807,553
165765386,10015,0.134521,0.623291,0.728760,538
165775374,9988,0.135254,0.625122,0.731567,539
165785383,10009,0.136597,0.624634,0.730469,530
165795368,9985,0.135132,0.622803,0.728027,528
165805393,10025,0.135864,0.625488,0.727661,521
165815378,9985,0.133911,0.626831,0.728760,514
165825388,10010,0.134033,0.628174,0.726318,517
165835387,9999,0.132690,0.630493,0.728027,508
165845403,10016,0.131348,0.629761,0.725464,516
165855384,9981,0.131226,0.627686,0.723755,513
165865375,9991,0.131226,0.625244,0.724121,514
165875361,9986,0.130371,0.621826,0.725464,517
165885374,10013,0.131836,0.622192,0.730713,517
165895377,10003,0.131958,0.623413,0.731689,512
165905379,10002,0.131592,0.622681,0.731201,516
165915398,10019,0.131470,0.623413,0.730103,518
165925360,9962,0.131226,0.624146,0.728149,517
165935371,10011,0.131592,0.624512,0.727661,525
165945379,10008,0.133667,0.626831,0.729248,527
165955364,9985,0.136230,0.627441,0.730347,528
165965364,10000,0.138184,0.626831,0.730225,528
165975364,10000,0.135620,0.626099,0.729248,526
165985378,10014,0.134033,0.625000,0.728760,522
165995388,10010,0.134644,0.622559,0.728394,515
166005386,9998,0.134888,0.622437,0.728516,515
166015365,9979,0.134277,0.623291,0.729004,509
166025362,9997,0.134766,0.624634,0.729980,508
166035383,10021,0.134644,0.625977,0.729126,504
166045380,9997,0.135132,0.622803,0.728149,500
166055365,9985,0.133545,0.622437,0.726929,493
166065380,10015,0.134521,0.624634,0.726929,486
166075362,9982,0.134888,0.625244,0.727417,493
166085361,9999,0.136475,0.626709,0.727295,494
166095360,9999,0.134399,0.626953,0.727173,489
166105393,10033,0.133789,0.626465,0.725830,494
166115369,9976,0.133667,0.625366,0.726318,497
166125368,9999,0.134399,0.626343,0.726807,498
166135368,10000,0.134155,0.625488,0.727051,500
166145386,10018,0.134033,0.625610,0.728271,498
166155382,9996,0.134399,0.624756,0.728760,506
166165386,10004,0.134033,0.625366,0.729614,503
166175375,9989,0.133423,0.625977,0.728516,508
166185369,9994,0.133057,0.626099,0.727661,510
166195409,10040,0.133667,0.626221,0.726074,512
166205390,9981,0.132446,0.627441,0.726685,514
166215387,9997,0.134399,0.627319,0.726807,514
166225386,9999,0.133545,0.626221,0.727295,506
166235366,9980,0.134277,0.625610,0.728271,507
166245386,10020,0.133789,0.625122,0.727539,506
166255375,9989,0.133789,0.624634,0.727295,502
166265365,9990,0.133789,0.625366,0.727783,505
166275372,10007,0.133667,0.627197,0.727783,496
166285371,9999,0.134033,0.625977,0.727661,494
166295365,9994,0.134399,0.626587,0.726807,498
166305388,10023,0.133545,0.625488,0.726685,498
166315366,9978,0.133911,0.625732,0.727295,494
166325363,9997,0.134521,0.626465,0.729492,494
166335373,10010,0.135132,0.625366,0.728271,492
166345369,9996,0.135010,0.626221,0.727173,497
166355369,10000,0.134521,0.625854,0.727417,502
166365364,9995,0.134277,0.626343,0.727783,504
166375361,9997,0.132935,0.628418,0.727661,509
166385386,10025,0.132690,0.629639,0.727539,522
166395365,9979,0.132568,0.628540,0.726196,524
166405406,10041,0.131592,0.625244,0.725098,535
166415390,9984,0.131470,0.624756,0.726807,549
166425386,9996,0.131348,0.624756,0.727539,547
166435388,10002,0.133667,0.625366,0.729126,557
166445385,9997,0.132568,0.626587,0.729126,562
166455363,9978,0.132446,0.626221,0.727783,568
166465377,10014,0.132202,0.626221,0.725952,567
166475379,10002,0.131470,0.626587,0.726318,566
166485369,9990,0.132812,0.627319,0.727173,567
166495370,10001,0.133911,0.629395,0.727783,569
166505375,10005,0.132690,0.628418,0.726807,573
166515363,9988,0.131836,0.626953,0.727661,566
166525390,10027,0.132446,0.627319,0.728149,571
166535364,9974,0.133423,0.626587,0.728027,566
166545375,10011,0.132690,0.628418,0.726685,560
166555387,10012,0.133179,0.626831,0.727173,565
166565388,10001,0.133667,0.627563,0.726440,560
166575376,9988,0.132690,0.625732,0.726929,554
166585380,10004,0.132812,0.624878,0.727905,543
166595388,10008,0.131470,0.627197,0.731689,542
166605388,10000,0.132080,0.625854,0.726685,537
166615392,10004,0.133301,0.622925,0.727295,534
166625387,9995,0.133545,0.625854,0.727295,521
166635363,9976,0.131958,0.626587,0.727539,519
166645365,10002,0.132935,0.626099,0.727173,506
166655372,10007,0.132812,0.625732,0.726562,508
166665362,9990,0.133667,0.626709,0.726929,499
166675360,9998,0.133789,0.627686,0.727051,502
166685378,10018,0.132812,0.629639,0.729004,500
166695362,9984,0.132324,0.625244,0.727783,494
166705378,10016,0.133057,0.626221,0.728638,498
166715386,10008,0.132812,0.625977,0.728516,501
166725378,9992,0.132812,0.625488,0.729126,494
166735404,10026,0.132568,0.625977,0.728027,495
166745361,9957,0.131958,0.626099,0.727417,501
166755381,10020,0.132324,0.624878,0.727295,495
166765381,10000,0.131348,0.625244,0.728638,499
166775381,10000,0.134521,0.626587,0.728638,502
166785384,10003,0.135498,0.627075,0.728027,504
166795361,9977,0.134155,0.626221,0.728149,501
166805366,10005,0.132812,0.625977,0.727783,500
166815387,10021,0.131958,0.625977,0.727417,505
166825360,9973,0.132080,0.625732,0.727417,502
166835398,10038,0.132446,0.626099,0.727417,499
166845370,9972,0.132080,0.626953,0.727051,507
166855365,9995,0.132812,0.627808,0.727173,508
166865386,10021,0.134155,0.625366,0.727783,502
166875375,9989,0.133667,0.625244,0.729248,509
166885381,10006,0.134155,0.625000,0.729248,509
166895367,9986,0.134766,0.625244,0.732300,506
166905370,10003,0.134033,0.621948,0.726807,506
166915383,10013,0.135254,0.622314,0.727539,509
166925367,9984,0.133545,0.625122,0.728882,511
166935385,10018,0.133057,0.625488,0.731934,500
166945374,9989,0.134033,0.625122,0.729858,507
166955380,10006,0.135498,0.625000,0.729492,501
166965369,9989,0.135620,0.624268,0.727539,506
166975372,10003,0.134644,0.624634,0.728394,506
166985373,10001,0.135742,0.625854,0.728882,501
166995370,9997,0.135010,0.626831,0.729614,507
167005386,10016,0.134521,0.625977,0.728760,497
167015387,10001,0.133545,0.624756,0.729370,506
167025370,9983,0.134155,0.625122,0.727417,497
167035373,10003,0.134155,0.624146,0.728638,497
167045363,9990,0.134033,0.623291,0.730103,497
167055389,10026,0.133911,0.624878,0.728638,499
167065380,9991,0.134155,0.625610,0.729736,498
167075370,9990,0.133179,0.624756,0.729004,496
167085376,10006,0.133423,0.624634,0.727661,496
167095374,9998,0.134033,0.625977,0.727417,495
167105360,9986,0.134399,0.626587,0.727173,487
167115371,10011,0.134399,0.625854,0.728027,494
167125377,10006,0.135376,0.625732,0.729004,488
167135378,10001,0.134399,0.625122,0.729492,493
167145363,9985,0.134521,0.624756,0.730957,496
167155399,10036,0.133545,0.625610,0.729858,495
167165388,9989,0.134521,0.625488,0.729248,498
167175369,9981,0.134644,0.625488,0.726807,507
167185375,10006,0.134033,0.625244,0.727173,508
167197204,11829,0.134521,0.625610,0.727539,518
167205382,8178,0.136353,0.626221,0.727295,525
167215379,9997,0.136108,0.626953,0.728394,530
167225374,9995,0.135742,0.626099,0.727783,533
167235373,9999,0.135010,0.625610,0.727295,538
167245362,9989,0.134888,0.623779,0.728516,546
167255364,10002,0.133667,0.623779,0.729370,552
167265375,10011,0.134155,0.625488,0.729858,554
167275368,9993,0.134399,0.625488,0.728638,552
167285380,10012,0.134521,0.624512,0.727783,558
167295360,9980,0.134766,0.625000,0.727539,560
167305376,10016,0.135254,0.626465,0.729126,564
167315361,9985,0.134155,0.625488,0.728149,560
167325363,10002,0.135376,0.625000,0.728394,560
167335388,10025,0.134644,0.625732,0.728882,559
167345384,9996,0.133667,0.626343,0.729248,557
167355371,9987,0.134521,0.623291,0.728394,556
167365372,10001,0.134277,0.622925,0.729980,556
167375376,10004,0.134521,0.623291,0.728882,546
167385371,9995,0.136230,0.625122,0.729004,546
167395381,10010,0.134277,0.625488,0.728149,540
167405381,10000,0.134888,0.625244,0.727539,537
167415362,9981,0.133911,0.625488,0.727295,530
167425369,10007,0.134155,0.626221,0.726318,527
167435408,10039,0.134644,0.626587,0.728394,516
167445372,9964,0.134644,0.627075,0.728760,517
167455383,10011,0.136230,0.625732,0.729736,514
167465389,10006,0.134277,0.624146,0.728882,509
167475371,9982,0.134521,0.624146,0.727905,511
167485368,9997,0.133423,0.625366,0.727539,510
167495373,10005,0.134033,0.626099,0.728516,503
167505384,10011,0.133911,0.626465,0.728027,508
167515376,9992,0.133789,0.627075,0.728149,508
167525387,10011,0.133911,0.625244,0.727417,502
167535381,9994,0.134399,0.623901,0.728394,499
167545371,9990,0.133545,0.624878,0.728638,503
167555371,10000,0.133911,0.626465,0.728271,495
167565370,9999,0.134277,0.627197,0.727295,505
167575378,10008,0.133423,0.625122,0.726562,505
167585365,9987,0.133423,0.626221,0.726318,497
167595361,9996,0.133789,0.625610,0.727783,501
167605377,10016,0.133789,0.626099,0.727661,502
167615415,10038,0.134399,0.625977,0.728394,494
167625380,9965,0.135620,0.625854,0.728638,494
167635366,9986,0.134521,0.625488,0.727539,498
167645383,10017,0.134033,0.625977,0.727051,496
167655387,10004,0.134644,0.627441,0.727539,493
167665368,9981,0.136353,0.627197,0.727539,499
167675371,10003,0.134277,0.626465,0.727417,496
167685376,10005,0.133179,0.623657,0.727173,500
167695361,9985,0.133179,0.624634,0.727661,493
167705367,10006,0.132935,0.625366,0.728516,497
167715381,10014,0.133545,0.625732,0.727051,496
167725382,10001,0.133179,0.627441,0.726562,495
167735386,10004,0.134521,0.627319,0.726807,496
167745380,9994,0.133057,0.628174,0.727051,498
167755362,9982,0.132935,0.626099,0.727417,495
167765362,10000,0.134277,0.626831,0.727417,494
167775387,10025,0.133545,0.628418,0.727783,496
167785363,9976,0.134155,0.627930,0.726929,489
167795362,9999,0.132812,0.626831,0.725708,495
167805376,10014,0.131348,0.627197,0.725952,495
167815374,9998,0.131958,0.626831,0.726440,494
167825383,10009,0.132202,0.626709,0.726685,491
167835364,9981,0.133911,0.627808,0.726196,492
167845360,9996,0.134888,0.629150,0.725464,494
167855368,10008,0.131958,0.627930,0.725098,490
167865388,10020,0.131104,0.629028,0.724487,494
167875380,9992,0.131226,0.628662,0.723877,494
167885380,10000,0.132080,0.629639,0.724487,489
167895363,9983,0.132446,0.628418,0.724121,496
167905385,10022,0.132812,0.628296,0.727173,496
167915397,10012,0.132935,0.625977,0.726440,497
167925370,9973,0.132568,0.625732,0.726685,492
167935372,10002,0.132568,0.626953,0.725952,501
167945360,9988,0.132812,0.628662,0.725342,506
167955389,10029,0.133545,0.629150,0.725952,508
167965366,9977,0.133301,0.628296,0.725708,517
167975383,10017,0.133423,0.627563,0.727051,522
167985385,10002,0.133545,0.626953,0.726685,531
167995376,9991,0.133301,0.628296,0.726318,534
168005399,10023,0.133301,0.628662,0.725830,534
168015383,9984,0.132812,0.628540,0.725830,545
168025387,10004,0.131958,0.627563,0.725708,546
168035371,9984,0.131470,0.625488,0.724121,552
168045373,10002,0.131958,0.626221,0.724243,552
168055375,10002,0.132446,0.628174,0.725708,553
168065366,9991,0.132446,0.628906,0.727051,557
168075389,10023,0.132568,0.628296,0.725830,557
168085389,10000,0.132080,0.627197,0.725830,554
168095362,9973,0.132324,0.626953,0.724609,557
168105382,10020,0.133301,0.627319,0.726196,557
168115392,10010,0.133667,0.629517,0.727783,560
168125372,9980,0.133789,0.629639,0.726196,557
168135389,10017,0.132080,0.628906,0.723755,556
168145372,9983,0.131836,0.626099,0.725220,554
168155364,9992,0.131226,0.626953,0.725586,552
168165372,10008,0.132812,0.628662,0.726929,547
168175388,10016,0.134033,0.627808,0.727417,546
168185365,9977,0.134277,0.628174,0.727051,544
168195398,10033,0.134155,0.627197,0.725952,539
168205360,9962,0.132935,0.626831,0.725708,531
168215361,10001,0.133057,0.627686,0.726440,528
168225385,10024,0.132324,0.630005,0.724976,521
168235370,9985,0.133911,0.628906,0.725098,521
168245384,10014,0.134155,0.626831,0.726196,518
168255385,10001,0.134033,0.626953,0.726929,514
168265383,9998,0.133911,0.625977,0.727661,512
168275378,9995,0.134033,0.627075,0.727295,511
168285387,10009,0.133789,0.628296,0.726074,512
168295379,9992,0.134277,0.628540,0.725098,505
168305384,10005,0.134399,0.628784,0.725220,508
168315360,9976,0.133179,0.627563,0.726196,508
168325364,10004,0.133057,0.627808,0.726685,509
168335375,10011,0.132446,0.628296,0.726562,507
168345366,9991,0.132812,0.628662,0.724976,503
168355379,10013,0.132202,0.628418,0.724365,500
168365364,9985,0.133057,0.628906,0.724854,502
168375387,10023,0.132080,0.628418,0.724976,500
168385412,10025,0.134399,0.628296,0.727173,500
168395379,9967,0.133545,0.629395,0.726685,499
168405370,9991,0.133179,0.628906,0.724976,499
168415360,9990,0.131836,0.626099,0.725342,496
168425376,10016,0.131714,0.626221,0.725586,492
168435383,10007,0.131226,0.626099,0.727417,496
168445379,9996,0.133423,0.629517,0.727539,497
168455366,9987,0.132446,0.628784,0.725342,491
168465364,9998,0.132202,0.627930,0.725342,497
168475370,10006,0.132935,0.626709,0.724976,501
168485383,10013,0.133057,0.626465,0.725952,499
168495406,10023,0.132812,0.626343,0.727783,502
168505380,9974,0.135010,0.628540,0.728027,500
168515388,10008,0.134155,0.627930,0.727905,503
168525370,9982,0.134399,0.627197,0.726685,501
168535364,9994,0.133057,0.625366,0.726440,504
168545372,10008,0.133301,0.626343,0.725464,503
168555364,9992,0.132690,0.629517,0.726929,502
168565361,9997,0.134033,0.628906,0.726196,501
168575380,10019,0.133301,0.627319,0.725464,499
168585400,10020,0.133667,0.626465,0.726685,495
168595370,9970,0.133911,0.625610,0.726685,500
168605377,10007,0.133057,0.625732,0.727783,501
168615366,9989,0.133423,0.627686,0.727173,497
168625382,10016,0.134033,0.627563,0.725708,491
168635389,10007,0.133545,0.627808,0.725830,496
168645360,9971,0.133789,0.628906,0.725952,490
168655387,10027,0.131714,0.628174,0.724976,488
168665388,10001,0.133179,0.628540,0.726440,495
168675389,10001,0.134033,0.628418,0.727295,494
168685360,9971,0.133301,0.628662,0.726318,487
168695371,10011,0.131958,0.625610,0.724731,491
168705360,9989,0.133301,0.623291,0.725098,489
168715372,10012,0.132812,0.623535,0.726196,491
168725389,10017,0.132935,0.626343,0.728638,490
168735360,9971,0.134399,0.626831,0.728271,491
168745365,10005,0.134521,0.627441,0.728027,495
168755388,10023,0.134277,0.629150,0.727905,496
168765386,9998,0.132690,0.628662,0.727539,501
168775368,9982,0.132935,0.628662,0.725830,502
168785395,10027,0.133667,0.627075,0.725708,511
168795381,9986,0.133057,0.625854,0.726318,521
168805380,9999,0.133545,0.624878,0.727539,520
168815378,9998,0.133423,0.624146,0.729370,534
168825374,9996,0.132935,0.655640,0.728882,538
168835365,9991,0.134399,0.626587,0.727417,544
168845375,10010,0.133667,0.627563,0.728027,547
168855376,10001,0.135132,0.627441,0.727783,554
168865386,10010,0.134277,0.626465,0.728149,555
168875386,10000,0.134766,0.625854,0.728027,552
168885368,9982,0.133545,0.625122,0.727905,554
168895384,10016,0.133545,0.625610,0.727417,554
168905371,9987,0.134521,0.626099,0.726685,558
168915385,10014,0.133423,0.625488,0.727661,558
168925361,9976,0.132935,0.625122,0.726685,550
168935389,10028,0.134033,0.624390,0.727661,556
168945369,9980,0.134888,0.625122,0.727783,555
168955368,9999,0.134766,0.626831,0.728760,554
168965386,10018,0.135254,0.626099,0.729492,551
168975377,9991,0.136230,0.625488,0.728271,549
168985373,9996,0.134888,0.625488,0.727905,545
168995367,9994,0.134521,0.625000,0.730103,540
169005363,9996,0.135254,0.626343,0.729004,539
169015374,10011,0.134888,0.625122,0.727905,532
169025378,10004,0.135254,0.624512,0.727295,526
169035385,10007,0.135620,0.625244,0.727173,520
169045385,10000,0.134277,0.626221,0.727295,519
169055383,9998,0.134277,0.626587,0.726196,513
169065370,9987,0.135132,0.628052,0.727051,506
169075366,9996,0.133911,0.628296,0.727295,508
169085369,10003,0.134644,0.627686,0.726196,499
169095384,10015,0.133301,0.626465,0.725952,504
169105360,9976,0.133667,0.626953,0.727051,502
169115384,10024,0.133545,0.628174,0.726196,501
169131100,15716,0.134888,0.626953,0.725464,500
169137335,6235,0.000000,0.000000,0.000000,501
169145378,8043,0.134155,0.626953,0.724731,498
169155381,10003,0.134399,0.626343,0.726562,501
169165413,10032,0.133667,0.626709,0.727661,503
169175361,9948,0.134521,0.626587,0.728760,504
169185389,10028,0.135132,0.628784,0.727661,499
169195389,10000,0.135010,0.627441,0.726562,499
169205384,9995,0.133667,0.625732,0.726196,506
169215387,10003,0.132935,0.625244,0.727051,508
169225384,9997,0.133911,0.626587,0.727417,502
169236152,10768,0.133911,0.627197,0.726196,506
169245389,9237,0.133423,0.627075,0.726685,504
169255385,9996,0.133057,0.627197,0.726318,502
169265381,9996,0.135132,0.626953,0.728882,503
