t_us,dt_us,ax,ay,az,ppg
8946811,10024,-1.217285,-0.023315,0.586304,555
8956793,9982,-1.250977,-0.022949,0.584473,552
8966797,10004,-1.263550,-0.035156,0.574219,561
8976787,9990,-1.270264,-0.046875,0.562622,565
8986793,10006,-1.298950,-0.063477,0.588501,566
8996787,9994,-1.320679,-0.058716,0.597534,563
9006789,10002,-1.328613,-0.065552,0.580444,563
9016799,10010,-1.328857,-0.081299,0.560425,564
9026815,10016,-1.318970,-0.106079,0.526978,559
9036801,9986,-1.303345,-0.151733,0.457275,557
9046788,9987,-1.325073,-0.176636,0.447510,545
9056790,10002,-1.340332,-0.109619,0.436157,546
9066807,10017,-1.368286,-0.148926,0.432495,550
9076789,9982,-1.379028,-0.160156,0.434937,530
9086797,10008,-1.387451,-0.145752,0.433716,549
9096808,10011,-1.364624,-0.103760,0.434326,549
9108932,12124,-1.338501,-0.109253,0.432617,557
9116804,7872,-1.299561,-0.113159,0.429932,556
9126802,9998,-1.256714,-0.118286,0.418701,557
9136794,9992,-1.204468,-0.126465,0.409790,545
9146791,9997,-1.097290,-0.154785,0.374023,539
9156814,10023,-1.050415,-0.158813,0.354248,544
9166808,9994,-1.003784,-0.153809,0.334839,535
9176813,10005,-0.959717,-0.146484,0.316284,526
9186810,9997,-0.919556,-0.142212,0.297485,517
9199301,12491,-0.847900,-0.134155,0.261475,508
9206807,7506,-0.812134,-0.127197,0.242676,501
9216810,10003,-0.779053,-0.121094,0.222046,487
9226791,9981,-0.750854,-0.115356,0.204468,477
9236812,10021,-0.723022,-0.112305,0.190186,483
9246808,9996,-0.699463,-0.109863,0.176758,481
9256802,9994,-0.660645,-0.094238,0.158569,481
9266794,9992,-0.645752,-0.082031,0.153809,478
9276802,10008,-0.633179,-0.071899,0.149292,481
9286790,9988,-0.620728,-0.064575,0.148193,484
9296813,10023,-0.611328,-0.058350,0.148926,485
9306793,9980,-0.604248,-0.053833,0.163452,487
9316806,10013,-0.604126,-0.047974,0.176880,492
9326810,10004,-0.612549,-0.045654,0.191528,499
9336816,10006,-0.631836,-0.044556,0.209595,506
9346791,9975,-0.659546,-0.041626,0.228516,502
9356816,10025,-0.682251,-0.039307,0.242310,509
9366810,9994,-0.723145,-0.041504,0.262939,513
9376787,9977,-0.744995,-0.047852,0.268677,509
9386789,10002,-0.775146,-0.063110,0.272339,504
9396790,10001,-0.814209,-0.079102,0.275269,506
9406802,10012,-0.859985,-0.098511,0.278320,503
9416812,10010,-0.908203,-0.128784,0.303101,498
9426791,9979,-1.013184,-0.137329,0.330811,500
9436810,10019,-1.071411,-0.143066,0.364014,504
9446811,10001,-1.127808,-0.148560,0.408447,506
9456805,9994,-1.176758,-0.141724,0.458008,509
9466787,9982,-1.225342,-0.133301,0.501709,514
9476816,10029,-1.301636,-0.112183,0.578125,511
9486837,10021,-1.324097,-0.096558,0.618896,516
9496796,9959,-1.332275,-0.075317,0.649048,524
9506800,10004,-1.327026,-0.050659,0.666260,520
9516804,10004,-1.314209,-0.031006,0.681152,523
9526796,9992,-1.301392,-0.025513,0.711182,522
9536794,9998,-1.312866,-0.058594,0.709473,522
9546800,10006,-1.317261,-0.130249,0.695557,523
9556813,10013,-1.295166,-0.234985,0.648315,526
9566810,9997,-1.257080,-0.368408,0.637085,531
9576793,9983,-1.223267,-0.442505,0.657349,538
9586816,10023,-1.182007,-0.409424,0.715698,548
9596815,9999,-1.158447,-0.351074,0.725586,550
9606815,10000,-1.146606,-0.280640,0.715210,552
9616810,9995,-1.149048,-0.209961,0.693848,564
9626809,9999,-1.155884,-0.130005,0.662598,572
9636809,10000,-1.155884,0.013306,0.604492,574
9646787,9978,-1.151489,0.042969,0.588013,575
9656802,10015,-1.129150,0.028931,0.590088,573
9666817,10015,-1.092163,0.002319,0.587646,568
9676808,9991,-1.045044,-0.020142,0.580322,554
9686792,9984,-0.993286,-0.032471,0.564575,550
9696790,9998,-0.891479,-0.041626,0.524292,539
9706839,10049,-0.848511,-0.036377,0.514404,516
9716812,9973,-0.810547,-0.026611,0.502930,515
9726789,9977,-0.774292,-0.018066,0.492798,504
9736791,10002,-0.745605,-0.001465,0.491333,489
9746788,9997,-0.721924,0.035034,0.509888,489
9756803,10015,-0.721191,0.041138,0.528809,481
9766802,9999,-0.724731,0.042969,0.545898,486
9776807,10005,-0.731079,0.039063,0.562988,489
9786813,10006,-0.739502,0.026611,0.581299,488
9796815,10002,-0.751587,0.015747,0.608643,489
9806816,10001,-0.774414,0.000122,0.653442,493
9816796,9980,-0.783813,-0.009644,0.677856,494
9826809,10013,-0.798218,-0.016846,0.683716,499
9836806,9997,-0.809082,-0.017700,0.672485,506
9846789,9983,-0.815430,-0.013428,0.653809,513
9856796,10007,-0.841431,0.001709,0.622925,523
9866803,10007,-0.851685,-0.003174,0.611450,536
9876787,9984,-0.883667,0.028564,0.620728,545
9886806,10019,-0.915161,0.061890,0.602173,559
9896795,9989,-0.864136,0.781738,0.369385,566
9906801,10006,-1.488647,1.263916,0.265503,570
9916787,9986,-0.947754,0.038452,0.427612,578
9926810,10023,-1.044678,0.130127,0.640625,582
9936812,10002,-1.090332,-0.061523,0.616943,587
9946813,10001,-1.113892,-0.183105,0.602539,592
9956788,9975,-1.177856,-0.193359,0.588257,596
9966808,10020,-1.193237,0.047974,0.472778,589
9976816,10008,-1.265625,0.106689,0.430054,571
9986798,9982,-1.258179,0.077393,0.444214,543
9996794,9996,-1.162720,-0.027344,0.442993,530
10006811,10017,-1.161133,-0.164307,0.437866,478
10016799,9988,-1.199585,-0.180054,0.430054,477
10026807,10008,-1.227783,-0.084351,0.380859,503
10036794,9987,-1.312744,-0.030762,0.358521,522
10046789,9995,-1.334106,-0.111572,0.360840,582
10056817,10028,-1.341919,-0.191650,0.374390,575
10066804,9987,-1.349365,-0.206055,0.375732,572
10076793,9989,-1.414551,-0.114746,0.391724,550
10086800,10007,-1.401733,-0.100464,0.388306,522
10096789,9989,-1.360596,-0.130859,0.388672,503
10106803,10014,-1.314941,-0.180664,0.384644,486
10116818,10015,-1.267700,-0.202271,0.367798,478
10126799,9981,-1.219604,-0.158813,0.325684,468
10136816,10017,-1.121094,-0.151245,0.308594,458
10146797,9981,-1.069336,-0.152832,0.294922,457
10156806,10009,-1.013550,-0.154541,0.285645,453
10166789,9983,-0.962769,-0.143921,0.279175,449
10176796,10007,-0.917480,-0.123901,0.268799,451
10186813,10017,-0.845337,-0.085205,0.250244,461
10196787,9974,-0.814697,-0.076904,0.236572,459
10206793,10006,-0.791016,-0.070557,0.217407,470
10216812,10019,-0.773926,-0.056763,0.204956,477
10226788,9976,-0.756714,-0.035034,0.192261,485
10236787,9999,-0.743652,0.017700,0.175049,493
10246802,10015,-0.719604,0.042480,0.170776,505
10256800,9998,-0.709595,0.068604,0.175903,515
10266790,9990,-0.703247,0.088623,0.186523,518
10276804,10014,-0.707031,0.104614,0.201660,530
10286787,9983,-0.712036,0.115234,0.218506,536
10296815,10028,-0.707520,0.112305,0.243408,538
10306810,9995,-0.694458,0.101074,0.242920,535
10316789,9979,-0.688721,0.082520,0.239624,541
10326794,10005,-0.699951,0.068970,0.227905,538
10336807,10013,-0.720703,0.054199,0.215088,533
10346803,9996,-0.793823,0.003662,0.204590,533
10356809,10006,-0.844482,-0.023804,0.203003,524
10366797,9988,-0.897339,-0.055298,0.214233,529
10376791,9994,-0.946777,-0.079834,0.235962,524
10386816,10025,-0.987305,-0.090332,0.253418,514
10396794,9978,-1.007446,-0.089844,0.265137,520
10406815,10021,-1.054565,-0.082520,0.282104,517
10416805,9990,-1.086060,-0.079346,0.289917,516
10426789,9984,-1.112427,-0.077637,0.311035,514
10436805,10016,-1.138550,-0.078125,0.335938,516
10446788,9983,-1.150513,-0.074341,0.370850,516
10456792,10004,-1.166748,-0.034912,0.435425,523
10466801,10009,-1.179321,-0.005005,0.466553,524
10476810,10009,-1.200317,0.029053,0.498535,524
10486792,9982,-1.222168,0.067261,0.524292,520
10496791,9999,-1.245239,0.106689,0.553833,525
10506807,10016,-1.259399,0.148071,0.587891,525
10516797,9990,-1.309692,0.221436,0.657349,518
10526807,10010,-1.328125,0.232178,0.686523,522
10536818,10011,-1.341187,0.229248,0.714233,519
10546835,10017,-1.346680,0.203003,0.736938,512
10556796,9961,-1.339478,0.145752,0.747559,508
10566788,9992,-1.294434,0.003418,0.725464,507
10576800,10012,-1.260132,-0.062134,0.696533,500
10586803,10003,-1.223145,-0.143188,0.652466,505
10596795,9992,-1.167725,-0.232544,0.600830,501
10606797,10002,-1.119263,-0.291260,0.587891,505
10616793,9996,-1.082031,-0.298462,0.585937,502
10626801,10008,-1.014648,-0.199463,0.588501,507
10636813,10012,-0.985229,-0.135132,0.586670,503
10646795,9982,-0.955078,-0.074097,0.576294,508
10656791,9996,-0.921753,-0.026001,0.573853,509
10666810,10019,-0.892212,0.016602,0.574829,503
10676812,10002,-0.841919,0.099609,0.585327,506
10686809,9997,-0.818848,0.129272,0.585205,503
10696795,9986,-0.799683,0.143921,0.582153,499
10706789,9994,-0.784790,0.142212,0.571533,493
10716798,10009,-0.772949,0.130127,0.559326,489
10726788,9990,-0.762573,0.110718,0.550293,495
10736806,10018,-0.754761,0.057983,0.548096,496
10746790,9984,-0.758911,0.028809,0.559082,498
10756797,10007,-0.764648,0.003784,0.572144,498
10766811,10014,-0.775146,-0.015259,0.586548,499
10776807,9996,-0.782959,-0.027344,0.603638,504
10786815,10008,-0.808716,-0.035278,0.601929,503
10796788,9973,-0.827881,-0.040649,0.594116,511
10806809,10021,-0.851807,-0.039063,0.585327,515
10816813,10004,-0.877197,-0.027222,0.576416,518
10826789,9976,-0.897461,-0.013550,0.574707,524
10836794,10005,-0.927612,0.029541,0.591064,540
10846791,9997,-0.981934,0.022461,0.605347,541
10856808,10017,-1.003296,0.025146,0.608643,557
10866801,9993,-1.020996,-0.003540,0.600586,564
10876809,10008,-1.051025,0.053223,0.609985,572
10886810,10001,-1.020630,-0.019531,0.570557,580
10896816,10006,-1.105591,0.034058,0.568237,582
10906808,9992,-1.095581,0.026855,0.543823,580
10916789,9981,-1.097900,0.042969,0.524414,588
10926815,10026,-1.116821,0.024902,0.518188,586
10936800,9985,-1.135742,0.006714,0.511230,585
10946801,10001,-1.159424,-0.009399,0.473877,577
10956814,10013,-1.259155,-0.011719,0.462158,577
10966791,9977,-1.315918,-0.028320,0.462158,571
10976789,9998,-1.365967,-0.026489,0.467285,565
10986818,10029,-1.389648,-0.037476,0.463257,557
10996817,9999,-1.410889,-0.041504,0.460083,561
11006805,9988,-1.386841,-0.076172,0.439087,557
11016812,10007,-1.357178,-0.104492,0.424927,560
11026814,10002,-1.366821,-0.119141,0.428223,560
11036803,9989,-1.368042,-0.121948,0.423706,557
11046808,10005,-1.347412,-0.132080,0.418945,555
11056812,10004,-1.297729,-0.132568,0.410522,556
11066800,9988,-1.289063,-0.130127,0.396484,552
11076804,10004,-1.264160,-0.129395,0.380127,548
11086791,9987,-1.233398,-0.129517,0.362793,542
11096799,10008,-1.193970,-0.126221,0.342773,536
11106804,10005,-1.149536,-0.126465,0.323853,526
11116795,9991,-1.050903,-0.116211,0.296021,514
11126791,9996,-1.010498,-0.103027,0.282227,506
11136810,10019,-0.967407,-0.087036,0.265259,501
11146803,9993,-0.928711,-0.074463,0.250610,498
11156805,10002,-0.890381,-0.064941,0.234619,490
11166789,9984,-0.835815,-0.043823,0.205566,480
11176788,9999,-0.828613,-0.037720,0.198975,480
11186790,10002,-0.828613,-0.031738,0.200073,482
11196837,10047,-0.820679,-0.018555,0.203247,488
11206807,9970,-0.811768,-0.003784,0.203613,493
11216797,9990,-0.802979,0.004272,0.206787,489
11226813,10016,-0.789795,0.006592,0.203247,492
11236800,9987,-0.781616,0.003662,0.198364,503
11246803,10003,-0.764038,0.004028,0.188232,506
11256800,9997,-0.735718,0.002808,0.180420,509
11266813,10013,-0.711792,-0.003296,0.175659,512
11276802,9989,-0.709229,-0.026978,0.172485,506
11286811,10009,-0.718994,-0.037354,0.173706,514
11296788,9977,-0.730347,-0.042847,0.176880,513
11306809,10021,-0.750610,-0.048340,0.180054,513
11316800,9991,-0.782349,-0.046509,0.180298,511
11326790,9990,-0.817993,-0.044067,0.187378,510
11336789,9999,-0.866333,-0.033447,0.214233,508
11346806,10017,-0.870605,-0.030273,0.226929,509
11356792,9986,-0.873535,-0.031860,0.242920,509
11366789,9997,-0.917969,-0.030640,0.273071,508
11376791,10002,-0.933594,-0.044067,0.301147,510
11386796,10005,-0.952271,-0.016602,0.342041,509
11396853,10057,-0.958008,0.000610,0.360352,512
11406826,9973,-0.967896,0.008667,0.381592,508
11416791,9965,-0.981812,0.007568,0.405884,517
11426812,10021,-0.998657,0.004639,0.425781,517
11436806,9994,-1.027100,-0.005615,0.440186,524
11446801,9995,-1.133789,-0.012817,0.492187,519
11456810,10009,-1.195068,-0.000732,0.527832,531
11466801,9991,-1.259033,0.005127,0.574829,538
11476788,9987,-1.332031,0.016235,0.616821,542
11486814,10026,-1.386597,0.057983,0.650146,540
11496799,9985,-1.477417,0.131470,0.752563,541
11506816,10017,-1.499023,0.123291,0.791748,547
11516788,9972,-1.512817,0.095825,0.819946,549
11526813,10025,-1.510986,0.027344,0.829590,548
11536802,9989,-1.483765,-0.039429,0.813232,550
11546795,9993,-1.446167,-0.131836,0.746582,554
11556788,9993,-1.327515,-0.340454,0.682617,556
11566797,10009,-1.230103,-0.455078,0.651489,560
11576798,10001,-1.167480,-0.480835,0.666748,565
11586788,9990,-1.119385,-0.450073,0.681030,563
11596797,10009,-1.057129,-0.365234,0.691650,568
11606794,9997,-0.948853,-0.150146,0.674316,571
11616851,10057,-0.903442,-0.046509,0.644165,558
11626829,9978,-0.865845,0.051270,0.618774,560
11636796,9967,-0.839478,0.131104,0.604370,552
11646806,10010,-0.830322,0.193726,0.596436,544
11656800,9994,-0.827515,0.228760,0.599121,526
11666794,9994,-0.820435,0.202271,0.586304,519
11676798,10004,-0.817749,0.160278,0.583374,508
11686808,10010,-0.814575,0.125610,0.585327,488
11696801,9993,-0.811523,0.103149,0.587158,487
11706789,9988,-0.803833,0.084717,0.585571,485
11716790,10001,-0.777832,0.040894,0.578735,475
11726789,9999,-0.762939,0.027832,0.576904,480
11736811,10022,-0.753784,0.025391,0.578369,484
11746791,9980,-0.750732,0.030273,0.585327,488
11756812,10021,-0.748657,0.036133,0.592529,492
11766799,9987,-0.745117,0.031250,0.598633,497
11776796,9997,-0.757812,0.014282,0.591919,508
11786796,10000,-0.785645,0.001587,0.586914,514
11796810,10014,-0.826538,0.004395,0.586548,515
11806798,9988,-0.866577,0.017334,0.588379,527
11816807,10009,-0.962646,0.072754,0.625610,529
11826803,9996,-0.941284,0.073975,0.581543,532
11836808,10005,-0.980591,0.090088,0.583984,545
11846841,10033,-0.994873,0.085449,0.567749,548
11856801,9960,-1.015991,0.071777,0.546509,548
11866788,9987,-1.036377,0.023071,0.527100,553
11876789,10001,-1.086426,-0.045776,0.500977,558
11886793,10004,-1.126099,-0.055908,0.496582,558
11896790,9997,-1.160645,-0.042236,0.493896,567
11906808,10018,-1.197144,-0.023560,0.489136,567
11916806,9998,-1.232666,-0.015381,0.477539,570
11926808,10002,-1.267334,-0.012695,0.470093,565
11936801,9993,-1.350464,-0.011963,0.468018,570
11946803,10002,-1.389404,-0.001709,0.467407,570
11956791,9988,-1.412354,-0.003784,0.462158,571
11966816,10025,-1.430054,-0.019653,0.460693,568
11976803,9987,-1.440186,-0.039795,0.449707,562
11986795,9992,-1.444458,-0.073120,0.422241,559
11996788,9993,-1.441040,-0.077393,0.411743,555
12006787,9999,-1.427246,-0.084229,0.404785,551
12016792,10005,-1.400757,-0.092773,0.396240,548
12026791,9999,-1.355835,-0.104858,0.383545,547
12036787,9996,-1.297974,-0.109985,0.363647,540
12046796,10009,-1.190918,-0.112793,0.335327,541
12056788,9992,-1.139160,-0.117065,0.314819,537
12066797,10009,-1.083252,-0.126587,0.297241,531
12076814,10017,-1.030884,-0.123535,0.282715,522
12086803,9989,-0.982544,-0.112061,0.267456,519
12096787,9984,-0.884399,-0.075439,0.224609,518
12106791,10004,-0.842773,-0.063110,0.203491,513
12116794,10003,-0.806885,-0.061401,0.183716,508
12126811,10017,-0.775269,-0.055298,0.167847,503
12136808,9997,-0.761841,-0.042114,0.159424,494
12146793,9985,-0.752075,-0.020386,0.151855,497
12156798,10005,-0.742554,0.027832,0.162598,497
12166799,10001,-0.719116,0.051636,0.173096,490
12176806,10007,-0.694946,0.070557,0.182861,498
12186801,9995,-0.684082,0.078857,0.189941,502
12196793,9992,-0.687866,0.083374,0.206787,503
12206791,9998,-0.689697,0.079468,0.230713,503
12216806,10015,-0.679932,0.076782,0.235840,504
12226803,9997,-0.667725,0.062866,0.234253,497
12236801,9998,-0.659546,0.042114,0.231934,504
12246805,10004,-0.670288,0.020508,0.222534,495
12256804,9999,-0.692627,-0.003174,0.210937,502
12266796,9992,-0.756958,-0.044067,0.200928,504
12276825,10029,-0.798462,-0.061157,0.211304,504
12286805,9980,-0.844482,-0.072754,0.230713,508
12296789,9984,-0.884888,-0.077271,0.261353,506
12306796,10007,-0.916016,-0.078857,0.293091,514
12316787,9991,-0.989624,-0.049072,0.382324,520
12326813,10026,-1.018799,-0.012573,0.425171,526
12336806,9993,-1.035156,0.021729,0.468506,530
12346813,10007,-1.041504,0.050659,0.504395,528
12356810,9997,-1.047241,0.088623,0.543457,530
12366792,9982,-1.043701,0.118652,0.589478,529
12376791,9999,-1.033447,0.151001,0.605225,528
12386801,10010,-1.036743,0.154053,0.612183,527
12396797,9996,-1.053223,0.152344,0.617676,522
12406801,10004,-1.089722,0.137817,0.628052,525
12416815,10014,-1.124023,0.127075,0.637451,520
12426793,9978,-1.193237,0.105835,0.663452,528
12436802,10009,-1.215698,0.099121,0.670410,531
12446805,10003,-1.237305,0.081299,0.675659,533
12456801,9996,-1.257324,0.066528,0.678833,536
12468544,11743,-1.306396,0.019043,0.658936,533
12476809,8265,0.000000,0.000000,0.000000,538
12486789,9980,-1.280396,-0.015503,0.642090,548
12496827,10038,-1.274048,-0.039307,0.630371,553
12506787,9960,-1.246582,-0.043823,0.611694,556
12516792,10005,-1.218262,-0.067627,0.606445,552
12526791,9999,-1.189575,-0.084961,0.593018,562
12536789,9998,-1.086426,-0.177734,0.550659,561
12546794,10005,-1.036499,-0.195801,0.553833,559
12556788,9994,-0.985107,-0.157715,0.559326,553
12566815,10027,-0.936890,-0.085815,0.559814,544
12576814,9999,-0.895020,-0.001709,0.551025,533
12586813,9999,-0.836182,0.097778,0.530273,515
12596811,9998,-0.822876,0.109009,0.517334,511
12606815,10004,-0.807373,0.109619,0.511108,499
12616815,10000,-0.804199,0.114136,0.512695,484
12626795,9980,-0.800049,0.111328,0.504028,474
12636789,9994,-0.793335,0.108154,0.500122,469
12646789,10000,-0.794678,0.092285,0.482910,474
12656796,10007,-0.800659,0.078491,0.476196,471
12666809,10013,-0.804565,0.061523,0.471436,472
12676793,9984,-0.812866,0.051880,0.474243,483
12686803,10010,-0.817871,0.050171,0.483643,497
12696825,10022,-0.815552,0.049683,0.493774,506
12706805,9980,-0.810791,0.029297,0.495239,521
12716802,9997,-0.808350,0.012695,0.495850,532
12726809,10007,-0.801392,0.005127,0.490356,545
12736794,9985,-0.797363,-0.000977,0.485229,551
12746816,10022,-0.800171,-0.002686,0.480103,561
12756814,9998,-0.865112,-0.003540,0.477661,559
12766801,9987,-0.928589,0.006104,0.481079,569
12776791,9990,-0.985229,0.024048,0.490601,564
12786811,10020,-1.030151,0.043457,0.499390,571
12796802,9991,-1.063721,0.061035,0.505493,571
12806815,10013,-1.109131,0.078857,0.514282,573
12816813,9998,-1.121582,0.076050,0.510986,569
12826814,10001,-1.122559,0.065918,0.504883,559
12836814,10000,-1.113770,0.060181,0.498657,567
12846814,10000,-1.090088,0.053223,0.485596,557
12856796,9982,-1.056030,0.049683,0.473022,559
12866810,10014,-0.995361,0.047241,0.444092,553
12876794,9984,-0.981323,0.044922,0.434692,554
12890494,13700,-0.989746,0.035156,0.424194,545
12896790,6296,-1.025635,0.026245,0.416626,537
12906841,10051,-1.078125,0.016235,0.410889,540
12916812,9971,-1.190430,0.055664,0.411133,535
12926798,9986,-1.227539,0.063477,0.404907,536
12936792,9994,-1.252441,0.054077,0.398315,534
12946810,10018,-1.274170,0.037720,0.394043,532
12956800,9990,-1.281860,0.025391,0.388428,532
12966790,9990,-1.287476,0.006226,0.388184,526
12978784,11994,-1.269043,-0.012573,0.391724,534
12986799,8015,-1.247192,-0.027222,0.393066,532
12996803,10004,-1.213013,-0.043457,0.387451,527
13006807,10004,-1.172607,-0.048462,0.380737,535
13016815,10008,-1.130249,-0.054443,0.370972,528
13026798,9983,-1.037354,-0.055908,0.340210,527
13036790,9992,-0.992187,-0.049683,0.322510,529
13046794,10004,-0.943726,-0.046997,0.304077,526
13056795,10001,-0.895752,-0.033936,0.287476,516
13066814,10019,-0.849609,-0.021362,0.272095,511
13076809,9995,-0.806396,-0.013916,0.255859,504
13087708,10899,-0.752563,-0.006958,0.243042,497
13096860,9152,-0.736084,-0.008545,0.233276,483
13106812,9952,-0.721069,-0.004761,0.221191,477
13116808,9996,-0.710571,0.000244,0.212280,480
13126806,9998,-0.699097,0.012939,0.206909,474
13136807,10001,-0.688721,0.041748,0.225342,471
13146807,10000,-0.695557,0.048950,0.240601,471
13156806,9999,-0.703613,0.054565,0.255981,472
13166790,9984,-0.713257,0.051514,0.267334,474
13176811,10021,-0.721191,0.041260,0.277710,476
13186790,9979,-0.730835,0.014038,0.289795,484
13196787,9997,-0.749756,-0.005249,0.290527,486
13206791,10004,-0.758057,-0.020386,0.289429,484
13216809,10018,-0.766113,-0.021606,0.286133,500
13226810,10001,-0.771362,-0.013550,0.276855,503
13236794,9984,-0.784546,-0.006958,0.270752,507
13246811,10017,-0.848999,-0.017944,0.275879,506
13256798,9987,-0.881714,-0.023682,0.281494,512
13266792,9994,-0.913086,-0.030762,0.288574,522
13276809,10017,-0.954712,-0.037720,0.299194,528
13290501,13692,-1.055298,-0.040039,0.338135,535
13296845,6344,0.000000,0.000000,0.000000,540
13306799,9954,-1.137451,-0.015015,0.382813,547
13316812,10013,-1.168579,0.002319,0.409302,555
13326790,9978,-1.197144,0.019165,0.443115,559
13336797,10007,-1.201538,0.038208,0.472046,562
13346816,10019,-1.183228,0.069336,0.502075,555
13356792,9976,-1.079102,0.133301,0.546509,562
13366806,10014,-1.024170,0.159302,0.555908,557
13376813,10007,-0.985718,0.162231,0.556519,560
13386795,9982,-0.975098,0.151611,0.543213,552
13396802,10007,-0.999634,0.136353,0.518921,552
13406796,9994,-1.099121,0.100342,0.480957,548
13416814,10018,-1.147339,0.104980,0.477417,548
13426802,9988,-1.188110,0.121216,0.484741,549
13436799,9997,-1.218384,0.128662,0.502441,546
13446806,10007,-1.237183,0.128052,0.531738,548
13456801,9995,-1.241089,0.122925,0.557007,548
13466789,9988,-1.222290,0.082886,0.588989,543
13476802,10013,-1.210571,0.076050,0.591064,550
13486792,9990,-1.196167,0.042236,0.583740,550
13496840,10048,-1.180664,0.018311,0.572998,547
13506798,9958,-1.159546,-0.010498,0.561401,542
13516808,10010,-1.082153,-0.047241,0.531250,546
13526809,10001,-1.013916,-0.086182,0.503540,541
13536789,9980,-0.944458,-0.115234,0.490967,540
13546796,10007,-0.889526,-0.112061,0.483032,533
13556815,10019,-0.842163,-0.081177,0.482788,526
13566799,9984,-0.792358,-0.018555,0.486328,519
13576802,10003,-0.730591,0.094116,0.489990,510
13586804,10002,-0.723389,0.129761,0.491333,498
13596806,10002,-0.717773,0.148804,0.489136,490
13606816,10010,-0.725586,0.161011,0.488647,475
13616795,9979,-0.734131,0.176636,0.479858,463
13626793,9998,-0.761963,0.170776,0.471558,453
13636817,10024,-0.776733,0.144531,0.468506,450
13646793,9976,-0.790771,0.114380,0.468628,448
13656801,10008,-0.803711,0.079834,0.471191,450
13666797,9996,-0.817749,0.050659,0.473877,464
13676851,10054,-0.828735,0.006470,0.483154,471
13686805,9954,-0.839111,-0.011963,0.490479,487
13696804,9999,-0.835449,-0.017456,0.494385,500
13706802,9998,-0.825562,-0.005737,0.499512,509
13716797,9995,-0.819336,0.029297,0.518555,513
13726810,10013,-0.830933,0.078491,0.548340,528
13736800,9990,-0.893677,0.149658,0.609375,540
13746802,10002,-0.918091,0.143433,0.629639,543
13756809,10007,-0.942383,0.122925,0.633911,550
13766793,9984,-0.982178,0.088501,0.629150,545
13776811,10018,-1.038330,0.065918,0.619873,555
13786807,9996,-1.143799,0.054687,0.574463,561
13796791,9984,-1.191406,0.051270,0.549072,564
13806791,10000,-1.241089,0.045288,0.521362,570
13816795,10004,-1.296875,0.040161,0.502075,573
13826807,10012,-1.332886,0.047485,0.495728,582
13836816,10009,-1.331299,0.064331,0.495850,586
13846807,9991,-1.223511,0.082397,0.484497,588
13856809,10002,-1.152710,0.069946,0.474976,589
13866827,10018,-1.095825,0.046753,0.456421,585
13876821,9994,-1.074707,0.021362,0.432617,578
13886806,9985,-1.097778,-0.001709,0.413696,575
13896792,9986,-1.233643,-0.032593,0.377075,561
13906796,10004,-1.295044,-0.033936,0.363770,561
13916802,10006,-1.342285,-0.023926,0.356689,557
13926792,9990,-1.366821,-0.000854,0.359009,550
13936797,10005,-1.364502,0.030029,0.375977,539
13946810,10013,-1.346191,0.053955,0.400635,538
13956799,9989,-1.262817,0.066772,0.439819,526
13966795,9996,-1.196533,0.060913,0.447266,519
13976814,10019,-1.133545,0.043335,0.438599,519
13986805,9991,-1.083374,0.027954,0.425293,504
13996800,9995,-1.042725,0.022461,0.404297,501
14006809,10009,-0.966797,0.024902,0.344849,497
14016810,10001,-0.932617,0.015625,0.313843,486
14026807,9997,-0.890991,0.004517,0.283447,483
14036799,9992,-0.841431,-0.009888,0.254517,480
14046799,10000,-0.791626,-0.020386,0.228638,477
14056787,9988,-0.743164,-0.033203,0.183716,472
14066831,10044,-0.664062,-0.052368,0.163452,468
14076800,9969,-0.643555,-0.050415,0.152466,461
14086815,10015,-0.632080,-0.037354,0.145996,454
14096796,9981,-0.622070,-0.008301,0.141846,457
14106814,10018,-0.623291,0.015259,0.152588,457
14116809,9995,-0.633911,0.051147,0.164795,455
14126802,9993,-0.639893,0.059692,0.172485,454
14136815,10013,-0.649414,0.057617,0.191162,453
14146792,9977,-0.663452,0.046997,0.205566,446
14156808,10016,-0.673584,0.030884,0.209106,443
14166803,9995,-0.682495,-0.014038,0.212280,448
14176816,10013,-0.691650,-0.028687,0.204468,449
14186804,9988,-0.696411,-0.033936,0.196045,447
14196795,9991,-0.700195,-0.032715,0.190674,448
14206789,9994,-0.703125,-0.019531,0.196045,451
14216799,10010,-0.710327,-0.002686,0.215332,450
14226796,9997,-0.777710,0.019409,0.264771,460
14236812,10016,-0.820435,0.027710,0.289673,462
14246806,9994,-0.867065,0.030762,0.310059,468
14256803,9997,-0.908203,0.026611,0.319336,473
14266799,9996,-0.949585,0.034302,0.338379,482
14276790,9991,-1.064331,0.041870,0.393677,489
14286791,10001,-1.129028,0.050293,0.426636,501
14296814,10023,-1.193726,0.072144,0.472046,518
14306791,9977,-1.253784,0.097168,0.524658,531
14316815,10024,-1.294189,0.145508,0.588257,556
14326804,9989,-1.309204,0.204224,0.646362,577
14336811,10007,-1.264526,0.295410,0.700439,591
14346808,9997,-1.238892,0.301514,0.712524,605
14356814,10006,-1.237061,0.272949,0.712158,609
14366797,9983,-1.263672,0.205078,0.701294,611
14376802,10005,-1.300781,0.123779,0.681885,612
14386796,9994,-1.343750,-0.009644,0.633545,614
14396791,9995,-1.346191,-0.059692,0.623901,611
14406795,10004,-1.335938,-0.074097,0.625244,612
14416815,10020,-1.312134,-0.059692,0.635498,605
14426811,9996,-1.240112,-0.084229,0.618896,606
14436814,10003,-1.150635,-0.124268,0.629883,588
14446856,10042,-1.034546,-0.011963,0.659424,563
14456796,9940,-1.000366,0.052612,0.632690,548
14466797,10001,-0.972900,0.099609,0.588379,530
14476807,10010,-0.955200,0.129272,0.529785,519
14486806,9999,-0.912109,0.152222,0.474976,501
14496795,9989,-0.835693,0.115967,0.411255,503
14508448,11653,-0.815796,0.082397,0.400146,494
14516809,8361,-0.796997,0.071777,0.386230,492
14526805,9996,-0.778931,0.077637,0.382202,495
14536797,9992,-0.763306,0.098022,0.382935,496
14546795,9998,-0.745972,0.124634,0.422974,499
14556811,10016,-0.728760,0.159790,0.443115,498
14566790,9979,-0.732178,0.176392,0.483765,498
14576805,10015,-0.761475,0.193604,0.515503,491
14586791,9986,-0.796387,0.207886,0.532715,500
14596805,10014,-0.823853,0.226807,0.535156,499
14606806,10001,-0.845337,0.253052,0.549683,503
14616804,9998,-0.827148,0.266113,0.555786,506
14626801,9997,-0.829468,0.301392,0.579834,513
14636789,9988,-0.831299,0.278442,0.606079,514
14646831,10042,-0.830933,0.253174,0.633667,527
14656791,9960,-0.845703,0.241333,0.698730,531
14666804,10013,-0.877319,0.218140,0.718628,534
14676807,10003,-0.882202,0.198242,0.729614,543
14686809,10002,-0.877930,0.162964,0.727783,550
14696812,10003,-0.873047,0.106567,0.718994,554
14706797,9985,-0.868286,0.056885,0.695679,552
14716804,10007,-0.867554,0.041382,0.642090,559
14726789,9985,-0.888794,0.063721,0.616089,562
14736794,10005,-0.921265,0.078003,0.589111,562
14746792,9998,-0.967285,0.078369,0.565674,560
14756812,10020,-1.036499,0.067871,0.551025,557
14766811,9999,-1.236206,0.071533,0.564941,553
14776788,9977,-1.320557,0.073242,0.604126,550
14786794,10006,-1.401733,0.079468,0.646729,544
14796817,10023,-1.459106,0.069092,0.654053,546
14806814,9997,-1.474365,0.028320,0.643433,549
14816805,9991,-1.451782,-0.008789,0.617676,546
14826860,10055,-1.369385,-0.026733,0.586304,560
14836797,9937,-1.344116,-0.035767,0.571533,557
14846811,10014,-1.347412,-0.024902,0.573975,570
14856797,9986,-1.367554,-0.026001,0.566040,564
14866801,10004,-1.378418,-0.039429,0.565674,570
14876795,9994,-1.386963,-0.065674,0.546265,567
14886793,9998,-1.363037,-0.078735,0.522095,557
14896793,10000,-1.320679,-0.091064,0.498169,560
14906799,10006,-1.255005,-0.099365,0.477173,550
14916796,9997,-1.174683,-0.084595,0.463013,545
14926813,10017,-1.104492,-0.070801,0.450562,533
14936794,9981,-1.006836,-0.039429,0.435547,517
14946795,10001,-0.978027,-0.024780,0.426880,516
14956791,9996,-0.955933,-0.014648,0.413940,503
14966809,10018,-0.932617,-0.005737,0.397339,502
14976816,10007,-0.915405,-0.000732,0.378296,491
14986809,9993,-0.855347,0.007324,0.336792,495
14996810,10001,-0.823853,0.005371,0.310669,492
15006802,9992,-0.791992,-0.007813,0.281860,493
15016799,9997,-0.752808,-0.022095,0.252075,491
15026849,10050,-0.718872,-0.034912,0.229858,487
15036808,9959,-0.681885,-0.049683,0.209229,490
15046791,9983,-0.607422,-0.047363,0.170898,484
15056798,10007,-0.593750,-0.041626,0.171631,486
15066795,9997,-0.564819,-0.017944,0.152588,484
15076815,10020,-0.545532,-0.010254,0.144165,474
15086816,10001,-0.526489,0.006226,0.133789,476
15096802,9986,-0.506470,0.040283,0.128296,470
15106799,9997,-0.504028,0.050781,0.129761,462
15116794,9995,-0.508911,0.058960,0.135498,458
15126816,10022,-0.521362,0.063477,0.143066,445
15136796,9980,-0.544922,0.057251,0.161621,441
15146814,10018,-0.565063,0.054687,0.193115,434
15156806,9992,-0.602173,0.008545,0.208862,430
15166813,10007,-0.611328,-0.012085,0.233154,418
15176795,9982,-0.623169,-0.018311,0.251587,421
15186803,10008,-0.646484,-0.011963,0.268433,410
15196815,10012,-0.672485,-0.002563,0.288208,411
15206811,9996,-0.773804,0.028564,0.359375,406
15216791,9980,-0.872070,0.050415,0.406372,408
15226824,10033,-0.983765,0.064697,0.447266,416
15236812,9988,-1.085693,0.081543,0.494263,421
15246795,9983,-1.179077,0.091919,0.532471,427
15256797,10002,-1.335083,0.053955,0.600220,437
15266800,10003,-1.388672,0.041016,0.649902,447
15276815,10015,-1.409912,0.052734,0.704468,456
15286809,9994,-1.403564,0.085083,0.756226,472
15296789,9980,-1.396973,0.113403,0.798706,484
15306803,10014,-1.395142,0.124390,0.826538,499
15316796,9993,-1.379272,0.084106,0.842651,509
15326806,10010,-1.370361,0.050293,0.828369,516
15336805,9999,-1.364258,0.022339,0.793823,520
15346816,10011,-1.376343,-0.030762,0.736938,529
15356812,9996,-1.380615,-0.100708,0.670776,536
15366803,9991,-1.298950,-0.273438,0.518188,546
15376813,10010,-1.191650,-0.393188,0.473999,549
15386804,9991,-1.156738,-0.406372,0.505493,555
15396792,9988,-1.113037,-0.273193,0.574341,551
15406803,10011,-1.062500,-0.066650,0.646851,548
15416811,10008,-1.058105,0.119751,0.702515,550
15426853,10042,-1.098389,0.295532,0.668579,543
15436813,9960,-1.111084,0.270752,0.603149,529
15446792,9979,-1.108154,0.205322,0.536743,523
15456795,10003,-1.101929,0.140015,0.490845,512
15466788,9993,-1.092041,0.094238,0.477295,504
15476815,10027,-1.024536,0.039917,0.516602,493
15486792,9977,-0.969360,0.032104,0.537720,484
15496798,10006,-0.912964,0.028687,0.549194,479
15506800,10002,-0.848633,0.041382,0.551392,473
15516803,10003,-0.789307,0.069458,0.546875,470
15526815,10012,-0.749512,0.110718,0.542358,459
15536813,9998,-0.720459,0.195923,0.520996,464
15546801,9988,-0.722778,0.207275,0.522705,463
15556794,9993,-0.731689,0.197144,0.531372,466
15566797,10003,-0.744019,0.171021,0.538208,470
15576788,9991,-0.754883,0.130127,0.543213,470
15589794,13006,-0.759888,0.032104,0.551758,487
15596792,6998,-0.760376,0.027344,0.565308,494
15606794,10002,-0.772583,0.024170,0.582153,503
15616809,10015,-0.790649,0.039307,0.594604,511
15626816,10007,-0.814087,0.053101,0.609375,517
15636816,10000,-0.837280,0.044678,0.617187,529
15646839,10023,-0.865845,0.027710,0.622070,544
15656807,9968,-0.866333,0.032959,0.621216,553
15666800,9993,-0.868286,0.035278,0.623535,560
15676812,10012,-0.873169,0.044434,0.622681,568
15686814,10002,-0.888306,0.052734,0.623657,571
15696806,9992,-0.937744,0.061401,0.627075,567
15706813,10007,-0.967773,0.073120,0.630371,571
15716803,9990,-0.999878,0.079346,0.631348,571
15726815,10012,-1.050049,0.074585,0.631958,571
15736804,9989,-1.117676,0.064941,0.638062,565
15746816,10012,-1.191772,0.054565,0.631836,561
15756816,10000,-1.320190,0.025146,0.624390,556
15766816,10000,-1.394897,0.005249,0.616211,551
15776802,9986,-1.454346,-0.004272,0.599243,555
15786803,10001,-1.468872,-0.007324,0.579346,552
15796809,10006,-1.428589,-0.003052,0.559082,550
15806808,9999,-1.245117,0.036987,0.532349,552
15816792,9984,-1.180542,0.043579,0.524536,548
15826816,10024,-1.140869,0.033936,0.508179,544
15836802,9986,-1.116089,-0.005249,0.487793,536
15847045,10243,-1.120483,-0.045532,0.473022,526
15856844,9799,-1.168579,-0.090088,0.444092,519
15866799,9955,-1.327759,-0.075806,0.436523,513
15876806,10007,-1.387085,-0.055542,0.427612,509
15886789,9983,-1.425659,-0.043823,0.425903,521
15896806,10017,-1.430908,-0.039429,0.420288,517
15906790,9984,-1.397705,-0.040527,0.420776,521
15916811,10021,-1.280518,-0.045532,0.427734,517
15926816,10005,-1.215698,-0.052002,0.430176,527
15936815,9999,-1.156006,-0.058228,0.424683,527
15946789,9974,-1.109375,-0.067627,0.411621,525
15956788,9999,-1.078735,-0.070679,0.394409,524
15966807,10019,-1.020386,-0.062866,0.349365,524
15976802,9995,-0.982300,-0.048218,0.325073,524
15986799,9997,-0.943481,-0.043457,0.299561,513
15996812,10013,-0.898682,-0.042847,0.275879,516
16006802,9990,-0.846436,-0.049561,0.253052,513
16016793,9991,-0.786743,-0.051147,0.229492,503
16026787,9994,-0.675537,-0.050781,0.193970,504
16036808,10021,-0.632080,-0.039673,0.175537,498
16046787,9979,-0.595215,-0.025513,0.160156,491
16056792,10005,-0.570068,-0.001831,0.145264,476
16066813,10021,-0.553345,0.032959,0.128662,478
16076789,9976,-0.538452,0.078491,0.103271,475
16086812,10023,-0.549316,0.077148,0.122192,471
16096802,9990,-0.556519,0.101074,0.122314,469
16106796,9994,-0.573730,0.080933,0.136108,462
16116804,10008,-0.598877,0.074707,0.166504,466
16126809,10005,-0.620728,0.061401,0.187012,464
16136802,9993,-0.651489,0.037964,0.232178,460
16146804,10002,-0.654175,0.020630,0.237305,453
16156795,9991,-0.668823,0.002441,0.243774,457
16166813,10018,-0.683838,-0.023682,0.245972,457
16176803,9990,-0.694824,-0.035889,0.244263,453
16186803,10000,-0.729980,-0.047363,0.252319,457
16196808,10005,-0.747559,-0.044922,0.267456,447
16206815,10007,-0.773315,-0.039673,0.284668,450
16216797,9982,-0.803345,-0.037842,0.302124,457
16226804,10007,-0.838379,-0.041748,0.314209,457
16240666,13862,-0.963867,-0.054321,0.334351,462
16246806,6140,-1.039551,-0.059937,0.347412,469
16259313,12507,-1.123169,-0.077271,0.356689,476
16266801,7488,-1.217651,-0.101196,0.365723,486
16276807,10006,-1.315186,-0.129639,0.384277,496
16286849,10042,-1.407349,-0.135864,0.421265,513
16296810,9961,-1.518433,-0.080688,0.544800,527
16306802,9992,-1.552246,-0.015259,0.629150,546
16316788,9986,-1.592163,0.047485,0.708740,562
16326804,10016,-1.615723,0.117798,0.763306,573
16336815,10011,-1.600342,0.189209,0.792114,579
16346813,9998,-1.556152,0.232422,0.813232,582
16356803,9990,-1.508423,0.206421,0.837891,567
16366792,9989,-1.480957,0.138184,0.830688,568
16376790,9998,-1.426270,0.038818,0.798950,561
16386793,10003,-1.309326,-0.126709,0.737305,555
16396808,10015,-1.201660,-0.276489,0.728516,548
16406792,9984,-1.137817,-0.237183,0.751709,544
16416802,10010,-1.111206,-0.122681,0.741333,544
16426788,9986,-1.089233,-0.017456,0.682007,534
16436787,9999,-1.085815,0.064331,0.619751,538
16446796,10009,-1.062500,0.091553,0.558105,539
16456811,10015,-1.040894,0.102295,0.541260,537
16466797,9986,-1.042603,0.136597,0.526733,530
16476797,10000,-1.031006,0.132202,0.516357,522
16486791,9994,-1.009888,0.105591,0.515869,504
16496841,10050,-0.974365,0.086304,0.513794,489
16506795,9954,-0.936523,0.068359,0.502930,466
16516801,10006,-0.875610,0.047363,0.472290,462
16526791,9990,-0.842529,0.069214,0.471191,450
16536788,9997,-0.813721,0.103516,0.488525,448
16546809,10021,-0.786133,0.134277,0.518555,436
16556806,9997,-0.755127,0.179443,0.555786,446
16566791,9985,-0.734863,0.255127,0.616577,449
16576794,10003,-0.734009,0.255493,0.633179,458
16586812,10018,-0.742920,0.240723,0.645142,467
16596816,10004,-0.750854,0.214355,0.642700,471
16606794,9978,-0.755371,0.180298,0.635010,484
16616794,10000,-0.776123,0.142700,0.620728,490
16626812,10018,-0.819092,0.110962,0.580078,505
16636792,9980,-0.840576,0.110474,0.567261,514
16646790,9998,-0.862183,0.116943,0.564575,525
16656797,10007,-0.881958,0.120850,0.568115,535
16666814,10017,-0.899048,0.109741,0.574463,539
16676790,9976,-0.909180,0.062134,0.572021,556
16686793,10003,-0.914307,0.046509,0.568726,562
16696795,10002,-0.931885,0.041748,0.570679,566
16706804,10009,-0.967285,0.046509,0.572266,578
16716787,9983,-1.001221,0.047974,0.564331,580
16727128,10341,-1.033447,0.055542,0.555542,577
16736816,9688,-1.123779,0.047241,0.545898,586
16746805,9989,-1.190674,0.046021,0.555176,587
16756806,10001,-1.263184,0.067017,0.567383,589
16766794,9988,-1.329834,0.069580,0.584839,587
16776805,10011,-1.395752,0.049194,0.597534,599
16786790,9985,-1.470581,0.052124,0.576904,602
16796809,10019,-1.488525,0.058350,0.559082,608
16806791,9982,-1.491577,0.067749,0.544556,604
16816810,10019,-1.455200,0.077759,0.524414,616
16826795,9985,-1.399292,0.075439,0.510498,616
16836795,10000,-1.355835,0.057007,0.497559,615
16846806,10011,-1.325317,-0.019409,0.460205,606
16856795,9989,-1.326416,-0.026001,0.440063,603
16866802,10007,-1.350098,-0.039795,0.426636,587
16876791,9989,-1.371460,-0.042236,0.410156,585
16886791,10000,-1.387939,-0.047241,0.393921,571
16896801,10010,-1.353271,-0.041382,0.375854,564
16906832,10031,-1.309570,-0.029663,0.369751,560
16916809,9977,-1.261841,-0.022217,0.365356,549
16926815,10006,-1.212402,-0.020264,0.363770,537
16936792,9977,-1.148560,-0.023682,0.364380,535
16946794,10002,-1.084229,-0.026611,0.353149,526
16956801,10007,-0.979858,-0.038574,0.311890,520
16966810,10009,-0.930420,-0.036133,0.274780,513
16976797,9987,-0.888428,-0.029419,0.215942,504
16986814,10017,-0.843506,-0.023804,0.138916,494
16996796,9982,-0.787842,-0.023682,0.073975,493
17006817,10021,-0.682861,-0.007568,0.015869,481
17016808,9991,-0.649414,0.000488,0.015747,468
17026813,10005,-0.621094,0.012207,0.025391,461
17036804,9991,-0.596313,0.025391,0.042114,451
17046796,9992,-0.574951,0.048950,0.061035,435
17056811,10015,-0.554199,0.075684,0.112915,426
17066808,9997,-0.546509,0.127197,0.115234,407
17076788,9980,-0.556030,0.147583,0.131958,404
17086789,10001,-0.573975,0.161499,0.149536,394
17096800,10011,-0.599243,0.165039,0.161865,386
17106792,9992,-0.625732,0.157837,0.164062,385
17116806,10014,-0.691772,0.091431,0.151123,382
17126817,10011,-0.730347,0.034302,0.155029,389
17136792,9975,-0.767334,-0.023804,0.156006,397
17146808,10016,-0.796875,-0.080444,0.171021,406
17156815,10007,-0.823608,-0.124268,0.200195,415
17166804,9989,-0.854004,-0.145264,0.283203,433
17176806,10002,-0.922485,-0.123901,0.325073,444
17186810,10004,-0.957642,-0.093628,0.360596,460
17196816,10006,-0.990234,-0.057251,0.389771,471
17206794,9978,-1.024170,-0.020508,0.410034,478
17216802,10008,-1.054565,0.017090,0.422607,488
17226795,9993,-1.084106,0.109375,0.416626,498
17236787,9992,-1.127686,0.119141,0.418579,499
17246803,10016,-1.207520,0.097412,0.424316,513
17258288,11485,-1.303833,0.038330,0.433716,525
17266792,8504,-1.402344,-0.051636,0.451050,533
17276812,10020,-1.485840,-0.163452,0.515991,545
17286795,9983,-1.593140,-0.144653,0.574463,557
17296800,10005,-1.611328,-0.087524,0.644287,568
17306808,10008,-1.580322,0.001831,0.699097,592
17316791,9983,-1.531860,0.090942,0.757812,608
17326841,10050,-1.499878,0.159546,0.778320,615
17336789,9948,-1.384521,0.223389,0.746094,616
17346806,10017,-1.311890,0.187378,0.716187,614
17356812,10006,-1.239380,0.086670,0.656006,604
17366790,9978,-1.191284,-0.049683,0.596802,593
17376808,10018,-1.200562,-0.144165,0.565430,589
17386810,10002,-1.222778,-0.213623,0.526245,579
17396804,9994,-1.220825,-0.197144,0.523315,572
17406815,10011,-1.191650,-0.142700,0.550659,571
17416806,9991,-1.130615,-0.013916,0.592896,563
17426812,10006,-1.099243,0.108643,0.630371,555
17436790,9978,-1.074097,0.189697,0.645386,538
17446810,10020,-0.999512,0.267700,0.641602,517
17456803,9993,-0.971924,0.271362,0.619751,499
17466801,9998,-0.956055,0.251831,0.587158,479
17476793,9992,-0.935669,0.222412,0.567139,464
17486792,9999,-0.909058,0.195801,0.563477,454
17496815,10023,-0.865479,0.164429,0.580811,444
17506810,9995,-0.827026,0.159668,0.585693,442
17516801,9991,-0.788696,0.151001,0.590210,441
17526821,10020,-0.757690,0.148804,0.591919,444
17536815,9994,-0.733154,0.157959,0.593872,452
17546816,10001,-0.715210,0.166504,0.593506,460
17556797,9981,-0.702148,0.167236,0.596924,469
17566808,10011,-0.703125,0.156860,0.596680,478
17576800,9992,-0.719116,0.140747,0.591431,487
17586789,9989,-0.742676,0.123169,0.575195,494
17596802,10013,-0.761230,0.108643,0.558838,497
17606788,9986,-0.768066,0.087769,0.536133,502
17616808,10020,-0.776978,0.088989,0.540039,511
17626807,9999,-0.803589,0.098022,0.556152,524
17636792,9985,-0.840332,0.114868,0.573975,526
17646810,10018,-0.876709,0.122559,0.587646,532
17656792,9982,-0.942993,0.146484,0.612549,538
17666805,10013,-0.919556,0.079346,0.552246,539
17676812,10007,-0.975342,0.076416,0.562134,549
17686787,9975,-1.004028,0.071411,0.550537,557
17696791,10004,-1.032837,0.051880,0.545288,554
17706793,10002,-1.061401,0.063843,0.543457,558
17716791,9998,-1.113281,0.080322,0.521118,567
17726801,10010,-1.145874,0.073730,0.510864,565
17736817,10016,-1.177002,0.066528,0.498291,572
17746814,9997,-1.223633,0.059082,0.489502,569
17756787,9973,-1.281982,0.044434,0.485474,575
17766792,10005,-1.349609,0.037354,0.486938,586
17776809,10017,-1.490967,0.034546,0.489624,591
17786810,10001,-1.546875,0.025513,0.482788,592
17796805,9995,-1.591675,0.018799,0.472656,599
17806808,10003,-1.635254,0.026123,0.468262,604
17816792,9984,-1.643311,0.011963,0.462036,608
17826813,10021,-1.534302,0.006958,0.443481,599
17836805,9992,-1.443970,-0.006470,0.430420,597
17846805,10000,-1.345825,-0.023560,0.414551,593
17856800,9995,-1.261108,-0.026123,0.390137,583
17866809,10009,-1.194092,-0.023071,0.368652,573
17876809,10000,-1.147949,-0.042969,0.338623,556
17886808,9999,-1.112793,-0.053589,0.317139,537
17896800,9992,-1.123169,-0.062866,0.299561,525
17906804,10004,-1.137939,-0.066406,0.282227,514
17916808,10004,-1.144165,-0.065063,0.266602,504
17926807,9999,-1.126831,-0.061035,0.255981,500
17936804,9997,-1.057983,-0.059204,0.245117,495
17946814,10010,-1.007202,-0.066040,0.240601,492
17956790,9976,-0.952271,-0.069336,0.240967,483
17966787,9997,-0.893433,-0.071655,0.245117,491
17976814,10027,-0.849243,-0.074585,0.248047,492
17986800,9986,-0.791626,-0.076782,0.246582,487
17996805,10005,-0.775513,-0.071899,0.236694,492
18006806,10001,-0.764282,-0.064453,0.219116,488
18016811,10005,-0.747925,-0.060547,0.198975,488
18026815,10004,-0.723877,-0.055542,0.182007,484
18036794,9979,-0.700195,-0.056030,0.173340,473
18046796,10002,-0.649048,-0.062378,0.163818,472
18056810,10014,-0.625244,-0.074951,0.161621,460
18066795,9985,-0.594238,-0.079224,0.159058,455
18076816,10021,-0.566162,-0.078857,0.157227,448
18086809,9993,-0.546631,-0.069946,0.158081,444
18096811,10002,-0.541016,-0.035034,0.161133,439
18106812,10001,-0.561035,-0.017090,0.167236,430
18116806,9994,-0.592407,-0.006470,0.182739,430
18126842,10036,-0.631836,-0.003174,0.204834,429
18136817,9975,-0.678589,-0.000610,0.232788,425
18146801,9984,-0.724609,0.004761,0.255249,428
18156789,9988,-0.795532,0.015625,0.286987,431
18166799,10010,-0.829590,0.016846,0.302002,434
18176809,10010,-0.861938,0.014038,0.313232,440
18186814,10005,-0.893066,0.009277,0.321533,447
18196816,10002,-0.925293,0.000122,0.329224,448
18206807,9991,-0.995483,-0.020264,0.345459,461
18216808,10001,-1.022583,-0.034302,0.353271,462
18226796,9988,-1.039673,-0.035156,0.375366,474
18236804,10008,-1.068604,-0.019653,0.391479,482
18246805,10001,-1.108154,-0.002686,0.405762,484
18256807,10002,-1.160889,0.007690,0.418701,502
18267568,10761,-1.310059,0.012207,0.477783,510
18276792,9224,-1.404785,-0.002075,0.505493,520
18286789,9997,-1.491333,-0.011230,0.521240,528
18296792,10003,-1.559937,-0.029297,0.531738,540
18306795,10003,-1.598633,-0.029541,0.540283,548
18316790,9995,-1.533081,0.040527,0.571411,567
18326801,10011,-1.452637,0.100220,0.600464,575
18336825,10024,-1.400879,0.154907,0.637085,590
18346807,9982,-1.376587,0.179687,0.683472,587
18356787,9980,-1.343140,0.186523,0.708984,590
18366812,10025,-1.296021,0.159668,0.735962,597
18376799,9987,-1.223145,0.083984,0.742187,593
18386802,10003,-1.200439,0.048706,0.721924,590
18396804,10002,-1.158325,0.029907,0.677124,586
18406815,10011,-1.121338,-0.006836,0.618042,576
18416788,9973,-1.077881,-0.036743,0.548706,577
18426801,10013,-1.012573,-0.013794,0.442993,570
18436799,9998,-0.998413,0.017456,0.426758,561
18446813,10014,-0.975220,0.045898,0.424316,550
18456797,9984,-0.963257,0.063965,0.436157,540
18466796,9999,-0.956543,0.078613,0.454346,517
18476814,10018,-0.951782,0.099487,0.489502,509
18486809,9995,-0.945679,0.101807,0.497314,495
18496811,10002,-0.946411,0.098511,0.500732,477
18506794,9983,-0.928467,0.103760,0.502808,470
18516814,10020,-0.917725,0.103516,0.515259,472
18526812,9998,-0.895874,0.104248,0.518677,473
18536839,10027,-0.842285,0.095215,0.530396,478
18546825,9986,-0.810059,0.089844,0.537964,477
18556795,9970,-0.784668,0.093994,0.544312,492
18566789,9994,-0.779907,0.099854,0.557251,493
18576812,10023,-0.781738,0.119385,0.565186,504
18586802,9990,-0.812500,0.158691,0.566528,510
18596810,10008,-0.794556,0.167969,0.562378,506
18606810,10000,-0.799683,0.157837,0.556641,517
18616803,9993,-0.807129,0.134399,0.547241,515
18626804,10001,-0.809448,0.118164,0.532349,520
18636787,9983,-0.811646,0.101318,0.517456,527
18646798,10011,-0.821289,0.066284,0.504517,521
18656787,9989,-0.841919,0.051758,0.505859,528
18668671,11884,-0.876831,0.048340,0.511108,524
18676793,8122,-0.907959,0.049927,0.512573,529
18686788,9995,-0.938110,0.053955,0.514526,537
18696797,10009,-0.994263,0.055908,0.512329,546
18706806,10009,-1.020508,0.052612,0.509521,552
18716793,9987,-1.049927,0.054810,0.504517,560
18726856,10063,-1.079712,0.051025,0.499146,567
18736791,9935,-1.112915,0.040283,0.494751,576
18746796,10005,-1.136719,0.025757,0.485474,583
18756791,9995,-1.177368,0.013428,0.466187,583
18766791,10000,-1.198242,0.001953,0.458130,596
18776810,10019,-1.217773,-0.011597,0.439575,600
18786803,9993,-1.254639,-0.022705,0.430664,606
18796813,10010,-1.291992,-0.029541,0.421387,605
18806805,9992,-1.360962,-0.010010,0.420898,615
18816806,10001,-1.391968,0.012207,0.428223,609
18826810,10004,-1.424561,0.038208,0.454834,616
18836793,9983,-1.422485,0.053833,0.462402,620
18846787,9994,-1.398193,0.046753,0.458618,621
18856803,10016,-1.356812,0.025269,0.413818,612
18866815,10012,-1.260254,-0.008545,0.406250,607
18876807,9992,-1.224854,-0.011963,0.389038,595
18886802,9995,-1.206543,-0.014648,0.372925,588
18896806,10004,-1.205078,-0.032837,0.363647,577
18906810,10004,-1.201660,-0.045044,0.352783,566
18916799,9989,-1.188721,-0.048950,0.338501,551
18926820,10021,-1.171631,-0.051025,0.334961,543
18936798,9978,-1.149292,-0.049805,0.325439,528
18946805,10007,-1.113892,-0.046753,0.321533,533
18956804,9999,-1.079224,-0.053955,0.315674,522
18966812,10008,-1.026001,-0.063110,0.308105,519
18976807,9995,-0.934937,-0.093140,0.301758,523
18986796,9989,-0.892090,-0.102051,0.292847,516
18996810,10014,-0.868530,-0.105591,0.285156,511
19006795,9985,-0.842651,-0.107056,0.267822,514
19016805,10010,-0.813599,-0.106201,0.243896,505
19026793,9988,-0.767090,-0.088745,0.202515,503
19036794,10001,-0.734375,-0.090332,0.180786,495
19046808,10014,-0.704346,-0.081909,0.164429,494
19056807,9999,-0.675415,-0.076904,0.151733,487
19066789,9982,-0.646973,-0.078491,0.152710,474
19076813,10024,-0.617310,-0.052612,0.151245,467
19086791,9978,-0.585693,-0.039429,0.153198,451
19096804,10013,-0.572266,-0.021484,0.155518,444
19106804,10000,-0.565796,0.001099,0.154419,442
19116857,10053,-0.573242,0.016846,0.159546,433
19126811,9954,-0.589844,0.036865,0.163574,425
19136812,10001,-0.635498,0.064697,0.183838,415
19146802,9990,-0.669800,0.063477,0.204956,409
19156795,9993,-0.714844,0.054932,0.235962,413
19166799,10004,-0.764404,0.041504,0.269409,405
19176800,10001,-0.813477,0.026367,0.298340,404
19186806,10006,-0.906738,0.000488,0.339844,410
19196797,9991,-0.946167,-0.007324,0.352783,406
19206808,10011,-0.980103,-0.019897,0.364868,418
19216798,9990,-1.017090,-0.036865,0.376465,423
19226799,10001,-1.054321,-0.058105,0.386353,431
19236801,10002,-1.083130,-0.083496,0.395020,431
19246801,10000,-1.129150,-0.097412,0.434692,446
19256792,9991,-1.149170,-0.077515,0.468384,456
19266795,10003,-1.164551,-0.041626,0.500854,475
19276795,10000,-1.196167,0.000000,0.537720,492
19286789,9994,-1.232788,0.036621,0.570557,507
19302207,15418,-1.311401,0.082642,0.593750,527
19307932,5725,-1.358398,0.076172,0.583618,535
19316836,8904,-1.410645,0.054565,0.569092,540
19326797,9961,-1.470459,0.022217,0.543945,548
19336793,9996,-1.519531,-0.020874,0.512451,555
19346799,10006,-1.546631,-0.063721,0.494263,571
19356799,10000,-1.480591,-0.145752,0.478027,581
19366813,10014,-1.402344,-0.190918,0.463135,582
19376800,9987,-1.283447,-0.275146,0.436035,592
19386803,10003,-1.173462,-0.318604,0.439209,582
19396815,10012,-1.088013,-0.284180,0.454956,581
19406813,9998,-0.993408,-0.124023,0.493408,570
19416816,10003,-0.988647,-0.036987,0.518066,554
19426793,9977,-1.006836,0.029663,0.538574,527
19436812,10019,-1.024048,0.092529,0.545654,510
19446809,9997,-1.044067,0.140991,0.537476,483
19456812,10003,-1.043701,0.177246,0.520630,476
19466805,9993,-1.000000,0.229858,0.514404,461
19476790,9985,-0.971313,0.230225,0.505737,459
19486790,10000,-0.941162,0.212280,0.498169,457
19496807,10017,-0.912842,0.182373,0.492065,459
19506790,9983,-0.897949,0.149048,0.484985,461
19516798,10008,-0.883179,0.074463,0.494507,466
19526823,10025,-0.885498,0.036865,0.503174,475
19536819,9996,-0.887085,0.003174,0.515137,483
19546802,9983,-0.885986,-0.014648,0.523071,493
19556795,9993,-0.875732,-0.018433,0.521362,504
19566814,10019,-0.863647,-0.018799,0.525879,511
19576815,10001,-0.824585,-0.006104,0.532349,521
19586787,9972,-0.810669,0.002930,0.536743,526
19596810,10023,-0.802856,0.011108,0.538330,529
19606803,9993,-0.796997,0.018555,0.536133,531
19616813,10010,-0.783813,0.014771,0.526978,534
19626796,9983,-0.768799,0.004639,0.505859,532
19636808,10012,-0.775391,0.008789,0.499023,534
19646810,10002,-0.786011,0.021973,0.491455,529
19656816,10006,-0.790039,0.036133,0.489136,529
19666814,9998,-0.788696,0.045776,0.487793,525
19676807,9993,-0.821167,0.051880,0.501465,526
19686801,9994,-0.845215,-0.023315,0.482056,524
19696809,10008,-0.891235,0.057007,0.491943,531
19706807,9998,-0.925781,0.052002,0.490845,528
19716810,10003,-0.948486,0.026367,0.493652,532
19726792,9982,-0.976318,0.027344,0.495361,535
19736821,10029,-1.025757,-0.002075,0.508423,542
19746825,10004,-1.063843,0.010620,0.522217,548
19756793,9968,-1.109985,0.029419,0.528076,551
19766813,10020,-1.144409,0.033569,0.532715,557
19776801,9988,-1.158203,0.046753,0.530884,566
19786790,9989,-1.184326,0.046143,0.556274,570
19796816,10026,-1.216187,0.039429,0.565308,584
19806805,9989,-1.258301,0.029053,0.572876,589
19816800,9995,-1.309204,0.018311,0.570435,596
19826789,9989,-1.363403,-0.000488,0.555298,602
19836813,10024,-1.409668,-0.019531,0.531860,611
19846787,9974,-1.492432,-0.039673,0.499756,617
19856797,10010,-1.518311,-0.031616,0.499878,627
19866809,10012,-1.511841,-0.019165,0.517822,637
19876787,9978,-1.484863,-0.030396,0.536011,644
19886798,10011,-1.432983,-0.029785,0.539307,645
19896794,9996,-1.312256,-0.067871,0.522583,644
19906801,10007,-1.277710,-0.083252,0.499878,635
19916793,9992,-1.260498,-0.089233,0.470337,625
19926787,9994,-1.252441,-0.089600,0.437622,618
19936836,10049,-1.251099,-0.101563,0.413086,605
19946797,9961,-1.239380,-0.107544,0.397949,591
19956802,10005,-1.186157,-0.095337,0.377563,575
19966814,10012,-1.143188,-0.075073,0.375977,559
19976814,10000,-1.105957,-0.063599,0.373413,545
19986803,9989,-1.059082,-0.057861,0.367065,525
19996793,9990,-1.005859,-0.055908,0.362061,520
20006788,9995,-0.902100,-0.063232,0.340332,504
20016792,10004,-0.860718,-0.065918,0.326782,500
20026816,10024,-0.829224,-0.066772,0.308594,488
20036802,9986,-0.802490,-0.064819,0.286255,487
20046795,9993,-0.776611,-0.058716,0.259888,479
20056798,10003,-0.750000,-0.059204,0.232544,476
20066815,10017,-0.689941,-0.057739,0.184326,468
20076801,9986,-0.659302,-0.059204,0.165283,462
20086816,10015,-0.628052,-0.062134,0.149658,456
20096791,9975,-0.596802,-0.060547,0.135742,448
20106799,10008,-0.565308,-0.053467,0.125854,442
20116793,9994,-0.524414,-0.034546,0.121582,435
20126788,9995,-0.514648,-0.018799,0.130249,423
20136787,9999,-0.514526,0.005249,0.141846,424
20146807,10020,-0.526001,0.026123,0.158813,422
20156843,10036,-0.546509,0.052856,0.178833,416
20166801,9958,-0.575684,0.068970,0.235107,414
20176792,9991,-0.635864,0.091797,0.245361,411
20186797,10005,-0.663574,0.083984,0.266113,409
20196796,9999,-0.695557,0.069702,0.282227,408
20206789,9993,-0.728271,0.052734,0.295044,400
20216811,10022,-0.760986,0.034058,0.304321,406
20226809,9998,-0.836792,-0.008911,0.323853,405
20236800,9991,-0.876343,-0.029785,0.336060,403
20246804,10004,-0.914185,-0.038452,0.346802,412
20256796,9992,-0.949097,-0.050415,0.359375,411
20266800,10004,-0.984253,-0.063843,0.373535,425
20276805,10005,-1.021362,-0.071167,0.408936,432
20286796,9991,-1.101318,-0.075928,0.423706,434
20296814,10018,-1.150391,-0.087158,0.430176,445
20306811,9997,-1.205078,-0.102417,0.438965,464
20316799,9988,-1.270264,-0.117432,0.452759,477
20326793,9994,-1.343262,-0.132080,0.464844,484
20336802,10009,-1.502319,-0.170044,0.482666,508
20346816,10014,-1.598022,-0.201904,0.499146,525
20356788,9972,-1.698608,-0.213867,0.515747,537
20366789,10001,-1.774658,-0.209595,0.533691,563
20376801,10012,-1.806152,-0.175171,0.563965,588
20386807,10006,-1.786133,-0.118042,0.655396,614
20396804,9997,-1.654785,-0.086426,0.679321,633
20406819,10015,-1.552490,-0.149292,0.694946,645
20416794,9975,-1.447021,-0.180664,0.739502,642
20426789,9995,-1.338379,-0.179443,0.782471,646
20436798,10009,-1.215088,-0.184692,0.815308,635
20446815,10017,-1.052856,-0.097046,0.727295,619
20456805,9990,-1.000366,-0.065674,0.635742,596
20466810,10005,-0.973633,-0.015747,0.549927,567
20476810,10000,-0.959961,0.058594,0.492065,543
20486800,9990,-0.943237,0.125000,0.474365,519
20496815,10015,-0.941772,0.185791,0.529663,498
20506787,9972,-0.941406,0.207153,0.556519,470
20516788,10001,-0.931274,0.180176,0.559692,455
20526794,10006,-0.912476,0.103149,0.559692,437
20536812,10018,-0.893311,0.039063,0.546509,418
20546812,10000,-0.877075,-0.004761,0.532349,415
20556795,9983,-0.848267,-0.073486,0.505981,413
20566815,10020,-0.850220,-0.089233,0.505371,409
20576791,9976,-0.848633,-0.100098,0.508423,417
20586808,10017,-0.846558,-0.095581,0.513916,437
20596795,9987,-0.841309,-0.081909,0.507324,448
20606789,9994,-0.794312,-0.062256,0.496216,461
20616822,10033,-0.803833,-0.040771,0.502197,486
20626819,9997,-0.799194,-0.050415,0.508545,502
20636805,9986,-0.806274,-0.011841,0.523437,511
20646809,10004,-0.810425,0.008179,0.533325,521
20656803,9994,-0.810303,0.028809,0.541626,526
20666796,9993,-0.806396,0.036377,0.547119,531
20676793,9997,-0.811646,0.045044,0.543579,529
20686808,10015,-0.824707,0.047607,0.539062,530
20696796,9988,-0.835449,0.052002,0.532349,523
20706800,10004,-0.849121,0.056519,0.528564,529
20716817,10017,-0.885986,0.052734,0.521118,526
20726810,9993,-0.911621,0.045410,0.517822,528
20736800,9990,-0.922363,0.043335,0.508057,521
20746791,9991,-0.935791,0.027954,0.507080,524
20756815,10024,-0.952515,0.017700,0.505737,533
20766795,9980,-0.978149,0.003296,0.501953,528
20776810,10015,-1.041260,-0.003784,0.495483,531
20786798,9988,-1.066406,-0.007690,0.485840,533
20796813,10015,-1.096802,-0.006348,0.484497,537
20806813,10000,-1.126953,-0.004883,0.478027,549
20816801,9988,-1.155518,-0.001099,0.471069,554
20826806,10005,-1.225952,-0.003418,0.458862,552
20836788,9982,-1.265381,0.041992,0.471313,564
20846789,10001,-1.386475,0.095215,0.459839,585
20856810,10021,-1.388672,0.135254,0.450073,582
20866794,9984,-1.409546,0.031128,0.454346,586
20876794,10000,-1.472290,-0.041626,0.479492,589
20886810,10016,-1.552856,-0.106323,0.493042,590
20896812,10002,-1.531006,-0.004761,0.486572,592
20906806,9994,-1.423462,0.057983,0.458984,625
20916794,9988,-1.371460,0.052002,0.434204,643
20926803,10009,-1.294556,0.020142,0.417480,653
20936810,10007,-1.182617,-0.132812,0.378906,650
20946813,10003,-1.188965,-0.106323,0.369507,632
20956815,10002,-1.181152,-0.056885,0.343872,608
20966807,9992,-1.181396,-0.037598,0.323730,602
20976810,10003,-1.187012,-0.055664,0.310791,578
20986788,9978,-1.177002,-0.084595,0.303711,570
20996812,10024,-1.147827,-0.097656,0.300903,555
21006798,9986,-1.121460,-0.085449,0.300171,539
21016787,9989,-1.087280,-0.075684,0.290649,532
21026797,10010,-1.046265,-0.087524,0.282227,524
21036815,10018,-1.011230,-0.103882,0.276367,525
21046805,9990,-0.952637,-0.112427,0.268188,511
21056795,9990,-0.927490,-0.109375,0.253906,516
21066809,10014,-0.905762,-0.110962,0.233887,510
21076810,10001,-0.880371,-0.111450,0.211670,499
21086811,10001,-0.847778,-0.111572,0.185669,502
21096813,10002,-0.810181,-0.109741,0.132202,494
21106805,9992,-0.741943,-0.113770,0.132812,499
21116789,9984,-0.704834,-0.110352,0.117798,492
21126801,10012,-0.673096,-0.112549,0.114014,487
21136791,9990,-0.645386,-0.109009,0.111328,472
21146787,9996,-0.633423,-0.095947,0.114380,472
21156799,10012,-0.658203,-0.038696,0.098999,466
21166804,10005,-0.664551,-0.005005,0.085449,458
21176809,10005,-0.663208,0.026855,0.079590,449
21186814,10005,-0.667969,0.057373,0.070801,442
21196800,9986,-0.679810,0.080200,0.069580,436
21206815,10015,-0.696899,0.088867,0.122070,423
21216787,9972,-0.792603,0.079834,0.164429,429
21226798,10011,-0.854370,0.071655,0.206299,425
21236813,10015,-0.898560,0.069946,0.244751,427
21246799,9986,-0.938843,0.070801,0.286255,426
21256803,10004,-0.980835,0.066528,0.322144,422
21266809,10006,-1.078735,0.056519,0.378296,433
21276812,10003,-1.113770,0.040283,0.393555,434
21286801,9989,-1.140869,0.014648,0.404541,448
21296811,10010,-1.155029,-0.009644,0.409058,458
21306794,9983,-1.175293,-0.034790,0.420776,463
21316791,9997,-1.209229,-0.073364,0.455688,472
21326791,10000,-1.303711,-0.064209,0.466675,480
21336807,10016,-1.355103,-0.065186,0.483521,494
21346793,9986,-1.392334,-0.058105,0.489502,504
21356790,9997,-1.450562,-0.069702,0.498657,506
21366806,10016,-1.506592,-0.082275,0.508545,519
21376807,10001,-1.571899,-0.066895,0.550903,535
21386801,9994,-1.559937,-0.050415,0.580322,542
21396816,10015,-1.521851,-0.036011,0.608643,553
21406798,9982,-1.455688,-0.043579,0.629150,569
21416790,9992,-1.389038,-0.059814,0.641113,574
21426803,10013,-1.211792,-0.167969,0.592041,574
21436796,9993,-1.127808,-0.233032,0.582764,579
21446805,10009,-1.096558,-0.251221,0.582031,573
21456800,9995,-1.087524,-0.231079,0.588379,569
21466791,9991,-1.096558,-0.177246,0.602051,571
21476821,10030,-1.111572,-0.119751,0.608521,562
21486825,10004,-1.098022,0.011475,0.607788,561
21496802,9977,-1.077637,0.055420,0.598755,560
21506814,10012,-1.048340,0.081055,0.588989,551
21516806,9992,-1.005127,0.102661,0.588745,540
21526797,9991,-0.968872,0.127197,0.596680,526
21536816,10019,-0.920898,0.167480,0.602661,510
21546790,9974,-0.912720,0.155151,0.604248,507
21556789,9999,-0.921387,0.111206,0.604980,489
21566787,9998,-0.916016,0.132568,0.602295,487
21576795,10008,-0.883667,0.062256,0.578979,481
21586806,10011,-0.880005,-0.003906,0.576538,472
21596795,9989,-0.829712,-0.049316,0.551270,470
21606812,10017,-0.800049,-0.041504,0.534058,474
21616791,9979,-0.788818,-0.052979,0.524292,486
21626808,10017,-0.791504,-0.007935,0.519775,485
21636808,10000,-0.792847,0.026978,0.515259,488
21646791,9983,-0.777222,0.059448,0.516724,493
21656803,10012,-0.780273,0.059204,0.522095,501
21666794,9991,-0.788696,0.065552,0.519775,503
21676801,10007,-0.800903,0.057007,0.518677,500
21686812,10011,-0.817261,0.052002,0.512573,508
21696802,9990,-0.835083,0.043701,0.505737,508
21706816,10014,-0.868652,0.018066,0.491699,512
21716811,9995,-0.881592,0.005005,0.485107,516
21726792,9981,-0.897827,-0.007324,0.484131,522
21736815,10023,-0.913086,-0.009155,0.483643,528
21746809,9994,-0.922607,-0.004761,0.484985,532
21756788,9979,-0.962646,0.013062,0.500488,531
21766793,10005,-0.981812,0.021362,0.502075,544
21776800,10007,-1.001831,0.025024,0.504272,541
21786812,10012,-1.021973,0.024292,0.504639,548
21796787,9975,-1.039673,0.019775,0.501099,545
21806806,10019,-1.059448,0.008179,0.499878,553
21816805,9999,-1.095459,-0.031006,0.494995,556
21826810,10005,-1.140015,-0.049316,0.513184,559
21836806,9996,-1.184204,-0.055786,0.531006,550
21846792,9986,-1.232178,-0.063477,0.551758,559
21856792,10000,-1.284912,-0.069946,0.571777,555
21866798,10006,-1.391602,-0.070312,0.580200,568
21876803,10005,-1.426880,-0.061279,0.563354,578
21886802,9999,-1.446777,-0.045044,0.549805,587
21896808,10006,-1.461792,-0.023437,0.540894,595
21906817,10009,-1.467896,-0.011108,0.537964,596
21916798,9981,-1.442261,-0.040405,0.528076,610
21926803,10005,-1.387939,-0.084473,0.516357,609
21936806,10003,-1.364258,-0.095825,0.500122,616
21946802,9996,-1.355225,-0.093872,0.479126,613
21956804,10002,-1.344727,-0.108276,0.456909,614
21966794,9990,-1.341553,-0.123291,0.434937,609
21976790,9996,-1.343262,-0.155762,0.410278,599
21986790,10000,-1.326050,-0.144531,0.401733,603
21996802,10012,-1.298828,-0.116699,0.403564,596
22006811,10009,-1.251709,-0.092773,0.401001,589
22016813,10002,-1.195435,-0.071899,0.396973,582
22026804,9991,-1.090698,-0.078369,0.381714,576
22036796,9992,-1.036743,-0.088257,0.364502,567
22046791,9995,-0.986328,-0.080688,0.342041,555
22056830,10039,-0.935425,-0.068481,0.311768,540
22066795,9965,-0.892212,-0.059692,0.280762,530
22076815,10020,-0.853394,-0.060913,0.249634,508
22086795,9980,-0.774292,-0.064697,0.184204,499
22096800,10005,-0.739380,-0.068115,0.157104,483
22106797,9997,-0.706421,-0.072876,0.135620,467
22116813,10016,-0.675293,-0.072876,0.120361,446
22126799,9986,-0.653320,-0.070923,0.108887,440
22136814,10015,-0.615234,-0.053589,0.083252,433
22146790,9976,-0.598022,-0.037964,0.068848,415
22156793,10003,-0.583374,-0.016235,0.050293,416
22166791,9998,-0.570801,-0.000854,0.044312,414
22176813,10022,-0.571045,0.021118,0.054199,406
22186801,9988,-0.583862,0.044678,0.071777,396
22196805,10004,-0.639404,0.076782,0.120483,402
22206799,9994,-0.677979,0.096802,0.146973,401
22216788,9989,-0.716553,0.084229,0.171143,400
22226792,10004,-0.752319,0.072754,0.194580,401
22236796,10004,-0.783447,0.051025,0.202026,404
22246814,10018,-0.827515,-0.005371,0.221436,399
22256806,9992,-0.853882,-0.034058,0.238159,404
22266803,9997,-0.894287,-0.062012,0.252563,415
22276808,10005,-0.944458,-0.098877,0.267944,416
22286807,9999,-1.001221,-0.125488,0.292114,430
22296793,9986,-1.057495,-0.139771,0.347412,435
22306810,10017,-1.200073,-0.131348,0.379517,456
22316794,9984,-1.285522,-0.117432,0.409302,465
22326790,9996,-1.369629,-0.109375,0.427856,477
22336802,10012,-1.445435,-0.095215,0.460327,500
22346802,10000,-1.511963,-0.070679,0.495728,516
22356800,9998,-1.613647,-0.012817,0.576294,525
22366800,10000,-1.645752,0.012329,0.619141,545
22376814,10014,-1.648315,0.023437,0.650269,553
22386809,9995,-1.639771,0.029419,0.684692,558
22396800,9991,-1.600952,0.016479,0.697754,554
22406805,10005,-1.539917,-0.051270,0.670654,560
22416811,10006,-1.388184,-0.110840,0.642944,553
22426811,10000,-1.306763,-0.218384,0.576050,540
22436813,10002,-1.221924,-0.331421,0.549072,536
22446803,9990,-1.176880,-0.350952,0.588013,530
22456818,10015,-1.175049,-0.274170,0.638062,520
22466803,9985,-1.175415,-0.073242,0.709229,515
22476796,9993,-1.168579,-0.008911,0.701416,513
22486803,10007,-1.167480,0.011963,0.660278,511
22496789,9986,-1.161621,0.008911,0.610474,512
22506796,10007,-1.149292,0.011108,0.576904,509
22516805,10009,-1.119019,0.051514,0.580811,505
22526813,10008,-1.111450,0.064209,0.598999,507
22536813,10000,-1.098511,0.068481,0.608276,512
22546793,9980,-1.072388,0.064941,0.609863,514
22556788,9995,-1.055908,0.069458,0.609863,511
22566794,10006,-0.998169,-0.018555,0.580078,510
22576793,9999,-0.934448,-0.007080,0.555176,508
22586796,10003,-0.893921,-0.047119,0.545654,510
22596816,10020,-0.853516,-0.037231,0.541138,505
22606808,9992,-0.803589,-0.033936,0.527344,505
22616810,10002,-0.760620,-0.023926,0.517212,506
22626804,9994,-0.711548,0.000000,0.500366,503
22636808,10004,-0.706787,0.015503,0.499756,491
22646810,10002,-0.705811,0.022705,0.503784,494
22656787,9977,-0.711548,0.037354,0.511475,488
22666788,10001,-0.685913,0.008789,0.504883,482
22676807,10019,-0.693481,0.048828,0.515015,481
22686817,10010,-0.706787,0.057739,0.525024,470
22696789,9972,-0.718750,0.075684,0.532837,473
22706814,10025,-0.716064,0.059204,0.529053,477
22716797,9983,-0.722534,0.038208,0.525146,470
22726812,10015,-0.741333,0.023315,0.521729,481
22736789,9977,-0.797607,0.022339,0.512451,484
22746792,10003,-0.842896,0.030640,0.511230,492
22756807,10015,-0.903320,0.038330,0.522095,500
22766791,9984,-0.973633,0.042725,0.540283,508
22776809,10018,-1.035522,0.049072,0.550659,508
22786811,10002,-1.101074,0.056030,0.569702,515
22796792,9981,-1.230469,0.066772,0.576660,535
22806799,10007,-1.264526,0.076294,0.574707,550
22816801,10002,-1.266846,0.080688,0.567993,564
22826793,9992,-1.240234,0.064697,0.552002,578
22836793,10000,-1.212646,0.051880,0.535278,587
22846814,10021,-1.154175,0.029419,0.484009,587
22856795,9981,-1.163940,0.017090,0.465698,592
22866804,10009,-1.203735,0.015625,0.452393,600
22876807,10003,-1.261719,0.025513,0.449951,591
22886810,10003,-1.329956,0.044800,0.458862,597
22896811,10001,-1.394531,0.037476,0.462646,598
22906804,9993,-1.503418,0.016968,0.455566,594
22916794,9990,-1.552612,0.011597,0.447388,592
22926797,10003,-1.582153,-0.005615,0.439941,600
22936793,9996,-1.579102,-0.028809,0.427979,601
22946808,10015,-1.565308,-0.050415,0.421021,599
22956797,9989,-1.510254,-0.101318,0.409546,610
22966796,9999,-1.471313,-0.124023,0.402466,611
22976794,9998,-1.420044,-0.132202,0.389526,610
22986812,10018,-1.371338,-0.129272,0.379517,601
22996816,10004,-1.312134,-0.134399,0.363525,585
23006816,10000,-1.188232,-0.157471,0.331665,574
23016792,9976,-1.130005,-0.152344,0.307861,564
23026821,10029,-1.075684,-0.135498,0.276855,548
23036801,9980,-1.020630,-0.119019,0.236328,522
23046807,10006,-0.965332,-0.115356,0.187012,503
23056810,10003,-0.906372,-0.118286,0.134766,485
23066811,10001,-0.806152,-0.081177,0.032959,468
23076815,10004,-0.758667,-0.028442,-0.001221,461
23086797,9982,-0.700317,0.039307,-0.007935,448
23096803,10006,-0.644409,0.106689,0.000000,437
23106816,10013,-0.609497,0.150513,0.013428,428
23116815,9999,-0.600830,0.204834,0.089355,417
23126796,9981,-0.602661,0.216797,0.120972,408
23136793,9997,-0.607178,0.225586,0.146362,398
23146817,10024,-0.616699,0.226440,0.157959,397
23156792,9975,-0.623657,0.228027,0.161865,391
23170788,13996,-0.622437,0.187134,0.156616,388
23185054,14266,-0.637451,0.110596,0.145508,380
23191674,6620,0.000000,0.000000,0.000000,389
23196787,5113,-0.658447,0.059204,0.145264,380
23206797,10010,-0.693726,0.014648,0.153809,382
23216794,9997,-0.745239,-0.025635,0.166748,393
23226803,10009,-0.873047,-0.112671,0.200684,392
23236797,9994,-0.943359,-0.142456,0.224976,399
23246794,9997,-1.006348,-0.157349,0.252441,414
23259319,12525,-1.061523,-0.155640,0.284058,430
23266790,7471,-1.103394,-0.144043,0.323486,440
23276799,10009,-1.132568,-0.122681,0.406250,449
23286789,9990,-1.234497,-0.047485,0.496460,466
23296812,10023,-1.305054,-0.000732,0.531372,485
23306788,9976,-1.370972,0.035889,0.558960,497
23316804,10016,-1.425659,0.077393,0.575928,501
23326790,9986,-1.474854,0.109131,0.588745,519
23336787,9997,-1.571899,0.096069,0.618408,529
23346802,10015,-1.604614,0.052734,0.635010,533
23356812,10010,-1.619873,0.007690,0.648437,546
23366815,10003,-1.605957,-0.035767,0.659912,554
23376797,9982,-1.571045,-0.071167,0.675537,557
23386801,10004,-1.514282,-0.117188,0.691040,565
23396814,10013,-1.425659,-0.128418,0.693848,559
23406803,9989,-1.400757,-0.093262,0.694092,564
23416792,9989,-1.386108,-0.039063,0.697388,556
23426790,9998,-1.356445,0.008301,0.695801,550
23436810,10020,-1.317993,0.038574,0.686279,544
23446817,10007,-1.189087,-0.049438,0.653809,532
23456812,9995,-1.135254,-0.094482,0.656372,514
23466810,9998,-1.099487,-0.102783,0.647583,511
23476810,10000,-1.058350,-0.077637,0.639160,503
23486802,9992,-1.016724,-0.030029,0.631348,491
23496805,10003,-0.978638,0.023071,0.577759,481
23506801,9996,-0.899780,0.081421,0.582153,478
23516798,9997,-0.864014,0.106567,0.575073,469
23526812,10014,-0.819336,0.088379,0.572754,464
23536812,10000,-0.801514,0.079224,0.585327,460
23546787,9975,-0.765381,0.075684,0.588623,446
23556802,10015,-0.707520,0.074463,0.588501,438
23566799,9997,-0.696899,0.068848,0.584839,443
23576787,9988,-0.693359,0.077637,0.585205,442
23586798,10011,-0.696777,0.076294,0.587402,441
23596794,9996,-0.698730,0.090820,0.591797,441
23606809,10015,-0.681885,0.097046,0.589600,450
23616811,10002,-0.668335,0.072998,0.588379,453
23626829,10018,-0.679687,0.072021,0.588013,469
23636799,9970,-0.686646,0.051270,0.585205,480
23646814,10015,-0.698853,0.049316,0.587646,491
23656793,9979,-0.712524,0.040161,0.586914,499
23666803,10010,-0.758911,0.016235,0.586426,518
23676795,9992,-0.800415,0.004639,0.582031,522
23686804,10009,-0.854858,0.006104,0.578125,542
23696813,10009,-0.908447,0.008179,0.570557,555
23706790,9977,-0.960083,0.003296,0.560059,564
23716812,10022,-1.045044,-0.010254,0.527832,571
23726796,9984,-1.084839,-0.019165,0.516968,579
23736800,10004,-1.135864,-0.025269,0.507202,594
23746801,10001,-1.188965,-0.012207,0.498657,600
23756807,10006,-1.256104,-0.010620,0.501709,601
23766809,10002,-1.289551,0.001099,0.496582,617
23776804,9995,-1.308960,0.021362,0.486816,624
23786789,9985,-1.294556,0.029663,0.476685,628
23796803,10014,-1.293091,0.040283,0.471680,620
23806800,9997,-1.302002,0.048096,0.460327,617
23816802,10002,-1.330688,0.057251,0.454834,620
23826807,10005,-1.436523,0.047607,0.460083,612
23836834,10027,-1.486084,0.066284,0.459351,604
23846814,9980,-1.519287,0.059570,0.447021,596
23856812,9998,-1.537109,0.043213,0.437012,589
23866803,9991,-1.536865,0.016968,0.424072,582
23876787,9984,-1.532715,-0.009888,0.414551,575
23886813,10026,-1.485962,-0.069946,0.385864,577
23896804,9991,-1.442383,-0.085205,0.377808,575
23906806,10002,-1.385620,-0.090088,0.364380,570
23916790,9984,-1.312256,-0.084717,0.344971,569
23926807,10017,-1.246704,-0.084717,0.321777,564
23936789,9982,-1.110229,-0.075317,0.265381,553
23946808,10019,-1.038574,-0.057739,0.225220,546
23956800,9992,-0.963867,-0.036255,0.179321,526
23966794,9994,-0.878296,-0.013306,0.136963,511
23976795,10001,-0.799316,0.007568,0.118530,500
23986812,10017,-0.732910,0.034424,0.121338,480
23996791,9979,-0.675537,0.083374,0.132568,460
24006813,10022,-0.649536,0.103516,0.138916,452
24016807,9994,-0.631714,0.124268,0.145020,436
24026812,10005,-0.614868,0.147705,0.149048,420
24036814,10002,-0.595947,0.180176,0.142944,411
24046837,10023,-0.585205,0.198364,0.159668,401
24056800,9963,-0.602295,0.190796,0.171631,387
24066823,10023,-0.617920,0.179565,0.175171,391
24076802,9979,-0.628540,0.164673,0.181274,389
24086800,9998,-0.648560,0.149414,0.184326,390
24096803,10003,-0.681030,0.088013,0.178223,394
24106815,10012,-0.745605,0.053711,0.168335,398
24116803,9988,-0.766602,0.021240,0.168701,402
24126807,10004,-0.790283,-0.007202,0.181885,412
24136796,9989,-0.818726,-0.031494,0.206909,420
24146793,9997,-0.863159,-0.034424,0.232300,433
24156794,10001,-0.950928,-0.054199,0.277588,444
24166811,10017,-1.001953,-0.059448,0.293945,450
24176798,9987,-1.062622,-0.069458,0.314697,472
24186790,9992,-1.132324,-0.083862,0.334595,482
24196814,10024,-1.206787,-0.100586,0.332275,510
24206812,9998,-1.374146,-0.138672,0.312134,533
24216805,9993,-1.425293,-0.168579,0.317993,552
24226808,10003,-1.497314,-0.190796,0.343384,579
24236800,9992,-1.556885,-0.205078,0.384766,600
24246818,10018,-1.583618,-0.194946,0.434570,620
24256787,9969,-1.570679,-0.158203,0.482422,633
24266819,10032,-1.438477,-0.063354,0.559937,645
24276797,9978,-1.348022,-0.008667,0.586182,641
24286793,9996,-1.248291,0.034668,0.601807,642
24296788,9995,-1.159912,0.071411,0.598511,625
24306789,10001,-1.095825,0.105835,0.585815,604
24316792,10003,-1.058472,0.142944,0.537231,576
24326809,10017,-1.069458,0.159912,0.521118,543
24336813,10004,-1.085938,0.172119,0.510620,514
24346794,9981,-1.115356,0.170532,0.516724,493
24356798,10004,-1.132935,0.168823,0.528442,467
24366805,10007,-1.138428,0.155762,0.541016,455
24376805,10000,-1.118164,0.126343,0.556763,441
24386812,10007,-1.104858,0.081909,0.554077,437
24396801,9989,-1.090332,0.033569,0.548950,444
24406787,9986,-1.081543,-0.010010,0.540771,450
24416807,10020,-1.076416,-0.049683,0.531860,457
24426811,10004,-1.055786,-0.096191,0.515991,458
24436808,9997,-1.030151,-0.088379,0.511963,489
24446825,10017,-1.001831,-0.072754,0.508911,498
24456816,9991,-0.963257,-0.049194,0.504883,512
24466809,9993,-0.916626,-0.016357,0.503540,517
24476792,9983,-0.864746,0.016968,0.500610,527
24486799,10007,-0.760010,0.068970,0.494873,534
24496794,9995,-0.725342,0.092163,0.498901,534
24506792,9998,-0.698608,0.117920,0.501343,523
24516815,10023,-0.685669,0.145996,0.505127,520
24526792,9977,-0.681396,0.169434,0.508301,509
24536806,10014,-0.699097,0.193604,0.508057,495
24546812,10006,-0.716675,0.186401,0.505005,490
24556817,10005,-0.734863,0.163086,0.504639,479
24566803,9986,-0.756958,0.128418,0.502319,467
24576807,10004,-0.777466,0.099487,0.500854,467
24586793,9986,-0.803955,0.085205,0.497803,473
24596804,10011,-0.875732,0.067017,0.494873,476
24606816,10012,-0.909790,0.051392,0.492798,489
24616787,9971,-0.933716,0.033447,0.487061,500
24626790,10003,-0.948608,0.007568,0.474609,510
24636790,10000,-0.959473,-0.016357,0.458618,526
24646824,10034,-0.988770,-0.055664,0.436401,541
24656788,9964,-1.006104,-0.053833,0.428467,550
24666814,10026,-1.030762,-0.031738,0.419556,568
24676815,10001,-1.058838,-0.012085,0.413940,574
24686810,9995,-1.091553,0.006592,0.407959,588
24696810,10000,-1.133057,0.008423,0.377319,592
24706788,9978,-1.240479,0.002319,0.353638,599
24716790,10002,-1.293213,-0.011963,0.335693,609
24726793,10003,-1.339233,-0.024170,0.321533,613
24736787,9994,-1.379761,-0.037476,0.307739,617
24746804,10017,-1.409424,-0.046387,0.301636,619
24756813,10009,-1.475830,-0.053223,0.322998,621
24766790,9977,-1.480713,-0.054443,0.336304,624
24776788,9998,-1.453613,-0.058228,0.349487,621
24786807,10019,-1.410278,-0.062500,0.357300,619
24796811,10004,-1.338379,-0.060913,0.346191,609
24806803,9992,-1.201660,-0.044678,0.338989,597
24816812,10009,-1.164917,-0.040771,0.324951,583
24826795,9983,-1.134033,-0.034912,0.304810,568
24836788,9993,-1.118042,-0.037720,0.287231,555
24846805,10017,-1.115723,-0.038086,0.266724,538
24856798,9993,-1.116333,-0.031128,0.249878,525
24866822,10024,-1.079468,-0.027954,0.227905,511
24876805,9983,-1.049072,-0.036743,0.223877,502
24886808,10003,-1.016846,-0.048950,0.225586,496
24896787,9979,-0.984131,-0.067261,0.231079,493
24906808,10021,-0.950073,-0.071289,0.234375,486
24916800,9992,-0.893188,-0.091431,0.233032,492
24926788,9988,-0.875488,-0.100708,0.225586,489
24936814,10026,-0.866821,-0.108032,0.217163,488
24946814,10000,-0.866699,-0.115356,0.210815,500
24956800,9986,-0.869751,-0.115112,0.202148,505
24966797,9997,-0.866333,-0.112427,0.196655,509
24976795,9998,-0.831909,-0.089478,0.195312,509
24986791,9996,-0.814453,-0.068970,0.204346,508
24999032,12241,-0.786987,-0.058105,0.209595,514
25006813,7781,-0.760010,-0.043823,0.211182,510
25016799,9986,-0.734497,-0.020996,0.206787,505
25026795,9996,-0.701904,-0.006348,0.204102,510
25036800,10005,-0.703247,0.005005,0.205811,505
25046796,9996,-0.714478,0.019287,0.212524,491
25056801,10005,-0.733765,0.033813,0.224243,490
25066808,10007,-0.759277,0.036011,0.237671,477
25076808,10000,-0.786011,0.034058,0.253052,481
25086793,9985,-0.839355,0.026367,0.285645,469
25096788,9995,-0.859131,0.016724,0.295288,472
25106814,10026,-0.880859,-0.001099,0.304443,472
25116800,9986,-0.906128,-0.019531,0.308838,466
25126802,10002,-0.930298,-0.031860,0.315430,475
25136815,10013,-0.963623,-0.047241,0.335449,479
25146814,9999,-0.974854,-0.050903,0.346802,482
25156801,9987,-0.988403,-0.058960,0.358154,487
25166788,9987,-1.015015,-0.061401,0.368774,492
25176796,10008,-1.056885,-0.073242,0.378540,504
25186788,9992,-1.109863,-0.077393,0.409058,506
25196792,10004,-1.227051,-0.068481,0.423828,524
25206792,10000,-1.281738,-0.071411,0.437500,534
25216809,10017,-1.335693,-0.080566,0.450928,547
25226788,9979,-1.384888,-0.094482,0.467896,557
25236800,10012,-1.412842,-0.096436,0.485474,565
25246796,9996,-1.381348,-0.068726,0.531250,583
25256812,10016,-1.332764,-0.053467,0.550049,593
25266806,9994,-1.271240,-0.044678,0.561035,598
25276787,9981,-1.206177,-0.052979,0.564941,591
25286796,10009,-1.147949,-0.067505,0.559082,594
25296792,9996,-1.095459,-0.154297,0.507324,581
25306792,10000,-0.995605,-0.176025,0.490967,581
25316802,10010,-0.981323,-0.178223,0.492187,570
25326805,10003,-1.000488,-0.111694,0.509766,560
25336812,10007,-1.029907,-0.006958,0.535156,549
25346788,9976,-1.052856,0.098145,0.567261,540
25356804,10016,-1.069824,0.238159,0.618774,532
25366787,9983,-1.068970,0.275757,0.630005,522
25376790,10003,-1.059937,0.284058,0.630127,513
25386802,10012,-1.052734,0.250488,0.633911,504
25396815,10013,-1.033447,0.195312,0.634644,502
25406814,9999,-0.979858,0.110107,0.620483,505
25416797,9983,-0.979004,0.076904,0.603760,505
25426796,9999,-0.970703,0.057983,0.589966,509
25436801,10005,-0.947021,0.018677,0.569580,508
25446799,9998,-0.915527,-0.012207,0.545532,511
25456811,10012,-0.886108,-0.031738,0.526978,521
25466809,9998,-0.823120,-0.043823,0.494629,531
25476789,9980,-0.800659,-0.030762,0.484131,534
25486809,10020,-0.772583,-0.022705,0.465454,534
25496789,9980,-0.760132,-0.000854,0.460693,533
25506815,10026,-0.747070,0.015747,0.448486,533
25516815,10000,-0.759033,0.041992,0.436523,534
25526806,9991,-0.776123,0.052734,0.435303,528
25536816,10010,-0.791504,0.061401,0.433594,526
25546800,9984,-0.813354,0.067017,0.433105,521
25556793,9993,-0.845703,0.076782,0.439941,518
25566808,10015,-0.877930,0.086304,0.447021,516
25576808,10000,-0.934448,0.088501,0.454346,516
25586796,9988,-0.955566,0.081909,0.455078,522
25596796,10000,-0.975830,0.073975,0.453003,520
25606788,9992,-0.999146,0.061890,0.449829,535
25616816,10028,-1.024780,0.049805,0.447388,542
25626814,9998,-1.068726,0.038208,0.448242,549
25636791,9977,-1.087036,0.037354,0.449707,553
25646802,10011,-1.100342,0.035645,0.451294,568
25656835,10033,-1.108887,0.035767,0.452881,566
25666798,9963,-1.121826,0.029785,0.451050,576
25676797,9999,-1.138306,0.022339,0.448242,576
25686808,10011,-1.190430,0.010132,0.439575,586
25696798,9990,-1.222656,0.011963,0.435303,588
25706803,10005,-1.251465,0.007813,0.431274,582
25716792,9989,-1.275024,0.011230,0.422974,580
25726791,9999,-1.284668,0.007813,0.414062,586
25736792,10001,-1.276611,0.008057,0.405396,582
25746800,10008,-1.260742,-0.008423,0.401367,588
25756812,10012,-1.238403,-0.023071,0.399780,583
25766793,9981,-1.224976,-0.026733,0.396851,584
25776789,9996,-1.214600,-0.030151,0.395142,579
25786809,10020,-1.216187,-0.042114,0.381958,574
25799124,12315,-1.246826,-0.082520,0.372192,564
25806809,7685,-1.251709,-0.102295,0.355835,559
25816811,10002,-1.246582,-0.112793,0.341309,565
25826788,9977,-1.226563,-0.116455,0.332886,558
25836814,10026,-1.201904,-0.114258,0.324707,563
25846828,10014,-1.163208,-0.131348,0.314209,566
25856813,9985,-1.150879,-0.144409,0.312866,561
25866796,9983,-1.128906,-0.145752,0.317749,569
25876806,10010,-1.100464,-0.144531,0.316528,569
25886794,9988,-1.062378,-0.135132,0.318726,560
25896799,10005,-0.991943,-0.115479,0.312744,564
25906799,10000,-0.938599,-0.117310,0.307861,561
25916805,10006,-0.900391,-0.116211,0.296143,549
25926794,9989,-0.861938,-0.119629,0.281982,542
25936795,10001,-0.817627,-0.111084,0.262939,531
25946804,10009,-0.780396,-0.108521,0.249512,526
25956816,10012,-0.707764,-0.097290,0.218018,515
25966792,9976,-0.677246,-0.090576,0.205200,502
25976800,10008,-0.652710,-0.080933,0.199097,487
25986803,10003,-0.631470,-0.067871,0.193359,468
25996805,10002,-0.615601,-0.055176,0.192139,463
26006792,9987,-0.593506,-0.026367,0.198120,452
26016816,10024,-0.587402,-0.011597,0.201050,435
26026790,9974,-0.587891,-0.000854,0.206177,424
26036818,10028,-0.593628,0.006104,0.215088,423
26046807,9989,-0.607300,0.010132,0.224976,415
26056798,9991,-0.625488,0.010620,0.237671,410
26066813,10015,-0.672729,0.005493,0.262939,409
26076787,9974,-0.698364,-0.000122,0.277466,406
26086807,10020,-0.726929,-0.007202,0.293213,406
26096792,9985,-0.758423,-0.016968,0.308594,410
26106815,10023,-0.792114,-0.027344,0.326294,412
26116790,9975,-0.868774,-0.037842,0.365601,411
26126789,9999,-0.912354,-0.039795,0.388428,421
26136795,10006,-0.954468,-0.040894,0.410645,425
26146815,10020,-0.993286,-0.047119,0.427612,424
26156792,9977,-1.033203,-0.052124,0.448120,440
26166790,9998,-1.073853,-0.048706,0.470581,455
26176795,10005,-1.139526,-0.041626,0.505859,461
26186815,10020,-1.165039,-0.044556,0.517212,471
26196815,10000,-1.188965,-0.058350,0.522583,484
26206816,10001,-1.211548,-0.079224,0.519165,489
26216798,9982,-1.232056,-0.100952,0.508301,507
26235302,18504,-1.341187,-0.228760,0.462280,533
26241890,6588,0.000000,0.000000,0.000000,540
26246791,4901,-1.379395,-0.266113,0.451660,541
26256795,10004,-1.410889,-0.292358,0.445312,560
26266807,10012,-1.432373,-0.305786,0.450928,573
26276811,10004,-1.432251,-0.322144,0.471069,589
26286798,9987,-1.365601,-0.297607,0.506592,595
26296801,10003,-1.318970,-0.227539,0.546509,608
26306808,10007,-1.265625,-0.137573,0.581421,608
26319774,12966,-1.144531,-0.010254,0.609619,599
26326804,7030,0.000000,0.000000,0.000000,593
26336808,10004,-0.984619,0.006592,0.563721,576
26346815,10007,-0.906494,0.006226,0.531494,551
26356809,9994,-0.840820,0.007446,0.501343,523
26366808,9999,-0.815430,0.024536,0.485107,505
26376811,10003,-0.815063,0.052734,0.472412,476
26386787,9976,-0.902710,0.119629,0.471313,457
26396803,10016,-0.905884,0.151123,0.477173,447
26406789,9986,-0.940674,0.169312,0.487915,439
26416837,10048,-0.967407,0.181519,0.499512,432
26426798,9961,-0.980225,0.179443,0.506470,436
26436801,10003,-0.990479,0.166870,0.517944,456
26446794,9993,-1.004517,0.088867,0.560059,471
26456812,10018,-0.998169,0.050049,0.570068,489
26466801,9989,-0.993286,0.005371,0.581299,511
26476788,9987,-0.979248,-0.033081,0.578369,524
26486803,10015,-0.965332,-0.078491,0.568115,550
26496797,9994,-0.920898,-0.155273,0.526978,568
26506807,10010,-0.889648,-0.180786,0.502930,579
26516788,9981,-0.861084,-0.182007,0.482178,581
26526798,10010,-0.828369,-0.161499,0.460937,580
26536804,10006,-0.795166,-0.131592,0.442505,590
26546809,10005,-0.764404,-0.099243,0.426270,578
26556794,9985,-0.745483,-0.026978,0.407715,577
26566807,10013,-0.747437,0.001465,0.402588,568
26576815,10008,-0.761230,0.018799,0.402466,554
26586798,9983,-0.779907,0.033447,0.402710,539
26596815,10017,-0.803589,0.048706,0.402222,531
26606794,9979,-0.869141,0.074463,0.406372,523
26616813,10019,-0.904785,0.085327,0.409912,517
26626806,9993,-0.937500,0.087280,0.415161,511
26636814,10008,-0.968506,0.085327,0.420410,514
26646809,9995,-1.003052,0.077148,0.427368,515
26656795,9986,-1.037109,0.066528,0.430420,517
26666791,9996,-1.078247,0.041382,0.427368,530
26676798,10007,-1.080933,0.024170,0.416870,543
26686792,9994,-1.087280,0.008545,0.406128,553
26696792,10000,-1.097412,0.001709,0.394287,555
26706799,10007,-1.104126,-0.000610,0.380493,570
26716816,10017,-1.085327,0.109741,0.343262,578
26726804,9988,-1.083496,0.134521,0.327637,583
26736798,9994,-1.080933,0.033447,0.342041,581
26746798,10000,-1.079224,-0.061890,0.395386,574
26756791,9993,-1.110596,-0.051025,0.356934,559
26766800,10009,-1.186890,-0.015625,0.343262,556
26776843,10043,-1.206299,-0.102783,0.347534,549
26786789,9946,-1.244141,-0.171021,0.355469,538
26796803,10014,-1.308960,-0.178833,0.346436,531
26806798,9995,-1.322754,-0.110840,0.345703,544
26816799,10001,-1.291748,-0.061035,0.334473,567
26826799,10000,-1.289917,-0.035034,0.331299,574
26836794,9995,-1.191040,-0.099121,0.323853,584
26846787,9993,-1.138306,-0.156982,0.322266,585
26856810,10023,-1.091675,-0.148682,0.316650,580
26866816,10006,-1.026733,-0.113159,0.294434,571
26876793,9977,-0.952271,-0.105347,0.261963,554
26886812,10019,-0.942383,-0.137085,0.254517,548
26896803,9991,-0.953613,-0.148682,0.251587,528
26906789,9986,-0.981689,-0.126221,0.247559,519
26916814,10025,-1.006104,-0.102417,0.250610,511
26926789,9975,-1.014771,-0.055542,0.253174,502
26945438,18649,-1.014160,-0.035889,0.279663,492
26951030,5592,0.000000,0.000000,0.000000,493
26956808,5778,-1.007324,-0.041992,0.283081,495
26966801,9993,-1.006104,-0.053467,0.286865,497
26976812,10011,-0.999146,-0.064697,0.286743,505
26986809,9997,-0.971313,-0.109497,0.281494,511
26996796,9987,-0.954102,-0.128784,0.274780,521
27006798,10002,-0.940063,-0.134888,0.267090,531
27016806,10008,-0.920654,-0.136108,0.254639,542
27032235,15429,-0.862671,-0.131348,0.229736,550
27038031,5796,-0.825562,-0.127075,0.220703,551
27046787,8756,-0.795044,-0.117920,0.212280,554
27056814,10027,-0.767700,-0.110962,0.212524,562
27066792,9978,-0.741211,-0.098389,0.211182,557
27076813,10021,-0.714722,-0.087646,0.213867,544
27086803,9990,-0.696045,-0.072021,0.220093,543
27096795,9992,-0.684570,-0.036865,0.235474,534
27106808,10013,-0.694580,-0.018921,0.243530,518
27116842,10034,-0.703247,0.004761,0.252686,516
27126788,9946,-0.720825,0.029785,0.265503,505
27141475,14687,-0.797607,0.051147,0.295654,495
27147687,6212,-0.827026,0.059937,0.303345,494
27156813,9126,-0.853516,0.053711,0.312012,485
27166801,9988,-0.879883,0.039551,0.320068,479
27176808,10007,-0.909668,0.018311,0.328491,476
27186795,9987,-0.934082,-0.006226,0.338013,468
27196794,9999,-0.960571,-0.025635,0.351807,474
27206797,10003,-1.020386,-0.052979,0.387207,467
27216789,9992,-1.054443,-0.055298,0.411987,476
27226811,10022,-1.088867,-0.044800,0.438354,486
27236806,9995,-1.119751,-0.026367,0.466797,489
27246797,9991,-1.144653,-0.014160,0.490723,494
27256793,9996,-1.159058,-0.010620,0.517700,502
27266799,10006,-1.158569,-0.025024,0.517944,508
27276800,10001,-1.160767,-0.063232,0.511841,510
27286787,9987,-1.172729,-0.101929,0.501099,512
27296835,10048,-1.198364,-0.142578,0.484131,525
27306796,9961,-1.223022,-0.181885,0.467163,522
27316795,9999,-1.285400,-0.221191,0.445068,541
27326807,10012,-1.312866,-0.232300,0.432251,541
27336805,9998,-1.312378,-0.239258,0.421509,554
27346806,10001,-1.263062,-0.264893,0.398438,563
27356805,9999,-1.208618,-0.287109,0.398804,562
27366798,9993,-1.157227,-0.244751,0.428345,574
27376803,10005,-1.147217,-0.179077,0.456299,575
27386815,10012,-1.137573,-0.118896,0.479248,576
27396791,9976,-1.136963,-0.072021,0.501709,570
27406793,10002,-1.126465,-0.038940,0.520752,564
27416800,10007,-1.109863,-0.007080,0.537598,556
27426801,10001,-1.057739,0.044067,0.539185,545
27436794,9993,-1.038208,0.080688,0.533081,530
27446813,10019,-1.012451,0.118652,0.520752,513
27456804,9991,-0.978271,0.154175,0.506470,500
27466797,9993,-0.949463,0.182861,0.500488,482
27476804,10007,-0.876099,0.207031,0.498657,474
27486824,10020,-0.830322,0.191528,0.493042,459
27496803,9979,-0.801880,0.154053,0.495483,442
27506798,9995,-0.778564,0.100098,0.497803,441
27516816,10018,-0.765991,0.052734,0.496826,433
27526814,9998,-0.755859,-0.021729,0.480347,433
27536808,9994,-0.768433,-0.046753,0.468262,431
27546815,10007,-0.777954,-0.066040,0.456909,435
27556794,9979,-0.781982,-0.080200,0.444824,446
27566805,10011,-0.785889,-0.088013,0.434692,461
27576791,9986,-0.790039,-0.088501,0.429199,471
27586811,10020,-0.808838,-0.065063,0.428711,482
27596804,9993,-0.824951,-0.056519,0.434814,492
27606810,10006,-0.845093,-0.046387,0.439453,506
27616800,9990,-0.857666,-0.033081,0.438965,519
27626811,10011,-0.860596,-0.024170,0.432739,534
27636808,9997,-0.863037,-0.013550,0.421265,539
27646798,9990,-0.863892,-0.007935,0.415894,555
27656793,9995,-0.875610,0.000977,0.419067,554
27666842,10049,-0.900269,0.021240,0.426636,568
27676810,9968,-0.926758,0.045288,0.433716,566
27686812,10002,-0.948120,0.064331,0.440552,577
27696788,9976,-0.984619,0.075439,0.448975,577
27706790,10002,-0.999146,0.073486,0.449829,577
27716796,10006,-1.010254,0.061646,0.449219,578
27726792,9996,-1.019531,0.042725,0.448486,571
27736809,10017,-1.032471,0.025513,0.442993,572
27746802,9993,-1.051270,-0.001953,0.416992,575
27756807,10005,-1.058838,-0.013794,0.401733,572
27766799,9992,-1.068604,-0.019287,0.391113,571
27776806,10007,-1.082153,-0.020996,0.383423,568
27786816,10010,-1.085815,-0.005737,0.376221,570
27796804,9988,-1.133911,0.025513,0.368896,568
27806807,10003,-1.204102,-0.077637,0.369141,567
27816806,9999,-1.262085,-0.136963,0.372437,565
27826801,9995,-1.332397,-0.142578,0.376587,564
27836807,10006,-1.386475,-0.109985,0.384521,576
27846790,9983,-1.418335,-0.072510,0.382080,586
27856787,9997,-1.418945,-0.068115,0.385864,588
27866828,10041,-1.402344,-0.128052,0.386597,592
27876808,9980,-1.399048,-0.140503,0.387085,580
27886793,9985,-1.330200,-0.110352,0.379395,585
27896810,10017,-1.236084,-0.075806,0.363159,580
27906806,9996,-1.146729,-0.052368,0.314087,567
27916809,10003,-0.989258,-0.103394,0.309692,550
27926796,9987,-0.939453,-0.121216,0.291870,531
27936799,10003,-0.894043,-0.110474,0.268311,524
27946814,10015,-0.876465,-0.095825,0.250122,504
27956794,9980,-0.870239,-0.086060,0.238892,494
27966787,9993,-0.886108,-0.090088,0.224121,481
27976798,10011,-0.903320,-0.080566,0.222046,463
27986787,9989,-0.912720,-0.064819,0.219727,459
27996790,10003,-0.917358,-0.056519,0.220093,459
28006798,10008,-0.918945,-0.055542,0.218262,457
28016816,10018,-0.913818,-0.054321,0.221802,461
28026795,9979,-0.905396,-0.053101,0.225464,462
28036789,9994,-0.895386,-0.056152,0.232056,465
28046788,9999,-0.885986,-0.063599,0.242798,469
28056801,10013,-0.880005,-0.068359,0.251953,475
28066812,10011,-0.872803,-0.067139,0.257202,480
28076825,10013,-0.846924,-0.070801,0.258423,474
28086793,9968,-0.827026,-0.076904,0.259644,476
28096793,10000,-0.806396,-0.078979,0.255981,481
28106811,10018,-0.788696,-0.079224,0.252197,472
28116815,10004,-0.770874,-0.079590,0.247192,475
28126816,10001,-0.754883,-0.070435,0.236572,467
28136793,9977,-0.724121,-0.057617,0.238281,465
28146800,10007,-0.714966,-0.043457,0.242065,458
28156804,10004,-0.712891,-0.031006,0.249146,446
28166805,10001,-0.728882,-0.021729,0.262207,449
28176816,10011,-0.750977,-0.012451,0.277344,446
28186812,9996,-0.834229,0.004150,0.321533,446
28196805,9993,-0.879517,0.003296,0.346802,439
28206794,9989,-0.925293,0.006836,0.366333,451
28216787,9993,-0.975342,-0.000610,0.380615,453
28226788,10001,-1.017212,-0.003540,0.401123,464
28236792,10004,-1.092163,-0.012939,0.442749,475
28246813,10021,-1.124878,-0.018188,0.465820,480
28256803,9990,-1.144775,-0.014282,0.485352,491
28266810,10007,-1.162598,-0.017578,0.504150,509
28276821,10011,-1.175781,-0.009033,0.522827,520
28286798,9977,-1.187744,-0.009766,0.539062,529
28296815,10017,-1.185913,-0.009644,0.546753,537
28306792,9977,-1.170288,-0.026611,0.534790,536
28316787,9995,-1.168335,-0.069092,0.515259,544
28326788,10001,-1.183350,-0.120728,0.494263,549
28336804,10016,-1.196167,-0.164185,0.471802,546
28351143,14339,-1.229004,-0.206421,0.440674,550
28357408,6265,-1.249634,-0.220581,0.431763,548
28366791,9383,-1.257202,-0.230591,0.418945,558
28376811,10020,-1.225830,-0.286377,0.399414,563
28386811,10000,-1.192017,-0.313599,0.409790,561
28396788,9977,-1.170898,-0.305664,0.426025,567
28406800,10012,-1.104126,-0.186035,0.494873,558
28416801,10001,-1.054321,-0.131348,0.524780,564
28426800,9999,-0.998413,-0.085205,0.548584,551
28436812,10012,-0.950684,-0.060425,0.552124,544
28446790,9978,-0.913086,-0.054443,0.542480,531
28456809,10019,-0.893433,-0.029541,0.507812,510
28466799,9990,-0.895874,0.003540,0.498291,501
28476797,9998,-0.909424,0.049316,0.490601,481
28486804,10007,-0.916016,0.082520,0.482910,471
28496815,10011,-0.915161,0.108521,0.474487,463
28506795,9980,-0.924683,0.124634,0.472046,453
28516805,10010,-0.929077,0.149048,0.484619,444
28526791,9986,-0.911987,0.147461,0.484253,450
28536801,10010,-0.897217,0.124878,0.491333,452
28546806,10005,-0.887329,0.086670,0.501343,458
28556808,10002,-0.877441,0.034668,0.505981,463
28566802,9994,-0.877930,-0.026489,0.512939,467
28576788,9986,-0.892212,-0.052246,0.502319,482
28586791,10003,-0.909912,-0.073730,0.494019,490
28596810,10019,-0.906006,-0.092773,0.464722,496
28606804,9994,-0.889893,-0.105103,0.437256,494
28616808,10004,-0.882080,-0.042114,0.388306,498
28626787,9979,-0.888184,0.013794,0.361816,490
28636787,10000,-0.898560,0.080566,0.337402,473
28646814,10027,-0.888550,0.150757,0.315674,470
28656843,10029,-0.864136,0.201904,0.296875,452
28666814,9971,-0.832031,0.229736,0.286499,455
28676811,9997,-0.773315,0.215942,0.265991,456
28686811,10000,-0.800415,0.208496,0.259277,447
28696792,9981,-0.848145,0.218384,0.256470,456
28706798,10006,-0.895264,0.244751,0.259277,465
28716816,10018,-0.942627,0.271240,0.256958,470
28726794,9978,-0.977173,0.300171,0.226196,475
28736788,9994,-0.999878,0.280151,0.203979,496
28746796,10008,-1.012085,0.248047,0.189209,509
28756792,9996,-1.034424,0.224976,0.174438,518
28766801,10009,-1.054443,0.215210,0.141602,534
28776801,10000,-1.062256,0.213867,0.121460,537
28786787,9986,-1.062134,0.252686,0.106689,551
28796803,10016,-1.051636,0.271362,0.108398,554
28806808,10005,-1.035034,0.272827,0.116699,558
28816804,9996,-1.010254,0.261841,0.124268,559
28826807,10003,-0.983643,0.235962,0.139404,560
28836795,9988,-0.974854,0.192017,0.188965,563
28846793,9998,-0.999146,0.162476,0.205688,570
28856798,10005,-1.053589,0.153564,0.202881,571
28866791,9993,-1.114502,0.170532,0.193115,572
28876792,10001,-1.149414,0.175415,0.171143,570
28886806,10014,-1.151245,0.160889,0.151855,575
28896809,10003,-1.111694,0.131836,0.137207,580
28906815,10006,-1.093628,0.106689,0.144165,583
28916790,9975,-1.077026,0.087769,0.154419,575
28926808,10018,-1.062012,0.077271,0.166016,573
28936811,10003,-1.050049,0.070923,0.176514,569
28946796,9985,-1.005371,0.089111,0.163696,565
28956795,9999,-0.952637,0.096924,0.143799,559
28966796,10001,-0.899414,0.098755,0.133301,552
28976793,9997,-0.864380,0.096802,0.142944,547
28986815,10022,-0.853516,0.096802,0.170898,539
28996794,9979,-0.860718,0.103271,0.230835,527
29006815,10021,-0.905396,0.109619,0.239502,524
29016800,9985,-0.926880,0.098022,0.252563,513
29026815,10015,-0.945312,0.076172,0.260132,499
29036814,9999,-0.963501,0.042725,0.266968,494
29046803,9989,-0.982056,0.006958,0.275024,494
29056837,10034,-0.969360,-0.044067,0.296387,498
29066813,9976,-0.961792,-0.072510,0.311401,500
29076801,9988,-0.965576,-0.095703,0.323853,503
29086823,10022,-0.968506,-0.108276,0.332275,508
29096788,9965,-0.966187,-0.116333,0.339355,514
29106800,10012,-0.971924,-0.116699,0.340576,526
29116789,9989,-0.976685,-0.113647,0.336914,529
29126796,10007,-0.965454,-0.112549,0.333618,534
29136789,9993,-0.948730,-0.107788,0.326904,532
29146816,10027,-0.928223,-0.101807,0.317261,533
29156797,9981,-0.905029,-0.094360,0.308228,527
29166789,9992,-0.860107,-0.073853,0.305664,517
29176810,10021,-0.858887,-0.047241,0.306763,516
29186791,9981,-0.871704,-0.011719,0.295776,509
29196787,9996,-0.870483,0.019409,0.279419,494
29206809,10022,-0.863892,0.045532,0.257202,483
29216796,9987,-0.866699,0.092896,0.209351,475
29226813,10017,-0.911621,0.078003,0.199341,480
29236813,10000,-0.937744,0.080566,0.183594,477
29246816,10003,-0.960571,0.083252,0.173096,482
29256813,9997,-0.985596,0.085083,0.173340,486
29266787,9974,-1.005005,0.089355,0.177246,490
29276841,10054,-1.024780,0.116821,0.195923,498
29286816,9975,-1.027832,0.143921,0.190674,509
29296803,9987,-1.021606,0.169800,0.182617,516
29306814,10011,-1.011719,0.188232,0.176270,518
29316793,9979,-0.993530,0.203857,0.174683,520
29326807,10014,-0.980469,0.224731,0.180298,519
29336791,9984,-0.973999,0.234741,0.187378,516
29346800,10009,-0.988159,0.235596,0.200317,513
29356790,9990,-1.021851,0.229126,0.213257,503
29366812,10022,-1.071411,0.209229,0.221924,504
29376815,10003,-1.121460,0.185669,0.223877,502
29386796,9981,-1.228760,0.130249,0.240234,504
29396803,10007,-1.264526,0.104980,0.250610,509
29406787,9984,-1.265503,0.089355,0.267700,513
29416798,10011,-1.235352,0.081055,0.292480,527
29426805,10007,-1.189941,0.067993,0.311279,539
29436802,9997,-1.100708,0.071167,0.323242,544
29446798,9996,-1.052979,0.077881,0.334961,550
29456808,10010,-1.007080,0.084717,0.349976,558
29466808,10000,-0.970215,0.091797,0.363037,559
29476805,9997,-0.944946,0.095093,0.366943,564
29486822,10017,-0.947388,0.095337,0.362183,560
29496799,9977,-0.969727,0.122192,0.370605,549
29506829,10030,-0.972656,0.142212,0.386841,543
29516816,9987,-0.966064,0.151367,0.407593,535
29526807,9991,-0.964111,0.152222,0.431274,525
29536803,9996,-0.963501,0.134644,0.448853,518
29546795,9992,-0.948975,0.081909,0.470459,507
29556809,10014,-0.932495,0.052002,0.471924,512
29566813,10004,-0.918701,0.013550,0.468872,509
29576807,9994,-0.913086,-0.024658,0.465576,510
29586790,9983,-0.903442,-0.061401,0.460205,505
29596788,9998,-0.893433,-0.098145,0.455811,512
29606791,10003,-0.878296,-0.126831,0.462524,510
29616813,10022,-0.886841,-0.110718,0.474609,519
29626811,9998,-0.894653,-0.068237,0.487305,518
29636814,10003,-0.882935,-0.005371,0.495483,518
29646799,9985,-0.858887,0.045410,0.500244,516
29656796,9997,-0.808960,0.082642,0.500122,512
29666804,10008,-0.782471,0.074341,0.493042,510
29676822,10018,-0.763184,0.061523,0.484497,503
29686811,9989,-0.757446,0.051147,0.477905,494
29696789,9978,-0.768799,0.043579,0.473022,495
29706797,10008,-0.791748,0.038574,0.471191,496
29716812,10015,-0.842529,0.022583,0.470947,496
29726791,9979,-0.866333,0.005737,0.473633,498
29736809,10018,-0.890625,-0.011475,0.478882,502
29746797,9988,-0.912964,-0.026733,0.481567,499
29756812,10015,-0.926758,-0.036011,0.487061,504
29766815,10003,-0.954834,-0.046631,0.500244,516
29776792,9977,-0.971924,-0.047607,0.505249,512
29786800,10008,-0.984497,-0.051880,0.509644,524
29796798,9998,-0.996094,-0.064453,0.508545,519
29806792,9994,-1.016113,-0.081177,0.501099,524
29816791,9999,-1.051636,-0.121826,0.498901,523
29826789,9998,-1.141724,-0.108276,0.490601,530
29836798,10009,-1.173340,-0.104248,0.490845,538
29846798,10000,-1.194092,-0.112915,0.500610,541
29856800,10002,-1.216797,-0.120605,0.515503,542
29866814,10014,-1.245483,-0.132080,0.519531,552
29876841,10027,-1.282593,-0.152954,0.480469,551
29886805,9964,-1.313232,-0.155884,0.458008,553
29896794,9989,-1.355713,-0.163574,0.424927,555
29906804,10010,-1.390137,-0.160156,0.401123,566
29916794,9990,-1.417480,-0.162964,0.384033,567
29926802,10008,-1.463989,-0.206665,0.379272,574
29936799,9997,-1.443115,-0.223999,0.371216,576
29946799,10000,-1.435791,-0.239746,0.367188,570
29956813,10014,-1.412476,-0.223389,0.357300,565
29966812,9999,-1.374512,-0.211670,0.354980,571
29976796,9984,-1.325317,-0.196411,0.346191,563
29986802,10006,-1.197754,-0.172974,0.330200,552
29996796,9994,-1.123901,-0.161377,0.319824,547
30006811,10015,-1.055786,-0.142456,0.311646,540
30016808,9997,-1.000366,-0.122192,0.298706,529
30026791,9983,-0.955322,-0.101807,0.285889,514
30036810,10019,-0.895630,-0.060669,0.259766,507
30046788,9978,-0.870605,-0.041382,0.243408,495
30056795,10007,-0.844482,-0.033081,0.228638,478
30066787,9992,-0.824829,-0.028931,0.219116,477
30076813,10026,-0.808350,-0.031982,0.211670,473
30086824,10011,-0.791870,-0.032837,0.208130,467
30096796,9972,-0.768677,-0.052979,0.205566,467
30106800,10004,-0.764282,-0.063599,0.206543,467
30116791,9991,-0.765137,-0.070923,0.204224,461
30126805,10014,-0.764771,-0.078003,0.204102,470
30136812,10007,-0.767334,-0.085693,0.206055,475
30146789,9977,-0.774780,-0.087769,0.202515,478
30156796,10007,-0.773071,-0.085815,0.193359,481
30166811,10015,-0.766479,-0.089355,0.185059,481
30176788,9977,-0.757080,-0.095825,0.182739,482
30186816,10028,-0.751831,-0.102173,0.187622,478
30196811,9995,-0.744141,-0.098999,0.198120,472
30206797,9986,-0.728760,-0.065674,0.219238,469
30216812,10015,-0.733398,-0.050415,0.231201,467
30226806,9994,-0.744507,-0.037354,0.238403,462
30236808,10002,-0.759399,-0.024658,0.244995,448
30246797,9989,-0.782471,-0.015991,0.255615,448
30256792,9995,-0.850464,-0.007690,0.286987,439
30266790,9998,-0.892334,-0.009521,0.304443,435
30276787,9997,-0.938965,-0.015747,0.322876,443
30286800,10013,-0.986206,-0.025513,0.340942,442
30296793,9993,-1.029785,-0.040283,0.358643,439
30306830,10037,-1.071899,-0.062012,0.371338,453
30316800,9970,-1.140137,-0.099121,0.402466,453
30326797,9997,-1.172363,-0.106934,0.418945,473
30336833,10036,-1.197510,-0.109863,0.440186,484
30346810,9977,-1.217407,-0.112549,0.456909,494
30356796,9986,-1.227783,-0.115112,0.470581,506
30366809,10013,-1.233032,-0.121338,0.486450,513
30376812,10003,-1.247192,-0.130371,0.494507,522
30386797,9985,-1.256470,-0.142944,0.489746,524
30396794,9997,-1.270752,-0.159424,0.482666,523
30406815,10021,-1.302246,-0.185181,0.473755,532
30416796,9981,-1.339233,-0.209961,0.466919,536
30426812,10016,-1.432251,-0.217896,0.476318,539
30436805,9993,-1.474487,-0.207520,0.486572,537
30446808,10003,-1.497681,-0.189819,0.505859,548
30456799,9991,-1.492920,-0.188477,0.530273,555
30466793,9994,-1.449585,-0.166626,0.545288,558
30476792,9999,-1.308716,-0.172974,0.572266,557
30486813,10021,-1.253784,-0.158447,0.590210,552
30496792,9979,-1.196899,-0.136841,0.602295,550
30506798,10006,-1.110352,-0.101807,0.599854,537
30516793,9995,-1.031006,-0.081665,0.583618,529
30526802,10009,-0.968872,-0.073608,0.532349,514
30536789,9987,-0.916870,-0.040161,0.498291,505
30546834,10045,-0.915405,-0.006226,0.481445,490
30556805,9971,-0.927490,0.024658,0.479126,478
30566810,10005,-0.949829,0.059326,0.499268,466
30576790,9980,-0.938354,0.095825,0.523071,460
30586794,10004,-0.920288,0.099121,0.550415,454
30596801,10007,-0.895142,0.068970,0.550659,453
30606811,10010,-0.859497,0.020874,0.542480,446
30616800,9989,-0.822754,-0.020386,0.531372,454
30626803,10003,-0.800293,-0.061035,0.518433,458
30636797,9994,-0.795410,-0.122314,0.495972,464
30646789,9992,-0.795532,-0.110352,0.483276,477
30656797,10008,-0.794189,-0.111206,0.467163,490
30666807,10010,-0.814453,-0.115112,0.466797,499
30676813,10006,-0.811157,-0.108521,0.455933,514
30686798,9985,-0.809692,-0.108154,0.454590,527
30696798,10000,-0.805054,-0.085693,0.462280,530
30706803,10005,-0.796509,-0.066772,0.467529,546
30716796,9993,-0.796265,-0.036743,0.472534,551
30726792,9996,-0.794189,-0.013306,0.469971,552
30736790,9998,-0.801147,-0.001587,0.461548,556
30746800,10010,-0.805176,0.023560,0.443481,553
30756816,10016,-0.811157,0.032349,0.433838,547
30766818,10002,-0.821045,0.040527,0.430054,548
30776812,9994,-0.837036,0.046265,0.434326,535
30786802,9990,-0.864502,0.051514,0.444092,539
30796813,10011,-0.889160,0.048584,0.450317,545
30806805,9992,-0.967651,0.030396,0.467651,534
30816816,10011,-0.999390,0.024414,0.473389,540
30826809,9993,-1.044800,0.011353,0.488037,535
30836816,10007,-1.075195,0.012451,0.492310,545
30846807,9991,-1.092773,0.017212,0.497192,547
30856799,9992,-1.140503,0.005249,0.501343,553
30866795,9996,-1.149902,-0.003540,0.500488,559
30876789,9994,-1.170776,-0.019409,0.501221,555
30886787,9998,-1.194214,-0.041382,0.501099,561
30896807,10020,-1.218994,-0.061035,0.504639,563
30906791,9984,-1.247070,-0.080566,0.508667,565
30916811,10020,-1.349854,-0.142334,0.526611,565
30928859,12048,-1.416382,-0.146729,0.515015,562
30936793,7934,-1.490601,-0.140869,0.511475,566
30946787,9994,-1.534912,-0.146729,0.500366,565
30956811,10024,-1.561890,-0.142578,0.482544,559
30966806,9995,-1.584473,-0.176880,0.451050,568
30976811,10005,-1.566650,-0.162842,0.429687,570
30986840,10029,-1.499878,-0.140991,0.412598,573
30996813,9973,-1.415039,-0.124878,0.398682,574
31006814,10001,-1.335205,-0.130615,0.391113,569
31016788,9974,-1.265503,-0.141968,0.380859,564
31026811,10023,-1.161621,-0.143066,0.354126,550
31036787,9976,-1.129883,-0.127686,0.342285,541
31046802,10015,-1.114502,-0.112427,0.329468,535
31056810,10008,-1.107544,-0.098022,0.321777,522
31066787,9977,-1.099976,-0.086548,0.312622,511
31076787,10000,-1.049072,-0.063599,0.289917,499
31086803,10016,-1.017700,-0.048462,0.281494,492
31096805,10002,-0.981689,-0.039673,0.269043,480
31106801,9996,-0.943481,-0.042358,0.257324,482
31116815,10014,-0.904907,-0.057129,0.247559,478
31126788,9973,-0.868774,-0.076294,0.237793,479
31136794,10006,-0.821533,-0.108887,0.237549,478
31146797,10003,-0.812622,-0.109131,0.236084,480
31156805,10008,-0.804810,-0.111450,0.229370,474
31166802,9997,-0.794800,-0.104980,0.223755,483
31176807,10005,-0.782104,-0.092163,0.212524,487
31186814,10007,-0.746826,-0.092896,0.191772,488
31196809,9995,-0.719971,-0.091553,0.183350,486
31206801,9992,-0.691162,-0.080566,0.176147,476
31216829,10028,-0.660889,-0.078491,0.171997,471
31226814,9985,-0.634155,-0.067261,0.168701,467
31236809,9995,-0.610962,-0.049805,0.165161,461
31246810,10001,-0.591919,-0.025269,0.177002,466
31256817,10007,-0.597900,-0.005249,0.190186,454
31266797,9980,-0.611816,0.016357,0.203003,448
31276809,10012,-0.634888,0.033447,0.218628,441
31286807,9998,-0.661011,0.046509,0.232056,435
31296802,9995,-0.726929,0.051636,0.260742,435
31309140,12338,-0.763428,0.045532,0.274414,426
31316814,7674,-0.796021,0.031006,0.284546,433
31326807,9993,-0.830078,0.014282,0.297119,431
31336788,9981,-0.866577,-0.003784,0.312866,434
31346807,10019,-0.908447,-0.021851,0.332153,433
31356806,9999,-1.002686,-0.032349,0.382080,436
31366798,9992,-1.044800,-0.036621,0.404785,442
31376803,10005,-1.081055,-0.042725,0.421753,439
31386788,9985,-1.109497,-0.043945,0.448242,451
31396814,10026,-1.150269,-0.039429,0.471436,454
31406792,9978,-1.250610,-0.063477,0.496826,464
31416805,10013,-1.311157,-0.097900,0.497681,474
31426805,10000,-1.377808,-0.139404,0.493652,489
31436797,9992,-1.441895,-0.187622,0.485962,506
31446810,10013,-1.505737,-0.222900,0.476807,524
31456802,9992,-1.575806,-0.257690,0.461792,543
31466810,10008,-1.687744,-0.337891,0.453857,557
31476800,9990,-1.696533,-0.337280,0.473145,586
31486797,9997,-1.661865,-0.343872,0.506104,599
31496806,10009,-1.612915,-0.317871,0.548462,609
31506796,9990,-1.538940,-0.306030,0.573853,623
31516812,10016,-1.339478,-0.295654,0.615234,625
31526796,9984,-1.246948,-0.242065,0.640869,618
31536809,10013,-1.144531,-0.191650,0.646484,602
31546806,9997,-1.043701,-0.136230,0.635376,582
31556794,9988,-0.979370,-0.093628,0.614502,556
31566788,9994,-0.946655,-0.037109,0.562988,528
31576799,10011,-0.956421,0.092285,0.556763,510
31586809,10010,-0.992432,0.152466,0.554687,485
31596803,9994,-1.010498,0.200684,0.553589,465
31606798,9995,-1.033325,0.225952,0.557739,448
31616801,10003,-1.040771,0.238037,0.563477,435
31626804,10003,-1.018799,0.143921,0.567383,425
31636798,9994,-0.991699,0.077026,0.573120,418
31646796,9998,-0.961670,-0.006226,0.575317,419
31656811,10015,-0.937500,-0.054199,0.572876,414
31666801,9990,-0.917603,-0.112183,0.563965,429
31676835,10034,-0.904907,-0.176880,0.541504,441
31686829,9994,-0.897583,-0.180786,0.531372,453
31696788,9959,-0.881104,-0.181763,0.518799,474
31706809,10021,-0.860107,-0.176270,0.513428,491
31716828,10019,-0.834717,-0.162354,0.508179,504
31726814,9986,-0.806152,-0.146362,0.505737,520
31736797,9983,-0.742554,-0.101318,0.507812,530
31746816,10019,-0.719360,-0.065796,0.507568,532
31756790,9974,-0.697021,-0.031372,0.501221,539
31766787,9997,-0.690674,0.008301,0.497192,529
31776797,10010,-0.695068,0.028076,0.490723,531
31786810,10013,-0.705200,0.043213,0.474609,525
31796795,9985,-0.744629,0.051025,0.475220,516
31806802,10007,-0.767456,0.052490,0.472656,515
31816796,9994,-0.798828,0.042969,0.477417,512
31826813,10017,-0.838867,0.033081,0.482422,511
31836805,9992,-0.873169,0.021362,0.488770,513
31846791,9986,-0.939331,-0.000977,0.507080,518
31856787,9996,-0.978271,-0.007446,0.520752,526
31866798,10011,-1.010986,-0.000610,0.528198,534
31876792,9994,-1.041016,0.001831,0.533081,534
31886814,10022,-1.073364,0.004761,0.539307,549
31896805,9991,-1.143677,0.018311,0.531494,559
31906794,9989,-1.158691,0.019653,0.511353,563
31916797,10003,-1.175049,0.000244,0.497559,568
31926808,10011,-1.177246,-0.007813,0.484497,572
31936811,10003,-1.186279,-0.002563,0.476929,566
31946832,10021,-1.204468,0.007324,0.471558,568
31956817,9985,-1.261108,0.012329,0.455811,575
31966813,9996,-1.310913,0.014160,0.453857,571
31976815,10002,-1.362183,0.019287,0.447388,573
31986801,9986,-1.411865,0.015381,0.442993,578
31996801,10000,-1.455933,0.011475,0.436157,578
32006812,10011,-1.527832,-0.024048,0.416504,581
32016815,10003,-1.542725,-0.026733,0.412109,586
32026815,10000,-1.525146,-0.026123,0.407349,589
32036815,10000,-1.478027,-0.038940,0.405273,588
32046814,9999,-1.410156,-0.045654,0.392456,593
32056813,9999,-1.334717,-0.047485,0.387573,589
32066793,9980,-1.215698,-0.058960,0.360718,580
32076805,10012,-1.173462,-0.058228,0.351563,572
32086806,10001,-1.146606,-0.055176,0.339233,561
32096790,9984,-1.135498,-0.061646,0.324341,540
32106809,10019,-1.125244,-0.055176,0.310425,530
32116810,10001,-1.086304,-0.046265,0.283081,521
32126800,9990,-1.061768,-0.029053,0.275024,505
32138120,11320,-1.035400,-0.014526,0.271118,498
32146808,8688,-1.002686,-0.011230,0.269409,492
32160198,13390,-0.937256,-0.042114,0.268555,484
32170720,10522,-0.902710,-0.065674,0.265137,477
32176826,6106,-0.876343,-0.091064,0.257324,476
32186816,9990,-0.855835,-0.114624,0.245117,470
32196790,9974,-0.841187,-0.128052,0.228271,472
32206803,10013,-0.824341,-0.135742,0.209473,470
32216796,9993,-0.802734,-0.127808,0.189941,467
32227200,10404,-0.754761,-0.119385,0.176270,469
32236801,9601,-0.726196,-0.110352,0.176270,486
32251887,15086,-0.665161,-0.089478,0.183350,470
32259435,7548,0.000000,0.000000,0.000000,465
32266797,7362,-0.636108,-0.080688,0.188843,460
32276816,10019,-0.613892,-0.064331,0.192505,464
32286788,9972,-0.598022,-0.031738,0.203369,457
32296816,10028,-0.605591,-0.015137,0.212280,459
32306796,9980,-0.617065,-0.004517,0.220337,448
32316804,10008,-0.637085,0.004150,0.229004,448
32326795,9991,-0.662598,0.012817,0.238770,450
32336804,10009,-0.726318,0.016479,0.257568,442
32346790,9986,-0.761719,0.011108,0.270142,445
32356835,10045,-0.799438,0.004272,0.287354,443
32366810,9975,-0.840332,-0.002197,0.304321,438
32376789,9979,-0.881592,-0.013550,0.323242,439
32386789,10000,-0.920532,-0.029419,0.341431,442
32396798,10009,-0.986328,-0.049683,0.371460,441
32406790,9992,-1.018921,-0.060303,0.381226,448
32416793,10003,-1.043457,-0.067505,0.395386,452
32426797,10004,-1.069946,-0.059937,0.410645,455
32436811,10014,-1.098999,-0.053955,0.431396,465
32446803,9992,-1.137085,-0.044312,0.464600,470
32456814,10011,-1.149536,-0.035522,0.478394,479
32466814,10000,-1.169800,-0.040894,0.485840,488
32476798,9984,-1.207764,-0.057129,0.488159,494
32486800,10002,-1.252441,-0.084717,0.485107,500
32496817,10017,-1.294189,-0.112305,0.461304,506
32506787,9970,-1.365601,-0.187012,0.452759,517
32516800,10013,-1.392456,-0.224243,0.445557,521
32526815,10015,-1.394165,-0.236206,0.451172,538
32536788,9973,-1.373047,-0.225464,0.462769,547
32546802,10014,-1.345337,-0.200073,0.484741,556
32556809,10007,-1.266724,-0.164185,0.503174,564
32566789,9980,-1.219727,-0.169556,0.509521,567
32576840,10051,-1.182373,-0.155518,0.525879,566
32586801,9961,-1.146729,-0.140503,0.538940,564
32596798,9997,-1.111816,-0.099976,0.544189,553
32606803,10005,-1.091431,-0.027710,0.554565,542
32616821,10018,-1.092041,0.034668,0.557007,533
32626792,9971,-1.104736,0.091675,0.558716,520
32636788,9996,-1.102783,0.145264,0.558228,505
32646801,10013,-1.093628,0.189575,0.557983,486
32656797,9996,-1.089722,0.229248,0.557007,480
32666787,9990,-1.063110,0.241699,0.546631,469
32676797,10010,-1.039917,0.219971,0.544922,453
32686808,10011,-1.007446,0.170654,0.551758,445
32696811,10003,-0.985718,0.103516,0.563232,448
32706790,9979,-0.957397,0.045532,0.565063,447
32716807,10017,-0.938599,-0.053101,0.554077,442
32726798,9991,-0.909424,-0.075562,0.551758,455
32736793,9995,-0.880371,-0.104858,0.530518,462
32746813,10020,-0.851685,-0.115845,0.516724,469
32756806,9993,-0.829468,-0.127319,0.503540,478
32766809,10003,-0.812744,-0.127197,0.496338,480
32776811,10002,-0.769287,-0.112549,0.475220,489
32786791,9980,-0.761108,-0.088501,0.476562,488
32796816,10025,-0.750488,-0.072998,0.475586,499
32806805,9989,-0.752319,-0.049927,0.477783,495
32816796,9991,-0.756348,-0.031494,0.482056,503
32826796,10000,-0.769897,-0.020264,0.494263,505
32836832,10036,-0.807129,0.014648,0.499634,508
32846818,9986,-0.829712,0.031006,0.500732,509
32856792,9974,-0.850830,0.043701,0.502197,510
32866788,9996,-0.869873,0.050659,0.505005,520
32876818,10030,-0.890991,0.053955,0.504517,526
32886814,9996,-0.924316,0.037354,0.497803,525
32896795,9981,-0.934814,0.022583,0.492676,539
32906794,9999,-0.944214,0.005493,0.493896,544
32916798,10004,-0.953247,-0.004150,0.495361,551
32926792,9994,-0.969849,-0.013428,0.496704,559
32936804,10012,-0.980957,-0.016724,0.495483,561
32946795,9991,-0.998413,-0.007202,0.492676,563
32956797,10002,-1.014160,-0.004395,0.484985,563
32966808,10011,-1.033081,-0.005493,0.480591,563
32976817,10009,-1.065063,-0.011963,0.477295,560
32986801,9984,-1.095337,-0.021729,0.475464,560
32996796,9995,-1.173584,-0.040405,0.492920,547
33006798,10002,-1.226196,-0.056030,0.502441,551
33016813,10015,-1.280151,-0.060303,0.510010,547
33026795,9982,-1.333496,-0.065552,0.512085,551
33036788,9993,-1.386108,-0.052002,0.506470,550
33046806,10018,-1.397095,-0.081665,0.476196,552
33056806,10000,-1.417480,-0.092773,0.458374,545
33066803,9997,-1.418213,-0.104492,0.452271,553
33076817,10014,-1.423340,-0.081665,0.440552,553
33086793,9976,-1.384277,-0.076172,0.435059,552
33096798,10005,-1.333862,-0.083618,0.423462,548
33106807,10009,-1.263550,-0.113892,0.402588,553
33116792,9985,-1.233887,-0.113403,0.386475,552
33126798,10006,-1.217773,-0.106689,0.366089,543
33136790,9992,-1.212524,-0.100342,0.354736,536
33146801,10011,-1.212891,-0.103760,0.341919,537
33156810,10009,-1.192383,-0.107910,0.324341,533
33166799,9989,-1.175415,-0.097778,0.317261,527
33176813,10014,-1.146362,-0.087158,0.310547,519
33186802,9989,-1.102417,-0.078613,0.303955,514
33196789,9987,-1.049683,-0.080811,0.300537,508
33206815,10026,-0.993896,-0.083618,0.290405,504
33216788,9973,-0.891479,-0.094360,0.263184,491
33226812,10024,-0.850342,-0.097534,0.245239,494
33236805,9993,-0.816162,-0.100708,0.229614,485
33246796,9991,-0.788574,-0.097168,0.213013,476
33267762,20966,-0.730957,-0.064941,0.174927,474
33274485,6723,0.000000,0.000000,0.000000,467
33278581,4096,-0.723389,-0.055542,0.170044,461
33286815,8234,-0.712769,-0.042603,0.162109,459
33296806,9991,-0.694946,-0.025269,0.149658,462
33306816,10010,-0.670288,-0.012939,0.133911,455
33316825,10009,-0.646484,-0.004395,0.122559,454
33326816,9991,-0.632202,0.011719,0.124878,447
33336815,9999,-0.638184,0.024292,0.136841,443
33361822,25007,-0.697144,0.045166,0.186768,430
33367542,5720,0.000000,0.000000,0.000000,429
33372463,4921,-0.741943,0.050537,0.207275,429
33377928,5465,-0.790039,0.046631,0.229248,421
33386798,8870,-0.830322,0.039307,0.246582,425
33396790,9992,-0.865845,0.020508,0.262939,425
33406794,10004,-0.900146,-0.002075,0.277588,430
33416813,10019,-0.932983,-0.020264,0.294434,434
33426793,9980,-0.971191,-0.022339,0.310181,439
33436787,9994,-1.032593,-0.056885,0.352173,449
33446816,10029,-1.059814,-0.045410,0.373291,455
33456790,9974,-1.077148,-0.043579,0.391479,470
33466791,10001,-1.092041,-0.028809,0.406738,482
33476816,10025,-1.097534,-0.015625,0.421387,492
33486794,9978,-1.129517,-0.000732,0.450195,499
33496790,9996,-1.171265,-0.000366,0.464478,507
33506805,10015,-1.234863,0.002563,0.466187,507
33516807,10002,-1.295654,-0.006958,0.468262,521
33526789,9982,-1.350464,-0.018799,0.476074,522
33536791,10002,-1.404053,-0.041138,0.519653,535
33546809,10018,-1.502686,-0.075562,0.530029,545
33556798,9989,-1.518799,-0.097412,0.550293,548
33566804,10006,-1.500122,-0.120361,0.564819,558
33576795,9991,-1.455200,-0.137207,0.573120,566
33586802,10007,-1.400879,-0.154419,0.572876,572
33596798,9996,-1.273315,-0.194580,0.561279,566
33606797,9999,-1.206177,-0.220215,0.531250,573
33616810,10013,-1.134277,-0.263550,0.505859,564
33626808,9998,-1.113647,-0.248535,0.519653,556
33636807,9999,-1.120361,-0.183228,0.542236,545
33646791,9984,-1.130737,-0.088623,0.563599,532
33656810,10019,-1.125000,0.038574,0.592651,522
33666794,9984,-1.110596,0.067993,0.594604,510
33676802,10008,-1.083252,0.086792,0.584473,499
33686798,9996,-1.044434,0.102539,0.572388,488
33696787,9989,-1.000366,0.095947,0.556396,470
33706791,10004,-0.913330,0.075684,0.545410,465
33716811,10020,-0.889526,0.059570,0.540039,460
33726788,9977,-0.868896,0.039551,0.531738,453
33736804,10016,-0.849854,0.006592,0.520386,450
33746792,9988,-0.835083,-0.026245,0.509155,444
33756800,10008,-0.819580,-0.090210,0.490112,447
33766792,9992,-0.800171,-0.102539,0.478516,441
33776800,10008,-0.791992,-0.105835,0.473267,445
33786812,10012,-0.785278,-0.100830,0.469849,459
33796802,9990,-0.775757,-0.080811,0.467896,458
33806808,10006,-0.761841,-0.068970,0.463257,477
33816789,9981,-0.749146,-0.063354,0.458496,472
33826792,10003,-0.753906,-0.065796,0.459839,484
33836813,10021,-0.761475,-0.058228,0.465576,480
33846793,9980,-0.776367,-0.049805,0.469971,492
33856816,10023,-0.800903,-0.042847,0.474731,491
33866801,9985,-0.822021,-0.036133,0.478149,495
33876812,10011,-0.846558,-0.030884,0.480713,504
33886794,9982,-0.857178,-0.030518,0.484253,501
33896798,10004,-0.872559,-0.030396,0.488525,511
33906801,10003,-0.879639,-0.032227,0.486328,520
33916793,9992,-0.890747,-0.037109,0.481934,525
33926792,9999,-0.924316,-0.033203,0.483643,524
33936791,9999,-0.944092,-0.024536,0.490112,532
33946816,10025,-0.963379,-0.015991,0.499268,533
33956832,10016,-0.984863,-0.011353,0.505249,535
33966793,9961,-1.006470,-0.009766,0.507935,533
33980266,13473,-1.059570,-0.016846,0.499268,537
33986795,6529,-1.084351,-0.024414,0.494751,537
33996800,10005,-1.114258,-0.027222,0.487427,536
34006795,9995,-1.157349,-0.026123,0.484619,539
34016815,10020,-1.211182,-0.006226,0.494995,534
34026810,9995,-1.276978,0.010864,0.505371,548
34036808,9998,-1.347534,-0.001953,0.507202,554
34046793,9985,-1.376587,-0.022095,0.504761,554
34056799,10006,-1.406982,-0.030029,0.497070,564
34066797,9998,-1.432129,-0.029419,0.482910,572
34076808,10011,-1.445923,-0.026733,0.469727,582
34086795,9987,-1.426880,-0.042603,0.443726,586
34096793,9998,-1.395752,-0.063721,0.432617,585
34106792,9999,-1.357422,-0.086914,0.416016,583
34116803,10011,-1.311157,-0.094238,0.399170,580
34126813,10010,-1.266968,-0.085937,0.381470,578
34136808,9995,-1.235474,-0.076660,0.368042,570
34146798,9990,-1.220703,-0.082031,0.347412,565
34156799,10001,-1.237305,-0.085571,0.339844,551
34166795,9996,-1.255127,-0.081177,0.337280,547
34176795,10000,-1.260864,-0.069824,0.332886,539
34186810,10015,-1.256226,-0.057251,0.328613,526
34196788,9978,-1.214478,-0.041748,0.327271,528
34206792,10004,-1.169434,-0.034790,0.321777,524
34216813,10021,-1.114258,-0.034912,0.318359,515
34226817,10004,-1.055664,-0.041626,0.311646,519
34236796,9979,-0.999756,-0.057617,0.301758,509
34246796,10000,-0.954346,-0.078857,0.290527,497
34256795,9999,-0.881104,-0.104980,0.260254,501
34266810,10015,-0.855347,-0.101074,0.243164,497
34276813,10003,-0.828003,-0.096069,0.216675,492
34286798,9985,-0.800171,-0.091675,0.191162,490
34296805,10007,-0.769531,-0.091187,0.166748,484
34306811,10006,-0.708984,-0.087036,0.138672,482
34316789,9978,-0.680786,-0.087769,0.135132,468
34326814,10025,-0.656738,-0.081421,0.134521,466
34336806,9992,-0.635498,-0.064575,0.134155,463
34346794,9988,-0.618408,-0.043701,0.134644,459
34356802,10008,-0.612671,-0.024536,0.145508,456
34366795,9993,-0.612915,-0.002197,0.169678,449
34376791,9996,-0.624146,0.020264,0.185547,441
34386829,10038,-0.647583,0.048462,0.205200,441
34396808,9979,-0.677124,0.072876,0.224243,439
34406812,10004,-0.715698,0.087891,0.245850,435
34416815,10003,-0.778687,0.076294,0.278320,426
34426823,10008,-0.806885,0.066895,0.290894,431
34436809,9986,-0.833862,0.044800,0.303955,427
34446814,10005,-0.855469,0.011963,0.312866,429
