t_us,dt_us,ax,ay,az,ppg
22979473,10023,-0.279419,-0.957397,-0.254883,514
22989450,9977,-0.278198,-0.956787,-0.253540,516
22999463,10013,-0.278687,-0.955200,-0.251709,515
23009465,10002,-0.278931,-0.956787,-0.250610,515
23019465,10000,-0.279663,-0.958374,-0.250977,514
23029465,10000,-0.279419,-0.953857,-0.251221,505
23039466,10001,-0.281128,-0.950317,-0.249634,509
23049470,10004,-0.281616,-0.949341,-0.249268,503
23059497,10027,-0.280396,-0.949951,-0.248779,502
23069456,9959,-0.278687,-0.953369,-0.249390,502
23079475,10019,-0.278442,-0.956543,-0.249512,499
23089478,10003,-0.284058,-0.949829,-0.249390,495
23099454,9976,-0.285522,-0.945435,-0.249512,498
23109461,10007,-0.286743,-0.942749,-0.250488,499
23119459,9998,-0.284668,-0.942139,-0.252930,495
23129472,10013,-0.282715,-0.941040,-0.255127,497
23139455,9983,-0.278809,-0.943726,-0.256104,495
23149453,9998,-0.277832,-0.946167,-0.257324,497
23159468,10015,-0.279785,-0.947144,-0.257568,492
23169453,9985,-0.281372,-0.948853,-0.256958,489
23179474,10021,-0.283569,-0.949341,-0.256592,498
23189486,10012,-0.284180,-0.954834,-0.254761,498
23199451,9965,-0.282104,-0.956787,-0.250732,499
23209474,10023,-0.282471,-0.954834,-0.250244,501
23219467,9993,-0.283203,-0.953857,-0.251587,498
23229474,10007,-0.283936,-0.953613,-0.253296,507
23239472,9998,-0.282227,-0.952393,-0.255005,507
23249466,9994,-0.276001,-0.945801,-0.254883,512
23259476,10010,-0.272339,-0.945679,-0.254517,519
23269474,9998,-0.270752,-0.946411,-0.253662,518
23279471,9997,-0.268433,-0.949341,-0.252930,527
23289467,9996,-0.268555,-0.955933,-0.251709,533
23299457,9990,-0.270020,-0.964600,-0.253784,535
23309500,10043,-0.271851,-0.962036,-0.252686,543
23319467,9967,-0.275024,-0.961792,-0.251099,547
23329468,10001,-0.277344,-0.962402,-0.253174,545
23339471,10003,-0.279419,-0.962524,-0.254639,551
23349458,9987,-0.278564,-0.964600,-0.254395,542
23359468,10010,-0.275391,-0.960571,-0.250366,546
23369471,10003,-0.273193,-0.957031,-0.250122,543
23379453,9982,-0.271729,-0.956177,-0.250244,539
23389468,10015,-0.269287,-0.957031,-0.251587,533
23399476,10008,-0.270874,-0.958008,-0.251953,530
23409461,9985,-0.270630,-0.958862,-0.251587,520
23419465,10004,-0.271973,-0.958374,-0.250000,517
23429474,10009,-0.273926,-0.956177,-0.248291,509
23439460,9986,-0.276245,-0.956665,-0.247192,511
23451381,11921,-0.276001,-0.960449,-0.249878,510
23459458,8077,0.000000,0.000000,0.000000,502
23469452,9994,-0.273560,-0.958130,-0.251465,505
23479471,10019,-0.274536,-0.955444,-0.249878,504
23489471,10000,-0.272583,-0.951172,-0.248657,504
23499471,10000,-0.271729,-0.948608,-0.247925,497
23509450,9979,-0.271606,-0.953979,-0.250000,494
23519467,10017,-0.273682,-0.955811,-0.250854,502
23529452,9985,-0.274658,-0.958374,-0.251221,504
23539466,10014,-0.275146,-0.958496,-0.250122,499
23549471,10005,-0.274414,-0.957153,-0.248047,500
23559484,10013,-0.274536,-0.956787,-0.247437,507
23569476,9992,-0.270874,-0.958374,-0.248169,508
23579456,9980,-0.270264,-0.959717,-0.246338,503
23589478,10022,-0.269897,-0.962280,-0.246582,509
23599454,9976,-0.268921,-0.963867,-0.247070,505
23609476,10022,-0.269287,-0.965454,-0.248657,510
23619468,9992,-0.271118,-0.964111,-0.247437,511
23629460,9992,-0.271118,-0.960693,-0.247070,509
23639451,9991,-0.273560,-0.958618,-0.246826,509
23649457,10006,-0.275024,-0.958374,-0.247803,509
23659457,10000,-0.273438,-0.957275,-0.248779,504
23669477,10020,-0.273804,-0.953003,-0.247192,505
23679485,10008,-0.275391,-0.952515,-0.248901,504
23689476,9991,-0.274414,-0.950439,-0.250244,496
23699474,9998,-0.275879,-0.950317,-0.250732,498
23709471,9997,-0.275391,-0.950195,-0.250244,500
23719462,9991,-0.273804,-0.951294,-0.249390,496
23729467,10005,-0.269165,-0.954590,-0.247803,497
23739460,9993,-0.270020,-0.957153,-0.248779,490
23749467,10007,-0.270996,-0.958862,-0.250732,493
23759476,10009,-0.272217,-0.958496,-0.251221,492
23769462,9986,-0.275513,-0.957031,-0.252075,495
23779451,9989,-0.277344,-0.958984,-0.253052,491
23789484,10033,-0.274780,-0.959839,-0.254272,500
23799477,9993,-0.270264,-0.958008,-0.253662,502
23809465,9988,-0.266846,-0.958496,-0.253662,502
23819450,9985,-0.265015,-0.960571,-0.255981,503
23829461,10011,-0.266235,-0.961426,-0.256104,501
23839463,10002,-0.270752,-0.958008,-0.256714,501
23849465,10002,-0.273071,-0.955811,-0.257446,498
23859450,9985,-0.275757,-0.957153,-0.251709,499
23869476,10026,-0.274780,-0.958130,-0.250488,498
23879462,9986,-0.274658,-0.957764,-0.250122,493
23889459,9997,-0.275757,-0.950562,-0.249512,499
23899456,9997,-0.275024,-0.950562,-0.248901,498
23909457,10001,-0.276611,-0.949341,-0.249023,494
23919450,9993,-0.277954,-0.947510,-0.249390,504
23929450,10000,-0.278320,-0.946655,-0.249023,509
23939458,10008,-0.281494,-0.947632,-0.246704,508
23949460,10002,-0.281128,-0.951538,-0.246460,517
23959477,10017,-0.279907,-0.955444,-0.245728,525
23969472,9995,-0.278442,-0.955322,-0.245483,528
23979476,10004,-0.277466,-0.954590,-0.243652,534
23989459,9983,-0.276855,-0.954712,-0.246826,538
23999472,10013,-0.274658,-0.954712,-0.248169,539
24009454,9982,-0.276733,-0.955811,-0.252441,541
24019467,10013,-0.275757,-0.953247,-0.252686,540
24029465,9998,-0.275391,-0.954590,-0.253662,540
24039455,9990,-0.275146,-0.954956,-0.253418,534
24049478,10023,-0.276123,-0.960083,-0.251587,540
24059471,9993,-0.275757,-0.965332,-0.252441,539
24069472,10001,-0.275391,-0.968384,-0.254028,537
24079459,9987,-0.274414,-0.965332,-0.255371,528
24089477,10018,-0.274170,-0.958984,-0.255249,530
24099454,9977,-0.272095,-0.950684,-0.251587,528
24109478,10024,-0.274536,-0.948730,-0.251099,517
24119452,9974,-0.274780,-0.950317,-0.253052,512
24129476,10024,-0.274902,-0.952148,-0.253906,511
24139462,9986,-0.276245,-0.952637,-0.251465,511
24149461,9999,-0.277832,-0.950073,-0.249756,501
24159462,10001,-0.278564,-0.949097,-0.250977,505
24169464,10002,-0.277588,-0.951782,-0.251709,503
24179475,10011,-0.277466,-0.952026,-0.252930,502
24189503,10028,-0.276245,-0.952881,-0.250977,500
24199469,9966,-0.276611,-0.954590,-0.252319,503
24209471,10002,-0.275024,-0.955811,-0.255859,508
24219460,9989,-0.273682,-0.956543,-0.254761,508
24229451,9991,-0.273438,-0.955078,-0.252563,503
24239454,10003,-0.274170,-0.954468,-0.254272,512
24249476,10022,-0.275513,-0.954102,-0.255493,512
24259466,9990,-0.273804,-0.953369,-0.256836,513
24269475,10009,-0.274658,-0.953125,-0.255127,509
24279479,10004,-0.275879,-0.951538,-0.254395,515
24289472,9993,-0.274902,-0.951172,-0.254395,515
24299490,10018,-0.276245,-0.952148,-0.255005,509
24309458,9968,-0.275757,-0.954590,-0.253174,512
24319457,9999,-0.274536,-0.959351,-0.253906,510
24329474,10017,-0.273193,-0.959961,-0.252686,506
24339450,9976,-0.272461,-0.958008,-0.252197,511
24349465,10015,-0.272217,-0.954224,-0.251465,505
24359459,9994,-0.272095,-0.951660,-0.250977,507
24369452,9993,-0.268433,-0.951904,-0.252686,505
24379463,10011,-0.269897,-0.952515,-0.252808,503
24389479,10016,-0.273071,-0.953369,-0.253418,494
24399454,9975,-0.275146,-0.951416,-0.252808,492
24409458,10004,-0.275757,-0.951904,-0.253662,499
24419464,10006,-0.276367,-0.957886,-0.250977,497
24429450,9986,-0.277588,-0.959595,-0.251709,494
24439469,10019,-0.278931,-0.961914,-0.252808,493
24449477,10008,-0.278809,-0.962646,-0.253418,500
24459450,9973,-0.279541,-0.959839,-0.254639,497
24469454,10004,-0.281372,-0.954346,-0.254517,502
24479457,10003,-0.276123,-0.950317,-0.255615,502
24489462,10005,-0.272705,-0.950684,-0.255981,497
24499472,10010,-0.269287,-0.953125,-0.256470,498
24509472,10000,-0.266846,-0.955444,-0.256592,503
24519452,9980,-0.266968,-0.957275,-0.257446,503
24529453,10001,-0.271729,-0.954468,-0.254517,502
24539472,10019,-0.274170,-0.951172,-0.254883,500
24549454,9982,-0.276123,-0.949585,-0.254639,499
24559469,10015,-0.277710,-0.948975,-0.255005,499
24569470,10001,-0.276855,-0.949707,-0.254639,499
24579450,9980,-0.276733,-0.950928,-0.254028,499
24589464,10014,-0.274658,-0.953369,-0.253296,501
24599473,10009,-0.274048,-0.956543,-0.254272,504
24609470,9997,-0.271606,-0.958618,-0.253174,505
24619450,9980,-0.270142,-0.959717,-0.253662,511
24629469,10019,-0.268555,-0.960693,-0.253784,517
24639478,10009,-0.268433,-0.960571,-0.255127,523
24649453,9975,-0.268433,-0.962402,-0.251587,524
24659459,10006,-0.267578,-0.966431,-0.250122,533
24669492,10033,-0.269653,-0.969238,-0.247681,525
24679499,10007,-0.271973,-0.969727,-0.247681,542
24689451,9952,-0.274536,-0.966309,-0.250488,543
24699469,10018,-0.276489,-0.960205,-0.249878,536
24709453,9984,-0.279419,-0.950195,-0.250000,541
24719454,10001,-0.281128,-0.943481,-0.249878,536
24729479,10025,-0.279785,-0.943237,-0.251587,534
24739456,9977,-0.281006,-0.948486,-0.256470,523
24749478,10022,-0.278076,-0.948242,-0.256836,529
24759450,9972,-0.276123,-0.948242,-0.255127,525
24769477,10027,-0.276733,-0.947144,-0.256104,517
24779455,9978,-0.276367,-0.949829,-0.254761,512
24789459,10004,-0.276489,-0.955933,-0.254761,512
24799461,10002,-0.278320,-0.958496,-0.253174,514
24809476,10015,-0.275269,-0.954834,-0.253418,509
24819469,9993,-0.275879,-0.953735,-0.254395,513
24829472,10003,-0.274536,-0.951782,-0.255005,509
24839458,9986,-0.276123,-0.949951,-0.257446,509
24849465,10007,-0.275757,-0.950195,-0.257446,507
24859467,10002,-0.274658,-0.951660,-0.256958,507
24869457,9990,-0.276367,-0.953979,-0.257568,507
24879454,9997,-0.278076,-0.955200,-0.256470,506
24889459,10005,-0.278931,-0.956055,-0.255859,500
24899462,10003,-0.279053,-0.958130,-0.254028,508
24909474,10012,-0.277466,-0.959473,-0.253784,511
24919471,9997,-0.275513,-0.958862,-0.252197,511
24929450,9979,-0.274658,-0.956909,-0.252441,509
24939476,10026,-0.273315,-0.952515,-0.254517,513
24949459,9983,-0.273804,-0.949585,-0.254639,514
24959479,10020,-0.274292,-0.944458,-0.257324,511
24969455,9976,-0.275391,-0.945435,-0.258301,509
24979466,10011,-0.275513,-0.946167,-0.258789,511
24989471,10005,-0.275269,-0.946899,-0.257935,509
24999457,9986,-0.277466,-0.947021,-0.256348,511
25009459,10002,-0.278809,-0.953979,-0.257813,507
25019460,10001,-0.278076,-0.956665,-0.259155,510
25029476,10016,-0.277344,-0.955078,-0.258911,505
25039474,9998,-0.277344,-0.953125,-0.258545,512
25049492,10018,-0.275879,-0.952881,-0.257202,506
25059464,9972,-0.276978,-0.953247,-0.259033,504
25069454,9990,-0.276123,-0.954224,-0.257690,508
25079478,10024,-0.274414,-0.956543,-0.255859,501
25089473,9995,-0.272339,-0.957153,-0.256836,503
25099479,10006,-0.271851,-0.956543,-0.257202,505
25109458,9979,-0.271729,-0.957153,-0.256226,502
25119480,10022,-0.274414,-0.950439,-0.253540,502
25129477,9997,-0.276489,-0.949707,-0.255737,501
25139475,9998,-0.277100,-0.950073,-0.256836,499
25149451,9976,-0.277222,-0.949341,-0.256104,497
25159492,10041,-0.276123,-0.947632,-0.255615,498
25169450,9958,-0.277222,-0.949463,-0.256592,495
25179462,10012,-0.278076,-0.950073,-0.255615,491
25189452,9990,-0.276611,-0.947876,-0.255371,491
25199474,10022,-0.277588,-0.949829,-0.254761,494
25209463,9989,-0.276123,-0.954102,-0.252930,495
25219462,9999,-0.273804,-0.958374,-0.245972,493
25229469,10007,-0.273438,-0.962769,-0.245361,495
25239456,9987,-0.273682,-0.964966,-0.244019,492
25249473,10017,-0.273926,-0.964478,-0.244873,495
25259466,9993,-0.272705,-0.962036,-0.245483,493
25269451,9985,-0.270874,-0.960815,-0.243774,492
25279465,10014,-0.269897,-0.956787,-0.247559,501
25289468,10003,-0.270996,-0.958740,-0.247803,502
25299493,10025,-0.271118,-0.958984,-0.249268,513
25309471,9978,-0.273315,-0.957764,-0.249268,514
25319452,9981,-0.275391,-0.957397,-0.250000,520
25329452,10000,-0.277344,-0.952393,-0.249390,529
25339467,10015,-0.276611,-0.950195,-0.250000,534
25349458,9991,-0.274902,-0.951660,-0.249878,537
25359453,9995,-0.273560,-0.952026,-0.249756,536
25369459,10006,-0.273682,-0.951294,-0.249878,542
25379451,9992,-0.274048,-0.952148,-0.248779,544
25389452,10001,-0.273926,-0.954834,-0.249268,541
25399456,10004,-0.272583,-0.958130,-0.249390,535
25409451,9995,-0.272217,-0.958862,-0.249512,534
25419456,10005,-0.273193,-0.961914,-0.248535,537
25429454,9998,-0.270874,-0.964966,-0.248779,530
25439474,10020,-0.271362,-0.965088,-0.245850,526
25449480,10006,-0.270874,-0.963257,-0.244019,526
25462466,12986,-0.270630,-0.961304,-0.246094,522
25469458,6992,-0.269531,-0.959473,-0.245117,514
25479475,10017,-0.269897,-0.958374,-0.246094,514
25489450,9975,-0.272339,-0.955566,-0.245361,505
25499471,10021,-0.275513,-0.955078,-0.244263,503
25509465,9994,-0.275757,-0.956177,-0.242798,503
25519469,10004,-0.277344,-0.957397,-0.242920,505
25529458,9989,-0.277344,-0.959473,-0.241943,503
25539469,10011,-0.277100,-0.958496,-0.239990,505
25549497,10028,-0.274414,-0.957642,-0.239746,504
25559478,9981,-0.274414,-0.955444,-0.241333,500
25569477,9999,-0.272095,-0.954102,-0.242432,502
25579478,10001,-0.270264,-0.953491,-0.243896,507
25589476,9998,-0.271118,-0.954468,-0.242920,502
25599468,9992,-0.270264,-0.954468,-0.245850,513
25609474,10006,-0.270386,-0.957764,-0.245605,510
25619473,9999,-0.269897,-0.959961,-0.245117,513
25629460,9987,-0.269775,-0.962402,-0.245117,516
25639473,10013,-0.270630,-0.965088,-0.243652,515
25649450,9977,-0.272949,-0.965942,-0.242187,511
25659471,10021,-0.272705,-0.964355,-0.240234,513
25669489,10018,-0.274536,-0.962646,-0.240356,508
25679473,9984,-0.274170,-0.961670,-0.240356,508
25689471,9998,-0.276123,-0.961426,-0.243530,514
25699471,10000,-0.275269,-0.959839,-0.245361,506
25709457,9986,-0.274048,-0.951172,-0.245361,510
25719460,10003,-0.273315,-0.950928,-0.245483,505
25729477,10017,-0.274048,-0.951538,-0.245728,505
25739462,9985,-0.273560,-0.954346,-0.246826,503
25749452,9990,-0.273682,-0.958252,-0.246460,503
25759453,10001,-0.268433,-0.961182,-0.246338,504
25769464,10011,-0.268677,-0.961060,-0.245239,495
25779452,9988,-0.268188,-0.959717,-0.245605,501
25789463,10011,-0.270020,-0.957520,-0.246460,501
25799494,10031,-0.273804,-0.954956,-0.248413,502
25809454,9960,-0.278198,-0.951050,-0.247437,495
25819454,10000,-0.276978,-0.950317,-0.245728,501
25829471,10017,-0.276123,-0.952271,-0.245728,495
25839477,10006,-0.273926,-0.957397,-0.245239,497
25849473,9996,-0.272217,-0.959839,-0.244385,492
25859453,9980,-0.270264,-0.960937,-0.244873,498
25869457,10004,-0.269409,-0.958496,-0.246216,498
25879475,10018,-0.269897,-0.955322,-0.245728,492
25889471,9996,-0.270752,-0.954346,-0.245117,498
25899474,10003,-0.271729,-0.955933,-0.245483,498
25909460,9986,-0.274536,-0.958618,-0.245972,492
25919475,10015,-0.272827,-0.960449,-0.245239,500
25929473,9998,-0.274536,-0.958984,-0.245850,503
25939456,9983,-0.276489,-0.957397,-0.245972,505
25949451,9995,-0.276367,-0.956055,-0.244385,508
25959452,10001,-0.276123,-0.955200,-0.243530,511
25969459,10007,-0.276123,-0.953613,-0.243530,514
25979472,10013,-0.276611,-0.953857,-0.244141,516
25989469,9997,-0.275635,-0.953857,-0.245117,526
25999451,9982,-0.274902,-0.952759,-0.244019,527
26009465,10014,-0.275757,-0.953369,-0.244751,536
26019473,10008,-0.276489,-0.954956,-0.245850,537
26029477,10004,-0.271606,-0.958008,-0.245972,543
26039474,9997,-0.268555,-0.959595,-0.245239,545
26049485,10011,-0.268555,-0.960449,-0.244629,539
26059492,10007,-0.267700,-0.961548,-0.247070,541
26069471,9979,-0.267944,-0.961548,-0.246338,546
26079466,9995,-0.269775,-0.958374,-0.247925,543
26089475,10009,-0.269531,-0.958252,-0.249268,542
26099473,9998,-0.271362,-0.958374,-0.249756,534
26109470,9997,-0.272339,-0.958252,-0.250366,533
26119451,9981,-0.272705,-0.956909,-0.250122,528
26129465,10014,-0.273193,-0.954834,-0.249634,525
26139478,10013,-0.272461,-0.955322,-0.248047,522
26149450,9972,-0.271851,-0.957397,-0.248169,520
26159455,10005,-0.271240,-0.957886,-0.247314,512
26169454,9999,-0.271240,-0.958130,-0.246338,510
26179456,10002,-0.272583,-0.958008,-0.246460,511
26189463,10007,-0.273315,-0.952515,-0.244263,505
26199451,9988,-0.273315,-0.951782,-0.244141,504
26209464,10013,-0.274170,-0.952637,-0.244995,502
26219460,9996,-0.273193,-0.954956,-0.246826,497
26229476,10016,-0.272827,-0.956665,-0.247437,500
26239462,9986,-0.272827,-0.954346,-0.249512,496
26249465,10003,-0.271118,-0.953247,-0.251465,506
26259467,10002,-0.268799,-0.953979,-0.252808,508
26269475,10008,-0.269409,-0.956177,-0.252197,504
26279469,9994,-0.267456,-0.957886,-0.252686,513
26289492,10023,-0.267090,-0.961792,-0.248169,507
26299481,9989,-0.270020,-0.963013,-0.247314,509
26309465,9984,-0.271484,-0.962402,-0.244751,510
26319463,9998,-0.272583,-0.962524,-0.243164,514
26329466,10003,-0.272827,-0.960327,-0.243286,514
26339453,9987,-0.273804,-0.958008,-0.242310,508
26349472,10019,-0.274292,-0.952881,-0.242676,509
26359462,9990,-0.272095,-0.952759,-0.243164,506
26369467,10005,-0.270508,-0.955322,-0.243652,500
26379477,10010,-0.269775,-0.957764,-0.244751,497
26389453,9976,-0.269287,-0.961304,-0.245728,501
26399477,10024,-0.269287,-0.959473,-0.248291,501
26409473,9996,-0.269409,-0.958374,-0.248535,504
26419456,9983,-0.269043,-0.958374,-0.249512,500
26429459,10003,-0.269409,-0.958374,-0.250000,502
26439474,10015,-0.268188,-0.958252,-0.249756,503
26449475,10001,-0.266846,-0.956055,-0.249634,503
26459474,9999,-0.264526,-0.955566,-0.249512,502
26469471,9997,-0.265869,-0.957397,-0.250610,503
26479459,9988,-0.265503,-0.958862,-0.253418,503
26489476,10017,-0.266357,-0.958008,-0.252197,501
26499473,9997,-0.269409,-0.958862,-0.251953,501
26509459,9986,-0.269653,-0.961060,-0.250488,495
26519451,9992,-0.269287,-0.960205,-0.250488,497
26529450,9999,-0.267456,-0.959595,-0.249146,495
26539465,10015,-0.265991,-0.960327,-0.248779,502
26549495,10030,-0.266968,-0.960205,-0.247803,501
26559479,9984,-0.267700,-0.957642,-0.247559,499
26569453,9974,-0.268433,-0.956055,-0.247314,499
26579450,9997,-0.268188,-0.953613,-0.246826,495
26589464,10014,-0.269653,-0.953735,-0.246094,494
26599452,9988,-0.270142,-0.954834,-0.244751,491
26609473,10021,-0.270264,-0.958740,-0.244507,492
26619459,9986,-0.271606,-0.964355,-0.243774,494
26629462,10003,-0.274048,-0.965088,-0.244019,492
26639466,10004,-0.272461,-0.964111,-0.244141,499
26649459,9993,-0.273560,-0.961670,-0.245972,502
26659472,10013,-0.272827,-0.958740,-0.246826,509
26669460,9988,-0.269287,-0.950806,-0.248169,519
26679461,10001,-0.269287,-0.951172,-0.247192,524
26689463,10002,-0.268677,-0.951050,-0.247925,528
26699473,10010,-0.271973,-0.952759,-0.248047,535
26709454,9981,-0.275757,-0.953613,-0.247559,537
26719451,9997,-0.275269,-0.953247,-0.245483,538
26729476,10025,-0.275024,-0.952026,-0.244263,537
26739463,9987,-0.274170,-0.948486,-0.244263,539
26749450,9987,-0.272583,-0.949341,-0.243408,537
26759451,10001,-0.270874,-0.953369,-0.245483,533
26769459,10008,-0.269897,-0.956909,-0.246582,530
26779451,9992,-0.270630,-0.963867,-0.249756,534
26789497,10046,-0.270020,-0.964600,-0.250610,532
26799470,9973,-0.271729,-0.960571,-0.250854,527
26809466,9996,-0.272949,-0.955933,-0.249390,529
26819476,10010,-0.270874,-0.957031,-0.247559,524
26829466,9990,-0.265625,-0.962769,-0.246460,523
26839469,10003,-0.264160,-0.963501,-0.244141,519
26849453,9984,-0.265137,-0.962280,-0.242310,518
26859471,10018,-0.266113,-0.963013,-0.241577,507
26869462,9991,-0.267822,-0.962769,-0.241821,510
26879457,9995,-0.272339,-0.958374,-0.240723,507
26889455,9998,-0.273804,-0.956909,-0.241699,506
26899474,10019,-0.273071,-0.955688,-0.242554,505
26909456,9982,-0.273682,-0.955200,-0.243652,502
26919453,9997,-0.273193,-0.955933,-0.243774,503
26929471,10018,-0.272339,-0.957275,-0.246826,503
26939450,9979,-0.268677,-0.957275,-0.245483,506
26949476,10026,-0.265503,-0.956177,-0.245728,503
26959458,9982,-0.266113,-0.956909,-0.246460,502
26969460,10002,-0.267944,-0.957764,-0.246704,509
26979469,10009,-0.268921,-0.957520,-0.245850,510
26989458,9989,-0.270874,-0.958496,-0.240967,505
26999469,10011,-0.271729,-0.958862,-0.239746,506
27009460,9991,-0.271851,-0.959595,-0.241211,511
27019469,10009,-0.271606,-0.961548,-0.241211,512
27029467,9998,-0.273438,-0.961792,-0.241333,508
27039478,10011,-0.271118,-0.960937,-0.242187,512
27049461,9983,-0.270264,-0.962280,-0.243042,509
27059474,10013,-0.269775,-0.964722,-0.243530,509
27069471,9997,-0.270386,-0.966431,-0.242676,510
27079450,9979,-0.269897,-0.967407,-0.239624,512
27089468,10018,-0.270020,-0.967896,-0.238281,507
27099458,9990,-0.270996,-0.964478,-0.239746,506
27109464,10006,-0.270386,-0.960205,-0.241211,501
27119458,9994,-0.270020,-0.956299,-0.241699,504
27129454,9996,-0.269409,-0.953613,-0.242920,501
27139477,10023,-0.270630,-0.951416,-0.245972,502
27149455,9978,-0.271362,-0.952759,-0.246948,495
27159468,10013,-0.271362,-0.954834,-0.247192,501
27169502,10034,-0.270386,-0.956299,-0.245117,501
27179467,9965,-0.268677,-0.955933,-0.245239,495
27189460,9993,-0.269653,-0.956787,-0.245117,502
27199464,10004,-0.272095,-0.957764,-0.247070,501
27209454,9990,-0.275391,-0.953857,-0.247559,499
27219459,10005,-0.278198,-0.950684,-0.248047,501
27229465,10006,-0.277100,-0.951660,-0.248535,501
27239457,9992,-0.275513,-0.953369,-0.247681,503
27249466,10009,-0.273071,-0.956299,-0.246094,497
27259465,9999,-0.271606,-0.961792,-0.241821,502
27269477,10012,-0.271729,-0.964600,-0.241821,497
27279457,9980,-0.270996,-0.965332,-0.240234,499
27289499,10042,-0.270752,-0.963257,-0.241821,500
27299457,9958,-0.272095,-0.962646,-0.242065,494
27309462,10005,-0.273682,-0.960693,-0.243652,498
27319479,10017,-0.272217,-0.960205,-0.244751,497
27329476,9997,-0.271973,-0.958008,-0.246826,500
27339450,9974,-0.272095,-0.955200,-0.248535,501
27349453,10003,-0.273193,-0.953613,-0.250366,503
27359465,10012,-0.276489,-0.949341,-0.250122,502
27369477,10012,-0.278687,-0.946289,-0.249512,507
27379475,9998,-0.279785,-0.947388,-0.249756,513
27389464,9989,-0.279053,-0.951904,-0.250488,523
27399465,10001,-0.276611,-0.953369,-0.251221,529
27409500,10035,-0.275391,-0.953491,-0.250610,534
27419459,9959,-0.270386,-0.950439,-0.250610,536
27429475,10016,-0.267578,-0.950439,-0.250244,541
27439465,9990,-0.268311,-0.953369,-0.249390,535
27449479,10014,-0.266602,-0.956787,-0.250366,535
27459477,9998,-0.267456,-0.959106,-0.250366,539
27469478,10001,-0.270020,-0.962036,-0.249146,541
27479468,9990,-0.268555,-0.963501,-0.247559,535
27489478,10010,-0.267822,-0.966064,-0.246704,534
27499470,9992,-0.268311,-0.970215,-0.247925,529
27509460,9990,-0.268799,-0.973389,-0.246582,532
27519474,10014,-0.268677,-0.970337,-0.244995,525
27529494,10020,-0.270508,-0.968384,-0.244629,526
27539454,9960,-0.270508,-0.965088,-0.245483,520
27549473,10019,-0.271240,-0.961548,-0.245850,517
27559468,9995,-0.271729,-0.958496,-0.246582,511
27569456,9988,-0.272705,-0.955322,-0.247925,503
27579458,10002,-0.273071,-0.946777,-0.252319,502
27589456,9998,-0.275024,-0.940918,-0.254639,507
27599450,9994,-0.276245,-0.936157,-0.256348,502
27609459,10009,-0.278687,-0.935303,-0.259521,500
27619463,10004,-0.277832,-0.939087,-0.261597,504
27629479,10016,-0.277466,-0.943115,-0.263794,505
27639467,9988,-0.278809,-0.946167,-0.261719,502
27649480,10013,-0.277344,-0.949829,-0.261353,501
27659464,9984,-0.276855,-0.952271,-0.259766,509
27669477,10013,-0.274536,-0.954956,-0.258423,513
27679454,9977,-0.272095,-0.954102,-0.255249,510
27689475,10021,-0.272461,-0.953857,-0.254272,514
27699466,9991,-0.272461,-0.957031,-0.252686,509
27709464,9998,-0.272949,-0.957153,-0.251099,507
27719452,9988,-0.273071,-0.955200,-0.248901,507
27729467,10015,-0.275146,-0.955444,-0.245361,506
27739456,9989,-0.275757,-0.961914,-0.244507,505
27749453,9997,-0.276001,-0.962646,-0.243896,497
27759470,10017,-0.274902,-0.961426,-0.242920,501
27769504,10034,-0.274292,-0.960205,-0.241943,498
27779467,9963,-0.272583,-0.957886,-0.241943,493
27789467,10000,-0.273926,-0.956177,-0.245117,496
27799465,9998,-0.274048,-0.957764,-0.247803,493
27809470,10005,-0.274536,-0.957642,-0.248779,499
27819479,10009,-0.275635,-0.958618,-0.252075,495
27829465,9986,-0.275024,-0.957642,-0.252808,495
27839469,10004,-0.273193,-0.954468,-0.253052,501
27849479,10010,-0.272217,-0.959229,-0.252075,500
27859465,9986,-0.272339,-0.963135,-0.251831,501
27869452,9987,-0.272339,-0.965820,-0.250244,499
27879468,10016,-0.274658,-0.967773,-0.249878,502
27889470,10002,-0.276123,-0.963989,-0.249512,503
27899474,10004,-0.276733,-0.953857,-0.249512,503
27909458,9984,-0.276367,-0.953003,-0.250854,501
27919451,9993,-0.276855,-0.952148,-0.252686,501
27929472,10021,-0.278076,-0.952515,-0.253662,500
27939455,9983,-0.278809,-0.951294,-0.253662,497
27949476,10021,-0.277832,-0.953979,-0.251465,498
27959456,9980,-0.273682,-0.956421,-0.249756,497
27969463,10007,-0.271606,-0.959106,-0.250244,496
27979452,9989,-0.271118,-0.960571,-0.250610,491
27989458,10006,-0.270752,-0.961792,-0.251709,501
27999456,9998,-0.275513,-0.952026,-0.254517,503
28009461,10005,-0.278687,-0.946289,-0.255493,496
28019492,10031,-0.282837,-0.943726,-0.257813,488
28029451,9959,-0.282471,-0.945801,-0.258911,497
28039450,9999,-0.280151,-0.947388,-0.260010,498
28049454,10004,-0.278687,-0.948120,-0.258057,502
28059470,10016,-0.277710,-0.954468,-0.254639,502
28069472,10002,-0.276245,-0.957642,-0.255737,500
28079476,10004,-0.275269,-0.958740,-0.256226,504
28089469,9993,-0.275391,-0.958374,-0.255859,511
28099469,10000,-0.275024,-0.957764,-0.256592,513
28109460,9991,-0.276978,-0.952515,-0.256958,513
28119464,10004,-0.277588,-0.952515,-0.258545,520
28129468,10004,-0.278809,-0.952759,-0.259155,528
28139498,10030,-0.279297,-0.951050,-0.259155,531
28149452,9954,-0.280029,-0.950195,-0.259399,533
28159458,10006,-0.278076,-0.950073,-0.259888,534
28169475,10017,-0.278442,-0.948608,-0.259155,529
28179459,9984,-0.278198,-0.949829,-0.258911,532
28189460,10001,-0.278564,-0.950195,-0.259399,533
28199460,10000,-0.278564,-0.948730,-0.259644,531
28209466,10006,-0.277588,-0.946533,-0.259155,527
28219455,9989,-0.280640,-0.949829,-0.260376,526
28229464,10009,-0.280273,-0.950195,-0.260254,520
28239474,10010,-0.280273,-0.949219,-0.260010,520
28249464,9990,-0.280151,-0.947510,-0.260498,515
28259470,10006,-0.280518,-0.948853,-0.259766,509
28269482,10012,-0.280151,-0.955078,-0.260498,511
28279477,9995,-0.279541,-0.957520,-0.261841,509
28289471,9994,-0.278564,-0.957642,-0.261719,510
28299463,9992,-0.276855,-0.955933,-0.261475,503
28309479,10016,-0.278442,-0.954834,-0.261108,503
28319475,9996,-0.278564,-0.947388,-0.262817,505
28329454,9979,-0.278809,-0.946411,-0.264160,505
28339473,10019,-0.277710,-0.946655,-0.264893,500
28349475,10002,-0.276489,-0.945923,-0.265625,500
28359458,9983,-0.274536,-0.946533,-0.263184,501
28369460,10002,-0.274536,-0.947632,-0.260254,502
28379472,10012,-0.276855,-0.952148,-0.260376,503
28389517,10045,-0.279419,-0.954956,-0.259399,505
28399460,9943,-0.278564,-0.953369,-0.257935,504
28409477,10017,-0.281128,-0.951538,-0.257080,506
28419452,9975,-0.282593,-0.950806,-0.255127,499
28429456,10004,-0.283447,-0.954346,-0.256958,505
28439453,9997,-0.282715,-0.954468,-0.258301,499
28449472,10019,-0.281738,-0.954590,-0.257324,505
28459453,9981,-0.279541,-0.952271,-0.259033,500
28469458,10005,-0.279053,-0.950073,-0.260498,509
28480763,11305,-0.278320,-0.952637,-0.261108,503
28489450,8687,-0.279053,-0.955200,-0.262085,507
28499454,10004,-0.278076,-0.954224,-0.262817,500
28509483,10029,-0.277344,-0.953003,-0.262573,502
28519477,9994,-0.278198,-0.951904,-0.262817,505
28529472,9995,-0.279297,-0.952515,-0.262329,503
28539466,9994,-0.279907,-0.950928,-0.261841,502
28549459,9993,-0.281494,-0.949585,-0.260986,504
28559478,10019,-0.282104,-0.948364,-0.260010,504
28569474,9996,-0.280029,-0.948975,-0.261108,497
28579450,9976,-0.279785,-0.949097,-0.259033,497
28589460,10010,-0.282349,-0.948730,-0.259277,492
28599470,10010,-0.282837,-0.946167,-0.260132,494
28609479,10009,-0.284058,-0.947266,-0.262085,497
28619475,9996,-0.283813,-0.951050,-0.262939,494
28629478,10003,-0.282715,-0.952271,-0.261963,497
28639472,9994,-0.280762,-0.952393,-0.258911,495
28649477,10005,-0.277466,-0.953979,-0.260498,497
28659458,9981,-0.275635,-0.957031,-0.262085,496
28669473,10015,-0.272949,-0.958984,-0.265137,497
28679459,9986,-0.273926,-0.956055,-0.263794,497
28689466,10007,-0.278320,-0.950073,-0.262939,498
28699476,10010,-0.281128,-0.947266,-0.262207,496
28709454,9978,-0.281860,-0.949951,-0.261475,493
28719452,9998,-0.281372,-0.952393,-0.259888,496
28729454,10002,-0.281494,-0.953491,-0.260742,492
28739474,10020,-0.282593,-0.952759,-0.261841,492
28749459,9985,-0.282837,-0.946289,-0.262817,499
28759479,10020,-0.281982,-0.945801,-0.264038,499
28769476,9997,-0.282471,-0.945679,-0.263916,499
28779474,9998,-0.281738,-0.945679,-0.265015,506
28789465,9991,-0.281128,-0.951050,-0.263916,507
28799454,9989,-0.280518,-0.954956,-0.262207,516
28809454,10000,-0.279663,-0.954834,-0.261841,523
28819457,10003,-0.280029,-0.956787,-0.261719,522
28829471,10014,-0.280762,-0.957764,-0.261841,530
28839462,9991,-0.278931,-0.953857,-0.262207,523
28849466,10004,-0.280396,-0.949707,-0.263184,530
28859479,10013,-0.285278,-0.942627,-0.263062,527
28869514,10035,-0.286133,-0.940796,-0.263550,528
28879472,9958,-0.288086,-0.942627,-0.265381,525
28889469,9997,-0.286865,-0.943726,-0.266602,522
28899472,10003,-0.284302,-0.946167,-0.266846,520
28909475,10003,-0.281250,-0.949341,-0.265381,517
28919451,9976,-0.280762,-0.950684,-0.264038,508
28929461,10010,-0.281982,-0.951538,-0.264404,510
28939465,10004,-0.281738,-0.952881,-0.264160,510
28949470,10005,-0.280640,-0.954468,-0.264648,509
28959464,9994,-0.280518,-0.949829,-0.265625,508
28969454,9990,-0.284668,-0.946045,-0.265991,505
28979468,10014,-0.285889,-0.945435,-0.266846,503
28989478,10010,-0.285400,-0.945801,-0.266846,504
28999474,9996,-0.282104,-0.948486,-0.266235,505
29009468,9994,-0.281860,-0.949951,-0.264282,497
29019454,9986,-0.282104,-0.950073,-0.263306,498
29029458,10004,-0.282227,-0.949341,-0.263794,497
29039474,10016,-0.282593,-0.949463,-0.265137,504
29049479,10005,-0.281982,-0.949219,-0.265259,504
29059471,9992,-0.281616,-0.947144,-0.265015,505
29069475,10004,-0.283203,-0.948975,-0.265259,504
29079458,9983,-0.284424,-0.949707,-0.266357,500
29089455,9997,-0.282959,-0.950195,-0.269165,504
29099458,10003,-0.281738,-0.949707,-0.266968,507
29109465,10007,-0.282593,-0.949951,-0.269287,502
29119462,9997,-0.282349,-0.949097,-0.268433,506
29129455,9993,-0.282593,-0.947144,-0.267090,505
29139472,10017,-0.281860,-0.947021,-0.266968,499
29149463,9991,-0.282593,-0.945801,-0.267456,505
29159460,9997,-0.283813,-0.946045,-0.269043,497
29169462,10002,-0.283081,-0.947144,-0.270386,499
29179454,9992,-0.285278,-0.944458,-0.270264,503
29189471,10017,-0.286987,-0.943115,-0.269653,503
29199451,9980,-0.284912,-0.944458,-0.271240,504
29209469,10018,-0.284180,-0.945068,-0.272217,499
29219519,10050,-0.283691,-0.945190,-0.270020,498
29229474,9955,-0.283325,-0.943726,-0.268066,501
29239480,10006,-0.281616,-0.946411,-0.268555,498
29249451,9971,-0.283447,-0.949219,-0.267334,498
29259473,10022,-0.284546,-0.947876,-0.268188,497
29269452,9979,-0.286377,-0.946655,-0.268188,495
29279455,10003,-0.288330,-0.944336,-0.267822,496
29289454,9999,-0.289063,-0.946167,-0.266357,493
29299452,9998,-0.286133,-0.950195,-0.265869,496
29309453,10001,-0.281860,-0.953491,-0.267212,498
29319458,10005,-0.280518,-0.952393,-0.268433,500
29329471,10013,-0.280151,-0.950439,-0.268066,497
29339454,9983,-0.283813,-0.947388,-0.267822,497
29349470,10016,-0.284058,-0.948364,-0.268555,495
29359471,10001,-0.284424,-0.948486,-0.268188,489
29369453,9982,-0.285278,-0.946289,-0.268799,488
29379470,10017,-0.286255,-0.945312,-0.268799,496
29389471,10001,-0.287109,-0.945068,-0.270386,490
29399477,10006,-0.285767,-0.944336,-0.272217,496
29409477,10000,-0.284546,-0.942993,-0.274414,495
29419473,9996,-0.282715,-0.941772,-0.273682,505
29429458,9985,-0.282715,-0.942017,-0.272827,504
29439458,10000,-0.282104,-0.946167,-0.270264,510
29449453,9995,-0.283203,-0.949463,-0.270508,516
29459519,10066,-0.282715,-0.953125,-0.269043,513
29469458,9939,-0.282837,-0.956055,-0.268188,520
29480356,10898,-0.283569,-0.957397,-0.267334,521
29489450,9094,-0.285278,-0.953613,-0.268066,522
29499462,10012,-0.286499,-0.946655,-0.267700,530
29509458,9996,-0.286377,-0.943970,-0.268188,529
29519468,10010,-0.287598,-0.942871,-0.269653,521
29529476,10008,-0.288086,-0.940430,-0.270386,527
29539477,10001,-0.286133,-0.941650,-0.270996,525
29549469,9992,-0.284546,-0.944458,-0.269043,525
29559465,9996,-0.285400,-0.946045,-0.269653,521
29569466,10001,-0.284424,-0.946655,-0.269775,518
29579474,10008,-0.283325,-0.946533,-0.270142,520
29589458,9984,-0.283813,-0.947998,-0.269287,515
29599463,10005,-0.285522,-0.950806,-0.270752,515
29609470,10007,-0.282471,-0.950195,-0.270630,511
29619460,9990,-0.284180,-0.949463,-0.270508,514
29629469,10009,-0.283691,-0.950195,-0.270020,511
29639467,9998,-0.284790,-0.947998,-0.271240,511
29649479,10012,-0.285034,-0.945557,-0.270630,508
29659460,9981,-0.285278,-0.942261,-0.269653,508
29669466,10006,-0.285522,-0.944824,-0.270020,507
29679476,10010,-0.285400,-0.947144,-0.269653,504
29689461,9985,-0.284302,-0.947876,-0.270264,505
29699497,10036,-0.285400,-0.947266,-0.269531,503
29709471,9974,-0.283813,-0.949219,-0.268433,506
29719469,9998,-0.284302,-0.950806,-0.266846,504
29729479,10010,-0.285400,-0.951294,-0.265381,498
29739478,9999,-0.285522,-0.950195,-0.265503,503
29749472,9994,-0.286255,-0.948975,-0.266846,504
29759473,10001,-0.285522,-0.944336,-0.268555,506
29769478,10005,-0.286377,-0.941772,-0.270508,508
29779464,9986,-0.286133,-0.942017,-0.271362,506
29789461,9997,-0.286255,-0.942383,-0.270996,501
29799457,9996,-0.284668,-0.943726,-0.270996,504
29809474,10017,-0.283691,-0.947510,-0.271362,507
29819467,9993,-0.281494,-0.953735,-0.269775,508
29829508,10041,-0.281128,-0.953369,-0.270630,507
29839475,9967,-0.281494,-0.953003,-0.270142,507
29849472,9997,-0.282227,-0.950195,-0.268921,507
29859478,10006,-0.281494,-0.948853,-0.268921,504
29869467,9989,-0.284912,-0.946167,-0.272583,500
29879450,9983,-0.284912,-0.946533,-0.273071,503
29889475,10025,-0.284912,-0.946167,-0.273804,500
29899465,9990,-0.283447,-0.946289,-0.272095,502
29909457,9992,-0.281860,-0.948975,-0.271606,497
29919463,10006,-0.281128,-0.952393,-0.269897,503
29929455,9992,-0.284790,-0.951904,-0.268921,496
29939476,10021,-0.291260,-0.948730,-0.268677,499
29949463,9987,-0.294678,-0.945312,-0.268311,499
29959521,10058,-0.295410,-0.942383,-0.268799,499
29969471,9950,-0.293945,-0.941406,-0.269165,497
29979457,9986,-0.286621,-0.937622,-0.270874,491
29989456,9999,-0.285767,-0.939209,-0.271240,497
29999452,9996,-0.285034,-0.942627,-0.269775,491
30009467,10015,-0.285034,-0.944946,-0.269287,495
30019455,9988,-0.285645,-0.944946,-0.269775,495
30029479,10024,-0.287842,-0.946045,-0.269409,494
30039467,9988,-0.288452,-0.945068,-0.267822,496
30049467,10000,-0.288330,-0.944214,-0.268311,495
30059461,9994,-0.289063,-0.946289,-0.270142,495
30069470,10009,-0.287842,-0.947754,-0.273071,499
30079457,9987,-0.285156,-0.946167,-0.276123,497
30089471,10014,-0.282837,-0.945190,-0.275269,508
30099494,10023,-0.282593,-0.944458,-0.276001,512
30109459,9965,-0.283081,-0.945679,-0.273560,514
30119456,9997,-0.285767,-0.945923,-0.272461,519
30129454,9998,-0.286011,-0.947998,-0.270996,524
30139475,10021,-0.288818,-0.950928,-0.267700,525
30149474,9999,-0.289307,-0.949829,-0.266846,525
30159457,9983,-0.290039,-0.946777,-0.265991,532
30169455,9998,-0.290039,-0.943237,-0.265503,532
30179463,10008,-0.289795,-0.943604,-0.267944,529
30189476,10013,-0.289795,-0.941284,-0.270630,531
30199459,9983,-0.288940,-0.939331,-0.273438,532
30209460,10001,-0.286621,-0.939453,-0.273926,530
30219499,10039,-0.286011,-0.941650,-0.273804,529
30229464,9965,-0.284546,-0.943359,-0.274048,528
30239476,10012,-0.284058,-0.947510,-0.273071,521
30249459,9983,-0.284302,-0.953979,-0.271973,519
30259454,9995,-0.285645,-0.953491,-0.271118,517
30269473,10019,-0.286743,-0.951660,-0.270264,521
30279455,9982,-0.287354,-0.948975,-0.270142,519
30289472,10017,-0.287109,-0.945557,-0.271240,514
30299458,9986,-0.289673,-0.942505,-0.271240,513
30309466,10008,-0.289185,-0.941650,-0.271240,511
30319452,9986,-0.287354,-0.941162,-0.271973,510
30329476,10024,-0.287231,-0.941162,-0.270874,502
30339454,9978,-0.286621,-0.942383,-0.270264,507
30350226,10772,-0.286377,-0.943726,-0.268921,506
30359465,9239,-0.286865,-0.947144,-0.268066,502
30369467,10002,-0.285645,-0.948975,-0.270020,507
30379456,9989,-0.285522,-0.951294,-0.269409,507
30389475,10019,-0.286011,-0.951294,-0.270264,508
30399474,9999,-0.286743,-0.948608,-0.271484,503
30409451,9977,-0.286743,-0.944702,-0.272339,508
30419456,10005,-0.288940,-0.945068,-0.272949,509
30429451,9995,-0.286987,-0.944824,-0.274414,504
30439467,10016,-0.285767,-0.946045,-0.272949,510
30449472,10005,-0.286987,-0.946899,-0.273438,510
30459466,9994,-0.286255,-0.943237,-0.271240,512
30469467,10001,-0.286133,-0.944458,-0.270752,502
30479460,9993,-0.285645,-0.944946,-0.270874,508
30493246,13786,-0.286865,-0.946167,-0.270020,503
30499532,6286,0.000000,0.000000,0.000000,508
30509476,9944,-0.286865,-0.947266,-0.271118,508
30519464,9988,-0.286255,-0.946655,-0.270996,504
30529476,10012,-0.286133,-0.946655,-0.270508,504
30539463,9987,-0.286255,-0.948486,-0.272827,499
30549471,10008,-0.285400,-0.949097,-0.273071,508
30559469,9998,-0.286011,-0.948120,-0.272827,505
30569458,9989,-0.286621,-0.946655,-0.273071,506
30579475,10017,-0.288208,-0.946167,-0.274414,502
30589486,10011,-0.288452,-0.945068,-0.272339,503
30599457,9971,-0.286377,-0.942749,-0.273071,503
30609468,10011,-0.286255,-0.939453,-0.270264,504
30619473,10005,-0.289307,-0.938477,-0.270508,500
30629460,9987,-0.289673,-0.941406,-0.271973,500
30639468,10008,-0.290771,-0.942871,-0.272827,498
30649461,9993,-0.291626,-0.943970,-0.272461,491
30659456,9995,-0.291992,-0.946045,-0.270752,496
30669463,10007,-0.290283,-0.950195,-0.265137,496
30679456,9993,-0.283447,-0.954102,-0.264893,499
30689465,10009,-0.282349,-0.958374,-0.266479,500
30699474,10009,-0.281494,-0.958496,-0.268311,502
30709485,10011,-0.282715,-0.954102,-0.270874,501
30719454,9969,-0.284668,-0.947632,-0.273560,499
30729469,10015,-0.290649,-0.937134,-0.272705,492
30739452,9983,-0.293213,-0.935669,-0.273804,502
30749454,10002,-0.292358,-0.937256,-0.275146,497
30759463,10009,-0.291748,-0.938232,-0.274536,504
30769477,10014,-0.290649,-0.939941,-0.273560,501
30779469,9992,-0.287598,-0.941162,-0.272583,504
30789471,10002,-0.287231,-0.939941,-0.273682,506
30799468,9997,-0.286255,-0.941040,-0.274292,510
30809477,10009,-0.283813,-0.943237,-0.276245,516
30819459,9982,-0.282715,-0.947632,-0.276245,520
30829486,10027,-0.281860,-0.951416,-0.273560,524
30839476,9990,-0.285645,-0.953003,-0.272949,527
30849475,9999,-0.284790,-0.954590,-0.271973,537
30859466,9991,-0.286621,-0.953125,-0.270874,538
30869467,10001,-0.287354,-0.950317,-0.270752,543
30879474,10007,-0.288086,-0.946045,-0.270508,543
30889463,9989,-0.290894,-0.942993,-0.271362,541
30899451,9988,-0.291138,-0.941772,-0.272217,537
30909456,10005,-0.289673,-0.940918,-0.271606,533
30919464,10008,-0.288452,-0.939453,-0.271240,530
30929457,9993,-0.288086,-0.941772,-0.270386,524
30939465,10008,-0.287842,-0.947266,-0.272217,529
30949509,10044,-0.287598,-0.947266,-0.274048,527
30959461,9952,-0.286011,-0.945312,-0.274780,525
30969463,10002,-0.286987,-0.944702,-0.275513,518
30979451,9988,-0.286865,-0.942749,-0.276855,514
30989457,10006,-0.285278,-0.946289,-0.275269,518
30999462,10005,-0.286621,-0.948364,-0.275513,513
31009478,10016,-0.286377,-0.947754,-0.274658,511
31019454,9976,-0.284912,-0.946289,-0.275757,511
31029451,9997,-0.286865,-0.944458,-0.276001,515
31039457,10006,-0.287842,-0.941284,-0.274780,511
31049472,10015,-0.288330,-0.942261,-0.272827,506
31059462,9990,-0.288940,-0.944946,-0.270508,510
31069482,10020,-0.287354,-0.947632,-0.269043,510
31079455,9973,-0.286133,-0.947144,-0.268311,504
31089450,9995,-0.287109,-0.946533,-0.267700,509
31099450,10000,-0.289307,-0.945679,-0.268188,509
31109456,10006,-0.289307,-0.943848,-0.270264,506
31119454,9998,-0.288208,-0.944092,-0.271606,510
31129451,9997,-0.287354,-0.946045,-0.274048,507
31139456,10005,-0.286865,-0.946289,-0.273926,512
31149456,10000,-0.286255,-0.946533,-0.275879,530
31159470,10014,-0.284180,-0.948120,-0.277954,515
31169459,9989,-0.285400,-0.946289,-0.275879,516
31179472,10013,-0.285889,-0.945923,-0.275024,517
31189492,10020,-0.285645,-0.947510,-0.274292,510
31199460,9968,-0.284546,-0.947998,-0.273926,517
31209467,10007,-0.285889,-0.948364,-0.273315,510
31219478,10011,-0.286987,-0.947998,-0.272339,514
31229468,9990,-0.286011,-0.945923,-0.272095,515
31239466,9998,-0.286377,-0.945801,-0.273804,512
31249457,9991,-0.286377,-0.943970,-0.271362,510
31259475,10018,-0.287964,-0.940552,-0.272461,507
31269459,9984,-0.288330,-0.942505,-0.273315,498
31279467,10008,-0.288574,-0.942383,-0.271118,504
31289471,10004,-0.286987,-0.944092,-0.270508,501
31299459,9988,-0.286621,-0.945679,-0.270508,496
31309501,10042,-0.287842,-0.948853,-0.271362,500
31319468,9967,-0.286499,-0.947754,-0.271362,496
31329450,9982,-0.287476,-0.945801,-0.272217,495
31339456,10006,-0.286987,-0.945312,-0.273682,503
31349476,10020,-0.284546,-0.946045,-0.276733,496
31359462,9986,-0.283936,-0.946899,-0.275879,499
31369465,10003,-0.284424,-0.945190,-0.277588,504
31379464,9999,-0.286865,-0.943359,-0.275635,506
31389475,10011,-0.289063,-0.942749,-0.276367,509
31399462,9987,-0.291870,-0.943359,-0.274658,507
31409453,9991,-0.293213,-0.942993,-0.274658,505
31419454,10001,-0.287354,-0.944702,-0.270996,502
31429477,10023,-0.285278,-0.947632,-0.268799,503
31439480,10003,-0.282593,-0.948853,-0.270142,505
31449470,9990,-0.282471,-0.947876,-0.270264,505
31459450,9980,-0.283447,-0.945435,-0.272217,503
31469479,10029,-0.285278,-0.942627,-0.272583,498
31479471,9992,-0.288330,-0.939941,-0.271973,507
31489469,9998,-0.290161,-0.940674,-0.271484,499
31499453,9984,-0.290527,-0.944580,-0.271851,498
31509479,10026,-0.291992,-0.947021,-0.271729,498
31519467,9988,-0.290894,-0.947510,-0.273438,497
31529467,10000,-0.288452,-0.941772,-0.274536,504
31539469,10002,-0.286499,-0.938354,-0.275879,507
31549473,10004,-0.284668,-0.938354,-0.277344,513
31559458,9985,-0.281372,-0.939575,-0.277466,518
31569463,10005,-0.282349,-0.944092,-0.276978,520
31579475,10012,-0.282715,-0.950684,-0.275146,530
31589452,9977,-0.283203,-0.952271,-0.274292,535
31599468,10016,-0.284912,-0.952515,-0.272583,541
31609474,10006,-0.286255,-0.951660,-0.269409,545
31619466,9992,-0.288208,-0.949829,-0.269775,542
31629456,9990,-0.289917,-0.947021,-0.270752,548
31639472,10016,-0.291992,-0.939575,-0.270996,544
31649465,9993,-0.291626,-0.937866,-0.271484,543
31659469,10004,-0.290405,-0.936890,-0.271973,540
31669461,9992,-0.288696,-0.937744,-0.271118,537
31679483,10022,-0.287476,-0.942627,-0.269287,527
31689458,9975,-0.284790,-0.950317,-0.272583,528
31699468,10010,-0.283325,-0.951172,-0.272461,522
31709469,10001,-0.285278,-0.950562,-0.272461,528
31719454,9985,-0.284302,-0.949707,-0.272217,525
31729473,10019,-0.284424,-0.949951,-0.273560,523
31739462,9989,-0.285522,-0.947144,-0.275269,524
31749453,9991,-0.287109,-0.947510,-0.273682,514
31759460,10007,-0.287598,-0.945312,-0.274292,512
31769454,9994,-0.286499,-0.944702,-0.273193,515
31779451,9997,-0.286133,-0.943726,-0.274048,515
31789495,10044,-0.286011,-0.942993,-0.271729,514
31799466,9971,-0.285400,-0.945312,-0.270142,511
31809469,10003,-0.284668,-0.945801,-0.268433,511
31819450,9981,-0.285278,-0.946777,-0.270142,503
31829478,10028,-0.285522,-0.947021,-0.270874,512
31839459,9981,-0.285645,-0.945801,-0.270508,511
31849475,10016,-0.286621,-0.946289,-0.271362,511
31859470,9995,-0.286377,-0.946655,-0.272949,504
31869478,10008,-0.287109,-0.946167,-0.273804,514
31879461,9983,-0.287720,-0.947754,-0.273438,508
31889461,10000,-0.287720,-0.947021,-0.273682,515
31899474,10013,-0.286743,-0.944092,-0.276001,513
31909490,10016,-0.286621,-0.943848,-0.276611,516
31919463,9973,-0.284668,-0.945312,-0.277588,510
31929454,9991,-0.283813,-0.943970,-0.276855,513
31939477,10023,-0.284180,-0.942139,-0.276245,516
31949474,9997,-0.285034,-0.945190,-0.274170,513
31959461,9987,-0.283325,-0.947021,-0.275879,513
31969462,10001,-0.284058,-0.947510,-0.274048,513
31979461,9999,-0.284546,-0.948242,-0.273560,513
31989479,10018,-0.286011,-0.946899,-0.273926,509
31999450,9971,-0.286011,-0.945679,-0.272949,506
32009476,10026,-0.288086,-0.944336,-0.272339,508
32019462,9986,-0.286621,-0.945190,-0.272217,508
32029466,10004,-0.287598,-0.945190,-0.273804,503
32039476,10010,-0.287720,-0.943726,-0.274902,507
32049468,9992,-0.286255,-0.942749,-0.274780,499
32059466,9998,-0.286255,-0.943237,-0.275757,502
32069451,9985,-0.284424,-0.942627,-0.276733,503
32079476,10025,-0.283936,-0.944336,-0.277588,501
32089467,9991,-0.283813,-0.946899,-0.276733,501
32099451,9984,-0.282471,-0.948975,-0.275513,502
32109467,10016,-0.284424,-0.947754,-0.275635,497
32119461,9994,-0.283813,-0.947144,-0.275513,504
32129455,9994,-0.284790,-0.947144,-0.273560,506
32139503,10048,-0.285278,-0.946167,-0.275024,503
32149482,9979,-0.287842,-0.943359,-0.274048,500
32159475,9993,-0.289673,-0.941162,-0.274414,500
32169476,10001,-0.292603,-0.941895,-0.274048,503
32179453,9977,-0.288818,-0.943237,-0.273315,496
32189476,10023,-0.285645,-0.944580,-0.271240,495
32199480,10004,-0.281494,-0.947021,-0.271973,502
32209473,9993,-0.279053,-0.950317,-0.273438,502
32219460,9987,-0.278687,-0.948242,-0.277222,502
32229468,10008,-0.281250,-0.945312,-0.276855,503
32239456,9988,-0.282593,-0.942627,-0.277344,504
32249451,9995,-0.285522,-0.942383,-0.277466,497
32259472,10021,-0.287964,-0.944092,-0.275513,502
32269478,10006,-0.289429,-0.947266,-0.273682,500
32279467,9989,-0.290894,-0.947021,-0.273682,503
32289456,9989,-0.290894,-0.941284,-0.273804,500
32299456,10000,-0.290527,-0.937134,-0.274536,504
32309470,10014,-0.289429,-0.936035,-0.276245,508
32319462,9992,-0.287842,-0.937378,-0.276978,506
32329456,9994,-0.283325,-0.946045,-0.276367,513
32339462,10006,-0.282104,-0.949707,-0.274780,515
32349463,10001,-0.279785,-0.951050,-0.274780,524
32359479,10016,-0.281494,-0.953125,-0.273926,528
32369474,9995,-0.283447,-0.955078,-0.273804,532
32379483,10009,-0.282349,-0.953247,-0.275146,542
32389450,9967,-0.284546,-0.949463,-0.276855,542
32399465,10015,-0.286011,-0.943726,-0.277588,548
32409464,9999,-0.289429,-0.940552,-0.277100,544
32419464,10000,-0.289917,-0.939331,-0.275024,545
32429454,9990,-0.290283,-0.938721,-0.274170,540
32439456,10002,-0.287720,-0.941406,-0.273438,536
32449461,10005,-0.287354,-0.943115,-0.272095,534
32459465,10004,-0.286011,-0.944580,-0.271973,528
32469459,9994,-0.283447,-0.944580,-0.270142,523
32479474,10015,-0.285034,-0.948120,-0.272705,524
32489473,9999,-0.282227,-0.950195,-0.273560,517
32499459,9986,-0.282715,-0.949463,-0.274414,519
32509463,10004,-0.283936,-0.947754,-0.275146,517
32519453,9990,-0.286011,-0.946777,-0.277344,510
32529471,10018,-0.286011,-0.945801,-0.277710,511
32539450,9979,-0.286743,-0.946533,-0.278931,513
32549472,10022,-0.287354,-0.945801,-0.278320,512
32559459,9987,-0.286987,-0.942383,-0.276001,514
32569475,10016,-0.285034,-0.940186,-0.274780,510
32579465,9990,-0.285522,-0.942871,-0.275146,506
32589458,9993,-0.285034,-0.944824,-0.274658,512
32599478,10020,-0.284302,-0.943604,-0.275024,510
32609472,9994,-0.285767,-0.943481,-0.274292,511
32619470,9998,-0.286865,-0.942505,-0.274292,503
32629467,9997,-0.285645,-0.942993,-0.273682,506
32639479,10012,-0.285767,-0.946045,-0.274292,508
32649456,9977,-0.286133,-0.947876,-0.273193,506
32659468,10012,-0.285156,-0.949219,-0.273926,514
32669466,9998,-0.284790,-0.950317,-0.276489,516
32679471,10005,-0.282104,-0.951782,-0.275269,508
32689470,9999,-0.281860,-0.950195,-0.275513,512
32699452,9982,-0.283936,-0.945679,-0.275879,519
32709460,10008,-0.284790,-0.943848,-0.275757,512
32719473,10013,-0.285400,-0.943359,-0.277466,517
32729471,9998,-0.285889,-0.944092,-0.278076,509
32739462,9991,-0.285767,-0.944336,-0.277466,514
32749460,9998,-0.286011,-0.943359,-0.275024,508
32759454,9994,-0.284180,-0.943359,-0.275269,509
32769454,10000,-0.284058,-0.945435,-0.276001,511
32779452,9998,-0.284302,-0.946045,-0.276123,509
32789456,10004,-0.283691,-0.945435,-0.275635,508
32799461,10005,-0.284668,-0.944824,-0.277466,506
32809469,10008,-0.286499,-0.946655,-0.275635,503
32819454,9985,-0.285889,-0.946411,-0.276855,508
32829464,10010,-0.285034,-0.944458,-0.277588,500
32839504,10040,-0.282837,-0.945068,-0.276001,502
32849458,9954,-0.282104,-0.945312,-0.275513,506
32859450,9992,-0.285645,-0.947876,-0.273560,504
32869464,10014,-0.287720,-0.948975,-0.274780,504
32879456,9992,-0.291748,-0.949097,-0.275024,498
32889476,10020,-0.292603,-0.949463,-0.274292,502
32899468,9992,-0.290649,-0.948364,-0.272217,506
32909466,9998,-0.286255,-0.943481,-0.273438,505
32919466,10000,-0.282471,-0.943237,-0.275269,505
32929450,9984,-0.281738,-0.942993,-0.277100,505
32939451,10001,-0.280518,-0.941040,-0.278076,502
32949465,10014,-0.281494,-0.938599,-0.279419,503
32959474,10009,-0.282837,-0.935791,-0.279785,500
32969461,9987,-0.285767,-0.940186,-0.279907,503
32979472,10011,-0.286255,-0.944580,-0.276978,497
32989479,10007,-0.286377,-0.948486,-0.277588,502
32999471,9992,-0.286987,-0.952271,-0.276001,506
33009450,9979,-0.287109,-0.951050,-0.276367,503
33019466,10016,-0.286133,-0.948120,-0.276489,511
33029477,10011,-0.286499,-0.945312,-0.274902,506
33039474,9997,-0.286377,-0.942017,-0.274902,515
33049457,9983,-0.285889,-0.940063,-0.274292,514
33059463,10006,-0.286621,-0.940063,-0.274780,524
33069476,10013,-0.286865,-0.942505,-0.275269,527
33079464,9988,-0.286621,-0.943970,-0.274292,527
33089453,9989,-0.285522,-0.945557,-0.275879,537
33099454,10001,-0.286621,-0.945679,-0.275391,540
33109473,10019,-0.286255,-0.948608,-0.276001,539
33119472,9999,-0.286621,-0.950195,-0.275269,538
33129450,9978,-0.286499,-0.950195,-0.276978,535
33139476,10026,-0.286621,-0.946655,-0.279297,538
33149475,9999,-0.286499,-0.941650,-0.281006,536
33159460,9985,-0.286255,-0.937500,-0.279907,532
33169479,10019,-0.285522,-0.936523,-0.286499,534
33179462,9983,-0.289795,-0.940674,-0.280273,531
33189463,10001,-0.295410,-0.955200,-0.267944,529
33199469,10006,-0.285156,-0.957275,-0.263062,520
33209478,10009,-0.282471,-0.953369,-0.268555,516
33219453,9975,-0.286743,-0.949097,-0.276245,508
33229478,10025,-0.287109,-0.935181,-0.284790,505
33239462,9984,-0.290039,-0.931885,-0.288818,498
33249471,10009,-0.288330,-0.934814,-0.284668,493
33259456,9985,-0.285889,-0.926392,-0.283447,494
33269465,10009,-0.289795,-0.925903,-0.281494,490
33279455,9990,-0.287964,-0.936279,-0.281616,494
33289450,9995,-0.286011,-0.956177,-0.281982,499
33299463,10013,-0.287109,-0.965210,-0.281860,500
33309471,10008,-0.280518,-0.965820,-0.276367,501
33319473,10002,-0.282104,-0.950562,-0.279175,503
33329479,10006,-0.287476,-0.940674,-0.278320,508
33340829,11350,-0.287720,-0.945557,-0.278442,503
33349451,8622,-0.290771,-0.939941,-0.279907,504
33359478,10027,-0.290649,-0.936523,-0.277344,508
33369452,9974,-0.291626,-0.938110,-0.275879,509
33379477,10025,-0.291504,-0.942993,-0.274170,507
33389470,9993,-0.286133,-0.936890,-0.279541,517
33399477,10007,-0.292847,-0.938232,-0.281860,524
33409492,10015,-0.288818,-0.938110,-0.283325,517
33419466,9974,-0.288940,-0.933960,-0.283691,519
33429457,9991,-0.289063,-0.934570,-0.284058,521
33439476,10019,-0.287109,-0.944092,-0.280151,516
33449455,9979,-0.291260,-0.956299,-0.276611,526
33459478,10023,-0.276978,-0.941528,-0.280518,523
33469474,9996,-0.287109,-0.947510,-0.281372,523
33479461,9987,-0.291260,-0.953857,-0.280151,522
33489479,10018,-0.287598,-0.942505,-0.278564,513
33501145,11666,-0.288818,-0.942749,-0.281006,511
33509467,8322,-0.289307,-0.938232,-0.279541,512
33519472,10005,-0.294189,-0.936890,-0.278442,506
33529458,9986,-0.288818,-0.934692,-0.279663,511
33539479,10021,-0.286621,-0.938232,-0.279175,499
33549490,10011,-0.279785,-0.944824,-0.280273,506
33559470,9980,-0.282715,-0.946045,-0.281494,504
33569464,9994,-0.288086,-0.948364,-0.282959,506
33579468,10004,-0.291626,-0.944336,-0.283325,510
33589451,9983,-0.289795,-0.941895,-0.285522,504
33599467,10016,-0.296509,-0.943481,-0.250366,505
33609453,9986,-0.290405,-0.938110,-0.277466,508
33619478,10025,-0.288452,-0.943237,-0.275757,506
33629453,9975,-0.280273,-0.947388,-0.276733,504
33639451,9998,-0.286133,-0.954712,-0.279297,502
33649466,10015,-0.282104,-0.950439,-0.278931,504
33659467,10001,-0.287231,-0.937256,-0.277222,500
33669458,9991,-0.288696,-0.938721,-0.278320,499
33679458,10000,-0.289063,-0.942505,-0.279053,501
33689464,10006,-0.285645,-0.942871,-0.285767,501
33699477,10013,-0.290283,-0.944214,-0.283203,501
33709473,9996,-0.291260,-0.940918,-0.277588,498
33719462,9989,-0.292358,-0.940430,-0.280640,508
33729473,10011,-0.288574,-0.942139,-0.282104,508
33739456,9983,-0.288696,-0.941162,-0.281738,512
33749458,10002,-0.285522,-0.939209,-0.280884,516
33759458,10000,-0.285767,-0.942017,-0.312378,522
33769456,9998,-0.283081,-0.940796,-0.279663,527
33779471,10015,-0.283203,-0.940186,-0.275269,532
33789472,10001,-0.285400,-0.950439,-0.279175,535
33799455,9983,-0.286865,-0.957397,-0.278198,532
33809455,10000,-0.280273,-0.949585,-0.274170,537
33819459,10004,-0.287109,-0.950195,-0.278076,545
33829455,9996,-0.291260,-0.950806,-0.278931,546
33839477,10022,-0.290405,-0.939819,-0.278076,541
33849458,9981,-0.289307,-0.933350,-0.276123,544
33859461,10003,-0.289307,-0.942139,-0.281860,541
33869472,10011,-0.285400,-0.934204,-0.279175,535
33879452,9980,-0.288818,-0.941162,-0.280396,535
33889475,10023,-0.287109,-0.945801,-0.278564,531
33899455,9980,-0.283691,-0.944946,-0.277832,527
33909479,10024,-0.284546,-0.949341,-0.277832,523
33919459,9980,-0.284058,-0.948242,-0.278320,521
33929474,10015,-0.284424,-0.943237,-0.277466,518
33939467,9993,-0.284180,-0.949463,-0.279907,516
33949456,9989,-0.287231,-0.949097,-0.276855,514
33959455,9999,-0.284180,-0.943481,-0.276245,505
33969471,10016,-0.290283,-0.945312,-0.276489,509
33979460,9989,-0.286865,-0.941895,-0.277954,508
33989461,10001,-0.287598,-0.937256,-0.276245,508
33999467,10006,-0.289551,-0.938232,-0.275757,505
34009466,9999,-0.288330,-0.942749,-0.273926,499
34019457,9991,-0.285522,-0.945923,-0.277222,499
34029454,9997,-0.283325,-0.949097,-0.276855,503
34039464,10010,-0.284790,-0.950806,-0.275757,502
34049450,9986,-0.282349,-0.951782,-0.277222,506
34059457,10007,-0.286011,-0.949585,-0.277100,503
34069472,10015,-0.280518,-0.945801,-0.276367,504
34079455,9983,-0.286865,-0.937500,-0.276733,506
34089451,9996,-0.286621,-0.943848,-0.275024,498
34099466,10015,-0.286987,-0.944214,-0.279297,502
34109472,10006,-0.289429,-0.947998,-0.277954,500
34119467,9995,-0.283813,-0.944824,-0.274170,503
34129469,10002,-0.287109,-0.940186,-0.273071,498
34139479,10010,-0.282227,-0.950684,-0.277710,503
34149476,9997,-0.281006,-0.948486,-0.279419,501
34159479,10003,-0.284058,-0.947266,-0.280151,501
34169468,9989,-0.283691,-0.943115,-0.281006,501
34179462,9994,-0.280884,-0.945557,-0.278687,499
34189466,10004,-0.284302,-0.943604,-0.276001,500
34199473,10007,-0.288696,-0.942261,-0.276489,495
34209459,9986,-0.281616,-0.937988,-0.272461,495
34219471,10012,-0.278564,-0.947266,-0.275391,488
34229468,9997,-0.288086,-0.958374,-0.272583,485
34239468,10000,-0.285645,-0.952393,-0.276245,473
34249463,9995,-0.283936,-0.936646,-0.278931,462
34259458,9995,-0.284912,-0.930664,-0.279785,445
34269477,10019,-0.282959,-0.937500,-0.276733,425
34279463,9986,-0.281128,-0.948975,-0.277466,399
34289468,10005,-0.278198,-0.956665,-0.276123,374
34299453,9985,-0.283813,-0.945557,-0.276855,348
34309476,10023,-0.286377,-0.944092,-0.277954,308
34319468,9992,-0.286865,-0.944336,-0.276489,280
34329479,10011,-0.292358,-0.943726,-0.275269,248
34339452,9973,-0.294312,-0.943237,-0.276611,221
34349464,10012,-0.286255,-0.943726,-0.278809,205
34359474,10010,-0.283203,-0.942749,-0.279419,191
34369503,10029,-0.285034,-0.938843,-0.279175,175
34379458,9955,-0.284546,-0.940552,-0.274536,174
34389455,9997,-0.279053,-0.943481,-0.276733,173
34399455,10000,-0.280640,-0.946045,-0.281250,168
34409468,10013,-0.283447,-0.947144,-0.285156,180
34419460,9992,-0.286377,-0.945923,-0.281982,180
34429453,9993,-0.286865,-0.941284,-0.276978,198
34439472,10019,-0.284912,-0.941528,-0.271851,213
34449469,9997,-0.287598,-0.938110,-0.277832,232
34459464,9995,-0.296143,-0.949219,-0.274170,260
34469469,10005,-0.282104,-0.937988,-0.278809,288
34479470,10001,-0.285889,-0.940552,-0.276733,319
34489460,9990,-0.281738,-0.935059,-0.280518,353
34504188,14728,-0.283203,-0.951050,-0.278564,403
34510630,6442,-0.280151,-0.954224,-0.278564,424
34519476,8846,-0.282227,-0.951416,-0.278564,453
34529461,9985,-0.285767,-0.945801,-0.276367,479
34539476,10015,-0.286255,-0.941406,-0.273926,500
34549478,10002,-0.286011,-0.940552,-0.273804,529
34559472,9994,-0.288086,-0.944458,-0.274292,548
34569456,9984,-0.289917,-0.943970,-0.274048,569
34579467,10011,-0.288818,-0.939575,-0.271606,578
34589465,9998,-0.285767,-0.946899,-0.275024,582
34599466,10001,-0.284668,-0.946777,-0.278320,589
34609481,10015,-0.286621,-0.945923,-0.281128,592
34619451,9970,-0.284424,-0.943237,-0.279297,593
34629463,10012,-0.283569,-0.943115,-0.276001,592
34639474,10011,-0.285522,-0.946411,-0.276367,588
34649453,9979,-0.285034,-0.950195,-0.275879,584
34659453,10000,-0.284546,-0.951538,-0.276611,578
34669454,10001,-0.285645,-0.946289,-0.277710,565
34679458,10004,-0.286621,-0.941284,-0.276001,555
34689467,10009,-0.287964,-0.936768,-0.276611,544
34699462,9995,-0.288696,-0.936646,-0.276978,542
34709451,9989,-0.288330,-0.938110,-0.278442,526
34719455,10004,-0.288086,-0.937500,-0.277710,528
34729461,10006,-0.287720,-0.942383,-0.276733,518
34739451,9990,-0.286255,-0.944458,-0.276733,513
34749455,10004,-0.284302,-0.951660,-0.277100,509
34759467,10012,-0.284302,-0.950195,-0.275269,498
34769460,9993,-0.283081,-0.945923,-0.274048,502
34779478,10018,-0.287354,-0.945068,-0.274658,504
34789475,9997,-0.287354,-0.949951,-0.274780,505
34799467,9992,-0.286743,-0.946167,-0.275024,507
34809469,10002,-0.286865,-0.943237,-0.274048,509
34819459,9990,-0.287354,-0.943970,-0.275513,511
34829466,10007,-0.288208,-0.940552,-0.275757,515
34839457,9991,-0.287598,-0.943604,-0.275024,518
34849455,9998,-0.287354,-0.946411,-0.276001,521
34859495,10040,-0.285889,-0.946167,-0.275513,518
34869463,9968,-0.285889,-0.944946,-0.275635,527
34879471,10008,-0.285400,-0.945190,-0.277588,530
34889471,10000,-0.285645,-0.940674,-0.275513,530
34899465,9994,-0.283691,-0.942139,-0.274048,526
34909469,10004,-0.285034,-0.945068,-0.274292,532
34919460,9991,-0.285400,-0.945679,-0.273682,530
34929452,9992,-0.284302,-0.947266,-0.273682,524
34939465,10013,-0.286377,-0.947266,-0.275879,528
34949463,9998,-0.287842,-0.946899,-0.276367,519
34959458,9995,-0.287109,-0.944092,-0.277344,517
34969450,9992,-0.286133,-0.941406,-0.276733,517
34979450,10000,-0.286865,-0.942383,-0.276367,510
34989464,10014,-0.287231,-0.943481,-0.273682,509
34999473,10009,-0.287109,-0.945923,-0.273804,510
35009457,9984,-0.288208,-0.947021,-0.272217,506
35019476,10019,-0.287354,-0.946655,-0.272583,499
35029473,9997,-0.286987,-0.944946,-0.274170,505
35039464,9991,-0.285278,-0.940796,-0.274902,502
35049479,10015,-0.286377,-0.939453,-0.276489,502
35059465,9986,-0.289307,-0.948730,-0.277954,505
35069454,9989,-0.289551,-0.948975,-0.277954,504
35079477,10023,-0.287598,-0.943481,-0.275879,506
35089466,9989,-0.289185,-0.941284,-0.274170,505
35099474,10008,-0.288940,-0.946655,-0.272827,505
35109450,9976,-0.287109,-0.951660,-0.273315,507
35119477,10027,-0.285645,-0.954102,-0.274170,509
35129468,9991,-0.282104,-0.952637,-0.273804,508
35139458,9990,-0.280273,-0.948486,-0.272705,504
35149478,10020,-0.285767,-0.940796,-0.272095,501
35159457,9979,-0.288574,-0.942505,-0.273071,502
35169456,9999,-0.292480,-0.945190,-0.275757,500
35179454,9998,-0.289063,-0.942749,-0.277222,504
35189459,10005,-0.285889,-0.938232,-0.276611,501
35199461,10002,-0.286133,-0.938721,-0.275269,499
35209466,10005,-0.290161,-0.946411,-0.276001,506
35219465,9999,-0.289673,-0.949097,-0.276611,510
35229454,9989,-0.286987,-0.947510,-0.275391,513
35239471,10017,-0.284912,-0.943848,-0.275879,518
35249468,9997,-0.283691,-0.942139,-0.273071,521
35259460,9992,-0.285767,-0.945068,-0.273560,520
35269454,9994,-0.286011,-0.947144,-0.274170,529
35279462,10008,-0.287354,-0.948364,-0.273560,529
35289456,9994,-0.286621,-0.946533,-0.272583,539
35299465,10009,-0.285034,-0.945190,-0.271606,541
35309453,9988,-0.285278,-0.945923,-0.273193,538
35319496,10043,-0.288208,-0.947266,-0.275146,538
35329472,9976,-0.289673,-0.950195,-0.277100,543
35339482,10010,-0.289185,-0.947754,-0.277588,542
35349452,9970,-0.286133,-0.943481,-0.276978,541
35359451,9999,-0.284302,-0.941772,-0.273438,536
35369463,10012,-0.286133,-0.946045,-0.270386,531
35379472,10009,-0.289307,-0.950439,-0.270630,534
35389466,9994,-0.288574,-0.949219,-0.273438,522
35399458,9992,-0.287842,-0.943726,-0.273682,518
35409475,10017,-0.286865,-0.938965,-0.271973,520
35419451,9976,-0.286499,-0.937866,-0.270508,513
35429478,10027,-0.286377,-0.943359,-0.272217,514
35439495,10017,-0.288574,-0.951294,-0.273926,514
35449454,9959,-0.286743,-0.951172,-0.276245,508
35459480,10026,-0.282959,-0.947876,-0.274658,513
35469463,9983,-0.285034,-0.945435,-0.274536,512
35479478,10015,-0.285522,-0.946411,-0.275024,511
35489465,9987,-0.286865,-0.950562,-0.277466,509
35499476,10011,-0.287598,-0.950562,-0.277344,510
35509470,9994,-0.284180,-0.942993,-0.274658,513
35519454,9984,-0.284790,-0.939697,-0.271973,511
35529473,10019,-0.288330,-0.944336,-0.274048,512
35539454,9981,-0.288696,-0.944214,-0.273926,512
35549455,10001,-0.289429,-0.946167,-0.273560,509
35559450,9995,-0.287354,-0.944580,-0.272705,507
35569464,10014,-0.285889,-0.943359,-0.272461,508
35579495,10031,-0.286011,-0.945557,-0.275146,512
35589475,9980,-0.285645,-0.947388,-0.274658,512
35599479,10004,-0.287720,-0.948242,-0.273071,511
35609457,9978,-0.286743,-0.947998,-0.271851,510
35619450,9993,-0.286011,-0.947021,-0.273682,511
35629468,10018,-0.285889,-0.942993,-0.274780,503
35639473,10005,-0.286743,-0.942749,-0.274536,509
35649467,9994,-0.286621,-0.943604,-0.273682,507
35659462,9995,-0.287476,-0.943359,-0.273438,505
35669453,9991,-0.286987,-0.942627,-0.275635,506
35679469,10016,-0.286255,-0.943237,-0.275879,500
35689467,9998,-0.286011,-0.940430,-0.275757,498
35699476,10009,-0.286011,-0.940796,-0.274414,504
35709470,9994,-0.287354,-0.944092,-0.275146,497
35719454,9984,-0.286133,-0.946777,-0.275513,500
35729465,10011,-0.285400,-0.947144,-0.276367,503
35739469,10004,-0.284424,-0.947266,-0.274048,502
35749474,10005,-0.285522,-0.946533,-0.273071,502
35759472,9998,-0.285889,-0.949097,-0.273926,500
35769467,9995,-0.287109,-0.948608,-0.274902,498
35779471,10004,-0.286621,-0.946777,-0.275024,498
35789467,9996,-0.286377,-0.943359,-0.273315,498
35799474,10007,-0.287720,-0.942993,-0.271851,495
35809503,10029,-0.287720,-0.942505,-0.272217,495
35819456,9953,-0.286987,-0.942017,-0.272583,495
35829463,10007,-0.287231,-0.943970,-0.272949,494
35839464,10001,-0.288208,-0.946655,-0.275391,496
35849455,9991,-0.289429,-0.942871,-0.276001,496
35859457,10002,-0.289551,-0.942505,-0.276123,495
35869459,10002,-0.288452,-0.943115,-0.275879,497
35879478,10019,-0.284546,-0.946167,-0.274658,492
35889456,9978,-0.280640,-0.949707,-0.275391,499
35899477,10021,-0.276611,-0.951538,-0.277466,503
35909451,9974,-0.278076,-0.949829,-0.278931,499
35919474,10023,-0.282349,-0.944580,-0.279175,499
35929457,9983,-0.285034,-0.941040,-0.278198,499
35939457,10000,-0.286865,-0.939453,-0.275269,492
35949470,10013,-0.289307,-0.944946,-0.274414,500
35959469,9999,-0.291260,-0.947754,-0.271362,496
35969453,9984,-0.293213,-0.947754,-0.270752,493
35979476,10023,-0.293701,-0.945679,-0.272827,495
35989474,9998,-0.292725,-0.940552,-0.273926,489
35999458,9984,-0.290405,-0.935913,-0.274536,496
36009478,10020,-0.286133,-0.937988,-0.274536,501
36019468,9990,-0.284790,-0.943359,-0.274536,504
36029453,9985,-0.281006,-0.948608,-0.275879,511
36039463,10010,-0.280396,-0.950439,-0.275146,518
36049475,10012,-0.282349,-0.953735,-0.275879,525
36059463,9988,-0.282837,-0.952759,-0.277588,530
36069485,10022,-0.284302,-0.950439,-0.275391,536
36079463,9978,-0.286133,-0.946289,-0.275024,535
36089452,9989,-0.287720,-0.941650,-0.276001,541
36099472,10020,-0.290283,-0.939697,-0.277222,542
36109453,9981,-0.291016,-0.938110,-0.276978,537
36119465,10012,-0.290649,-0.936523,-0.275513,540
36129463,9998,-0.290039,-0.938721,-0.274902,536
36139477,10014,-0.287231,-0.942505,-0.274780,528
36149459,9982,-0.285767,-0.945190,-0.273804,532
36159472,10013,-0.284302,-0.947510,-0.272827,529
36169500,10028,-0.283081,-0.949219,-0.272705,523
36179477,9977,-0.283203,-0.948242,-0.273682,521
36189480,10003,-0.283325,-0.947266,-0.274658,519
36199461,9981,-0.284058,-0.947632,-0.274536,515
36209470,10009,-0.284912,-0.947876,-0.276611,514
36219460,9990,-0.287109,-0.942139,-0.275391,512
36229466,10006,-0.287354,-0.942017,-0.277344,510
36239467,10001,-0.287842,-0.941895,-0.276489,506
36249470,10003,-0.286377,-0.939819,-0.275146,506
36259467,9997,-0.287720,-0.941895,-0.275146,503
36269478,10011,-0.285645,-0.947388,-0.272949,503
36279451,9973,-0.287231,-0.947266,-0.271484,503
36289498,10047,-0.286865,-0.946289,-0.271240,504
36299473,9975,-0.287720,-0.946777,-0.270752,505
36309477,10004,-0.286499,-0.948364,-0.272705,502
36319450,9973,-0.285034,-0.946411,-0.273071,506
36329468,10018,-0.286743,-0.946655,-0.274780,505
36339631,10163,-0.286377,-0.943970,-0.275146,508
36349450,9819,-0.284668,-0.941162,-0.275146,509
36359466,10016,-0.286133,-0.944702,-0.276733,510
36369474,10008,-0.286621,-0.946411,-0.277832,505
36379477,10003,-0.286255,-0.944702,-0.276978,509
36389460,9983,-0.285767,-0.945435,-0.276978,508
36399470,10010,-0.283569,-0.942017,-0.277588,506
36409481,10011,-0.285522,-0.944092,-0.274414,507
36419455,9974,-0.286865,-0.947510,-0.274658,506
36429480,10025,-0.285034,-0.946533,-0.273804,503
36439467,9987,-0.289307,-0.949707,-0.271973,498
36449469,10002,-0.288452,-0.946777,-0.273315,501
36459462,9993,-0.286865,-0.943970,-0.273315,497
36469466,10004,-0.287231,-0.943115,-0.275757,494
36479468,10002,-0.288940,-0.940918,-0.278198,495
36489452,9984,-0.288452,-0.939941,-0.276855,496
36499456,10004,-0.288452,-0.941650,-0.276855,498
36509460,10004,-0.286743,-0.945679,-0.276489,493
36519462,10002,-0.287109,-0.949707,-0.276001,492
36529471,10009,-0.285889,-0.950195,-0.276489,497
36539456,9985,-0.285767,-0.942261,-0.276367,498
36549471,10015,-0.284424,-0.941895,-0.275757,497
36559471,10000,-0.282227,-0.941406,-0.276245,492
36569466,9995,-0.284790,-0.943604,-0.274658,492
36579464,9998,-0.289063,-0.945679,-0.273193,492
36589478,10014,-0.293213,-0.942993,-0.273560,493
36599467,9989,-0.293945,-0.943359,-0.274048,493
36609473,10006,-0.293945,-0.944702,-0.275635,493
36619454,9981,-0.289307,-0.944458,-0.274536,495
36629470,10016,-0.285767,-0.945068,-0.272949,496
36639453,9983,-0.282959,-0.944946,-0.273560,494
36649469,10016,-0.279053,-0.949707,-0.277466,496
36659450,9981,-0.280151,-0.949707,-0.278564,494
36669453,10003,-0.281128,-0.946289,-0.278687,497
36679472,10019,-0.283081,-0.944702,-0.276978,492
36689475,10003,-0.287109,-0.942749,-0.276855,492
36699472,9997,-0.291382,-0.940552,-0.275757,492
36709457,9985,-0.293579,-0.941040,-0.276123,487
36719456,9999,-0.294434,-0.940063,-0.275757,486
36729465,10009,-0.294189,-0.938965,-0.275269,487
36739470,10005,-0.292236,-0.938477,-0.275635,492
36749471,10001,-0.286865,-0.941284,-0.276245,497
36759474,10003,-0.285767,-0.943115,-0.276367,493
36769470,9996,-0.283081,-0.946167,-0.277100,501
36779457,9987,-0.281738,-0.949463,-0.275513,510
36789482,10025,-0.281250,-0.953369,-0.274902,516
36799455,9973,-0.280762,-0.954590,-0.275391,521
36809466,10011,-0.284912,-0.950073,-0.275269,521
36819479,10013,-0.286377,-0.947388,-0.274414,530
36829472,9993,-0.288940,-0.941772,-0.274658,529
36839469,9997,-0.290527,-0.937622,-0.273560,529
36849450,9981,-0.293091,-0.935425,-0.273682,531
36859475,10025,-0.291870,-0.941895,-0.275391,531
36869458,9983,-0.291138,-0.942627,-0.275024,526
36879470,10012,-0.289063,-0.943481,-0.273804,521
36889464,9994,-0.287476,-0.944824,-0.273193,519
36899479,10015,-0.285522,-0.943359,-0.273682,522
36909471,9992,-0.286621,-0.947876,-0.274902,518
36919460,9989,-0.284912,-0.951294,-0.274048,512
36929451,9991,-0.281494,-0.950806,-0.275024,511
36939458,10007,-0.283081,-0.949951,-0.277588,511
36949473,10015,-0.285278,-0.947754,-0.277100,511
36959470,9997,-0.284668,-0.943237,-0.275757,505
36969455,9985,-0.288452,-0.941895,-0.272827,506
36979471,10016,-0.289307,-0.942993,-0.273682,508
36989463,9992,-0.290894,-0.943604,-0.274170,505
36999452,9989,-0.290649,-0.942871,-0.274536,494
37009461,10009,-0.289307,-0.941895,-0.273438,501
37019503,10042,-0.286377,-0.941040,-0.271240,502
37029460,9957,-0.286011,-0.942627,-0.271240,500
37039459,9999,-0.285645,-0.946655,-0.272339,495
37049464,10005,-0.286133,-0.950317,-0.274902,499
37059468,10004,-0.284912,-0.950562,-0.275757,501
37069454,9986,-0.285645,-0.947632,-0.273804,502
37079460,10006,-0.287842,-0.940918,-0.274414,505
37089469,10009,-0.288452,-0.943359,-0.275269,504
37099466,9997,-0.288452,-0.945679,-0.276855,505
37109457,9991,-0.289551,-0.945923,-0.276733,499
37119478,10021,-0.286987,-0.945679,-0.275757,499
37129464,9986,-0.285278,-0.945557,-0.270630,502
37139474,10010,-0.285767,-0.944946,-0.269531,504
37149475,10001,-0.286377,-0.948120,-0.270508,503
37159460,9985,-0.286865,-0.950195,-0.273438,501
37169496,10036,-0.288696,-0.949463,-0.274536,501
37179475,9979,-0.285889,-0.941162,-0.272705,500
37189458,9983,-0.285889,-0.940430,-0.273315,499
37199460,10002,-0.287598,-0.943726,-0.271729,497
37209462,10002,-0.286133,-0.948730,-0.272827,500
37219460,9998,-0.286743,-0.951782,-0.273682,493
37229474,10014,-0.286133,-0.950073,-0.272949,494
37239461,9987,-0.286499,-0.938965,-0.272949,499
37249450,9989,-0.287476,-0.941040,-0.273193,499
37259465,10015,-0.289185,-0.946289,-0.274536,494
37269466,10001,-0.289063,-0.950073,-0.276855,495
37279479,10013,-0.287354,-0.946167,-0.276733,490
37289455,9976,-0.286743,-0.937866,-0.273315,495
37299458,10003,-0.287109,-0.939331,-0.273682,490
37309466,10008,-0.285034,-0.943237,-0.274170,496
37319450,9984,-0.283447,-0.949707,-0.275024,494
37329465,10015,-0.285889,-0.952026,-0.274658,489
37339471,10006,-0.286133,-0.943237,-0.273315,489
37349457,9986,-0.288574,-0.945312,-0.273438,494
37359466,10009,-0.291138,-0.947388,-0.272827,494
37369472,10006,-0.291260,-0.949585,-0.273193,493
37379470,9998,-0.289063,-0.948120,-0.274414,491
37389466,9996,-0.286987,-0.944702,-0.273315,488
37399459,9993,-0.285034,-0.941406,-0.271606,493
37409466,10007,-0.285645,-0.942627,-0.273682,493
37419479,10013,-0.287354,-0.944092,-0.275635,492
37429479,10000,-0.287476,-0.942749,-0.277100,491
37439462,9983,-0.288818,-0.939331,-0.276001,489
37449461,9999,-0.287231,-0.936768,-0.275146,488
37459461,10000,-0.286865,-0.941650,-0.275146,488
37469478,10017,-0.287231,-0.948730,-0.276367,489
37479474,9996,-0.288086,-0.950806,-0.276978,482
37489478,10004,-0.287109,-0.949951,-0.276978,493
37499473,9995,-0.285645,-0.944458,-0.271973,495
37509472,9999,-0.285645,-0.942627,-0.271606,498
37519452,9980,-0.287842,-0.944580,-0.272705,504
37529453,10001,-0.290527,-0.947266,-0.273438,502
37539455,10002,-0.289795,-0.946899,-0.274170,509
37549469,10014,-0.289185,-0.943726,-0.273682,514
37559477,10008,-0.287964,-0.938110,-0.272583,520
37569476,9999,-0.287476,-0.940918,-0.271484,521
37579459,9983,-0.287598,-0.944458,-0.274536,525
37589468,10009,-0.287476,-0.947998,-0.275146,520
37599463,9995,-0.286865,-0.948364,-0.274902,526
37609475,10012,-0.285889,-0.947754,-0.272705,528
37619455,9980,-0.285156,-0.948730,-0.273071,512
37629477,10022,-0.286133,-0.948975,-0.273682,529
37639463,9986,-0.286621,-0.949463,-0.274780,524
37649455,9992,-0.288086,-0.947876,-0.275024,517
37659462,10007,-0.288086,-0.940430,-0.273315,520
37669471,10009,-0.287720,-0.941284,-0.271240,515
37679452,9981,-0.290894,-0.943970,-0.270508,514
37689477,10025,-0.291870,-0.947144,-0.271973,514
37699453,9976,-0.290039,-0.946899,-0.272705,511
37709470,10017,-0.288330,-0.943359,-0.273682,503
37719454,9984,-0.287598,-0.939575,-0.272461,502
37729479,10025,-0.287720,-0.939575,-0.274170,500
37739460,9981,-0.286133,-0.942993,-0.274658,502
37749452,9992,-0.286377,-0.946167,-0.274536,502
37759456,10004,-0.285400,-0.947266,-0.275024,499
37769465,10009,-0.285645,-0.949463,-0.274292,502
37779497,10032,-0.286865,-0.947876,-0.274048,502
37789451,9954,-0.287109,-0.947388,-0.274536,499
37799475,10024,-0.287109,-0.947266,-0.276123,505
37809478,10003,-0.286987,-0.946411,-0.275513,503
37819470,9992,-0.287720,-0.942017,-0.270752,506
37829456,9986,-0.289429,-0.942505,-0.270142,504
37839475,10019,-0.289673,-0.944946,-0.270386,505
37849464,9989,-0.289185,-0.945312,-0.270874,503
37859464,10000,-0.289185,-0.946777,-0.269165,502
37869455,9991,-0.288330,-0.946289,-0.268311,501
37879467,10012,-0.287598,-0.944702,-0.270752,496
37889471,10004,-0.286377,-0.946411,-0.272583,502
37899458,9987,-0.286987,-0.946045,-0.274658,499
37909479,10021,-0.286499,-0.946533,-0.275391,503
37919477,9998,-0.286255,-0.945435,-0.276489,505
37929460,9983,-0.285156,-0.945923,-0.278320,503
37939459,9999,-0.285278,-0.944214,-0.277710,505
37949479,10020,-0.286133,-0.942871,-0.276978,503
37959473,9994,-0.287598,-0.945312,-0.276001,502
37969464,9991,-0.287964,-0.945435,-0.275146,497
37979463,9999,-0.287109,-0.943604,-0.271240,502
37989472,10009,-0.288818,-0.943359,-0.270996,494
37999473,10001,-0.290283,-0.943237,-0.270386,498
38009468,9995,-0.290771,-0.943115,-0.270386,495
38019463,9995,-0.290283,-0.943604,-0.270264,495
38029457,9994,-0.289429,-0.943115,-0.271240,494
38039455,9998,-0.289185,-0.945312,-0.273315,495
38049464,10009,-0.288452,-0.949219,-0.275146,488
38059461,9997,-0.288452,-0.949097,-0.276611,496
38069473,10012,-0.287598,-0.946899,-0.276123,497
38079450,9977,-0.284912,-0.945557,-0.276855,491
38089475,10025,-0.282715,-0.941895,-0.278198,498
38099478,10003,-0.285645,-0.942505,-0.277222,499
38109459,9981,-0.287231,-0.943726,-0.275635,498
38119466,10007,-0.289917,-0.943115,-0.275879,496
38129464,9998,-0.292114,-0.943726,-0.273682,491
38139470,10006,-0.292847,-0.942871,-0.273560,495
38149453,9983,-0.289795,-0.943970,-0.269531,493
38159466,10013,-0.287598,-0.945557,-0.269287,489
38169477,10011,-0.285156,-0.949219,-0.270142,492
38179460,9983,-0.284180,-0.949097,-0.271729,492
38189467,10007,-0.284424,-0.946289,-0.271973,493
38199463,9996,-0.285889,-0.945679,-0.273682,492
38209466,10003,-0.288208,-0.945190,-0.273315,490
38219470,10004,-0.289429,-0.945190,-0.273682,489
38229476,10006,-0.289185,-0.943604,-0.274536,488
38239458,9982,-0.290039,-0.944214,-0.275391,488
38249451,9993,-0.289429,-0.941650,-0.276245,490
38259466,10015,-0.289429,-0.938843,-0.277344,486
38269466,10000,-0.289185,-0.937988,-0.277832,488
38279479,10013,-0.288452,-0.939087,-0.277466,497
38289472,9993,-0.286987,-0.939575,-0.276245,501
38299464,9992,-0.285400,-0.942505,-0.274414,506
38309466,10002,-0.285156,-0.950684,-0.271362,510
38319453,9987,-0.285889,-0.953979,-0.270508,512
38329477,10024,-0.287109,-0.954102,-0.271851,516
38339459,9982,-0.286499,-0.951050,-0.270874,525
38349472,10013,-0.287598,-0.947388,-0.270874,526
38359463,9991,-0.288940,-0.944458,-0.270996,530
38369462,9999,-0.289429,-0.941650,-0.272705,528
38379479,10017,-0.289795,-0.940674,-0.273193,526
38389451,9972,-0.291138,-0.939331,-0.272583,529
38399467,10016,-0.289917,-0.938721,-0.274536,528
38409452,9985,-0.288452,-0.943848,-0.273682,525
38419470,10018,-0.287109,-0.947632,-0.273560,527
38429458,9988,-0.286621,-0.950684,-0.271606,525
38439451,9993,-0.285645,-0.950928,-0.271729,523
38449453,10002,-0.286865,-0.950684,-0.272095,519
38459470,10017,-0.286621,-0.949951,-0.272095,518
38469474,10004,-0.286865,-0.946533,-0.273804,514
38479465,9991,-0.287231,-0.944336,-0.274658,510
38489467,10002,-0.287354,-0.942139,-0.274780,511
38499475,10008,-0.288208,-0.938354,-0.273804,503
38509456,9981,-0.289185,-0.937256,-0.274780,509
38519469,10013,-0.286987,-0.942139,-0.275024,506
38532726,13257,-0.287598,-0.944092,-0.274536,505
38539477,6751,-0.286865,-0.946411,-0.274780,499
38549475,9998,-0.286133,-0.948364,-0.273682,497
38559478,10003,-0.285889,-0.949341,-0.271606,499
38569451,9973,-0.286377,-0.950195,-0.270386,503
38579451,10000,-0.286743,-0.951416,-0.270508,502
38589463,10012,-0.287354,-0.948853,-0.270020,500
38599454,9991,-0.287476,-0.945801,-0.271118,505
38609451,9997,-0.287842,-0.942627,-0.271362,502
38619475,10024,-0.289673,-0.941650,-0.270996,503
38629462,9987,-0.289063,-0.942383,-0.272339,501
38639468,10006,-0.288696,-0.944458,-0.274658,501
38649453,9985,-0.288208,-0.945923,-0.273926,501
38659478,10025,-0.292114,-0.948486,-0.276978,507
38669462,9984,-0.278931,-0.945557,-0.273560,505
38679474,10012,-0.290405,-0.944946,-0.272827,504
38689450,9976,-0.285522,-0.943726,-0.274170,505
38699467,10017,-0.285522,-0.946533,-0.276245,502
38709474,10007,-0.286011,-0.945679,-0.276245,503
38719479,10005,-0.285889,-0.942871,-0.274780,506
38729459,9980,-0.285400,-0.941528,-0.274414,495
38739467,10008,-0.288452,-0.939453,-0.275635,501
38749472,10005,-0.289185,-0.940186,-0.275757,502
38759456,9984,-0.288696,-0.941650,-0.274292,496
38769454,9998,-0.287720,-0.942139,-0.271729,498
38779474,10020,-0.288818,-0.945557,-0.271240,499
38789459,9985,-0.286743,-0.952637,-0.270264,494
38799456,9997,-0.286255,-0.953735,-0.271240,498
38809456,10000,-0.286011,-0.951782,-0.272217,492
38819458,10002,-0.286865,-0.948242,-0.272583,497
38829466,10008,-0.286255,-0.944580,-0.273804,495
38839459,9993,-0.288452,-0.939575,-0.277466,497
38849466,10007,-0.289429,-0.938110,-0.278076,492
38859488,10022,-0.287720,-0.939941,-0.277954,498
38869453,9965,-0.285889,-0.941528,-0.278198,495
38879460,10007,-0.285278,-0.942017,-0.275757,491
38889477,10017,-0.284912,-0.943848,-0.276855,497
38899475,9998,-0.286865,-0.945190,-0.274902,497
38909453,9978,-0.290283,-0.945435,-0.273682,498
38919468,10015,-0.293579,-0.946045,-0.271851,489
38929459,9991,-0.293213,-0.946289,-0.270020,496
38939457,9998,-0.288818,-0.947021,-0.269775,492
38949453,9996,-0.283691,-0.950073,-0.271729,499
38959466,10013,-0.282593,-0.949097,-0.273804,493
38969466,10000,-0.281616,-0.949219,-0.274536,496
38979461,9995,-0.283081,-0.947632,-0.275879,488
38989452,9991,-0.285645,-0.944214,-0.276733,496
38999471,10019,-0.286743,-0.941406,-0.276367,495
39009469,9998,-0.290649,-0.940552,-0.278076,493
39019465,9996,-0.291016,-0.940308,-0.280029,493
39029474,10009,-0.291138,-0.937988,-0.279785,497
39039452,9978,-0.291504,-0.935303,-0.279907,498
39049471,10019,-0.291260,-0.934448,-0.278320,495
39059472,10001,-0.291504,-0.940552,-0.277710,497
39069477,10005,-0.288696,-0.942383,-0.277954,498
39079466,9989,-0.284912,-0.942627,-0.276367,504
39089470,10004,-0.283569,-0.944214,-0.273438,506
39099460,9990,-0.283936,-0.947998,-0.272827,508
39109454,9994,-0.285278,-0.954956,-0.272583,512
39119465,10011,-0.286133,-0.953613,-0.272827,511
39129477,10012,-0.287720,-0.948853,-0.273926,518
39139493,10016,-0.287720,-0.945679,-0.273926,523
39149472,9979,-0.287720,-0.942749,-0.272949,523
39159458,9986,-0.288452,-0.942993,-0.276245,528
39169462,10004,-0.290894,-0.942627,-0.275635,527
39179453,9991,-0.289795,-0.941040,-0.273926,520
39189478,10025,-0.288208,-0.940308,-0.271851,524
39199458,9980,-0.288696,-0.941284,-0.272827,524
39209455,9997,-0.289551,-0.944702,-0.274536,522
39219469,10014,-0.287842,-0.944946,-0.275146,520
39229479,10010,-0.286987,-0.942993,-0.275635,519
39239468,9989,-0.286499,-0.941772,-0.276245,508
39249457,9989,-0.285889,-0.942505,-0.275879,512
39259463,10006,-0.285522,-0.945679,-0.276611,507
39269455,9992,-0.286011,-0.952026,-0.277100,507
39279459,10004,-0.286011,-0.950562,-0.276001,505
39289463,10004,-0.287109,-0.945435,-0.273071,507
39299453,9990,-0.288696,-0.939575,-0.273315,503
39309463,10010,-0.290283,-0.940796,-0.273926,503
39319478,10015,-0.288940,-0.940674,-0.275757,504
39329473,9995,-0.288452,-0.941284,-0.275757,498
39339455,9982,-0.287109,-0.942261,-0.273071,502
39349478,10023,-0.285645,-0.942993,-0.272095,503
39359465,9987,-0.286011,-0.946289,-0.272217,497
39369469,10004,-0.284302,-0.948853,-0.272461,503
39379468,9999,-0.286255,-0.951050,-0.273438,504
39389452,9984,-0.286377,-0.949829,-0.273071,506
39399470,10018,-0.287109,-0.949463,-0.272949,501
39409450,9980,-0.288330,-0.948853,-0.274170,508
39419475,10025,-0.288330,-0.947510,-0.275024,509
39429462,9987,-0.288696,-0.941772,-0.277100,503
39439461,9999,-0.287231,-0.940552,-0.277100,509
39449479,10018,-0.286133,-0.941772,-0.277100,504
39459464,9985,-0.286255,-0.942993,-0.276489,509
39469461,9997,-0.286133,-0.943481,-0.275269,505
39479461,10000,-0.285645,-0.944702,-0.274780,508
39489464,10003,-0.285278,-0.947754,-0.273926,504
39499465,10001,-0.285645,-0.947754,-0.272095,505
39509475,10010,-0.287109,-0.946289,-0.272217,496
39519456,9981,-0.287842,-0.945923,-0.272095,504
39529461,10005,-0.288574,-0.945679,-0.273315,501
39539460,9999,-0.288696,-0.941406,-0.276855,501
39549475,10015,-0.289673,-0.941650,-0.275024,500
39559472,9997,-0.288086,-0.941406,-0.275024,491
39569467,9995,-0.288696,-0.941772,-0.276245,492
39579465,9998,-0.286743,-0.943115,-0.277100,498
39589467,10002,-0.285889,-0.946045,-0.277588,497
39599479,10012,-0.284424,-0.946289,-0.276245,497
39609457,9978,-0.282837,-0.946411,-0.274658,497
39619466,10009,-0.284058,-0.945190,-0.276123,497
39629453,9987,-0.284912,-0.943970,-0.277100,500
39639472,10019,-0.286865,-0.942505,-0.278320,497
39649463,9991,-0.290771,-0.940063,-0.279663,495
39659460,9997,-0.292725,-0.940308,-0.278809,497
39669458,9998,-0.293701,-0.940186,-0.277832,499
39679455,9997,-0.291870,-0.941528,-0.277588,498
39689458,10003,-0.289063,-0.941895,-0.275024,494
39699478,10020,-0.283081,-0.947632,-0.276733,493
39709471,9993,-0.281494,-0.948853,-0.277832,497
39719477,10006,-0.280884,-0.945801,-0.278809,497
39729451,9974,-0.282715,-0.946045,-0.277832,500
39739474,10023,-0.286011,-0.942749,-0.276855,497
39749469,9995,-0.290527,-0.941895,-0.275513,493
39759450,9981,-0.291382,-0.943726,-0.278076,498
39769478,10028,-0.292114,-0.944946,-0.279419,498
39779461,9983,-0.291138,-0.943726,-0.279907,498
39789457,9996,-0.289551,-0.941772,-0.278442,500
39799464,10007,-0.290283,-0.940552,-0.278198,495
39809461,9997,-0.286987,-0.942261,-0.278564,498
39819468,10007,-0.285889,-0.945679,-0.278931,508
39829463,9995,-0.285645,-0.946655,-0.277466,513
39839466,10003,-0.284302,-0.948608,-0.277100,516
39849463,9997,-0.285156,-0.948608,-0.276245,518
39859478,10015,-0.286865,-0.948486,-0.275391,521
39869457,9979,-0.288208,-0.945068,-0.274048,528
39879477,10020,-0.288452,-0.942383,-0.274170,526
39889488,10011,-0.289063,-0.940430,-0.274902,526
39899472,9984,-0.289673,-0.940430,-0.277100,532
39909466,9994,-0.290283,-0.938721,-0.279907,534
39919467,10001,-0.290649,-0.937744,-0.279541,531
39929476,10009,-0.288696,-0.937378,-0.279419,531
39939451,9975,-0.287231,-0.939331,-0.279175,530
39949468,10017,-0.284912,-0.944336,-0.277954,531
39959459,9991,-0.284302,-0.949585,-0.278198,525
39969451,9992,-0.285522,-0.951416,-0.277954,529
39979460,10009,-0.286377,-0.950439,-0.276611,524
39989452,9992,-0.285767,-0.946655,-0.274780,521
39999464,10012,-0.287109,-0.944580,-0.273804,520
40009474,10010,-0.288452,-0.943604,-0.273804,513
40019472,9998,-0.290771,-0.943726,-0.276245,516
40029465,9993,-0.289795,-0.942139,-0.273926,513
40039452,9987,-0.288696,-0.942505,-0.273804,504
40049467,10015,-0.289185,-0.942383,-0.274536,510
40059465,9998,-0.288574,-0.942749,-0.275269,505
40069457,9992,-0.287231,-0.944336,-0.276367,501
40079471,10014,-0.285889,-0.945068,-0.276733,506
40089467,9996,-0.287231,-0.945435,-0.277344,510
40099451,9984,-0.288086,-0.944336,-0.276978,505
40109471,10020,-0.286377,-0.944946,-0.275879,511
40119464,9993,-0.288086,-0.946533,-0.274902,506
40129478,10014,-0.287231,-0.946289,-0.276978,508
40139453,9975,-0.288208,-0.944580,-0.276001,514
40149452,9999,-0.287964,-0.942017,-0.275024,517
40159467,10015,-0.287598,-0.940796,-0.275879,511
40169458,9991,-0.288574,-0.942993,-0.275635,514
40179467,10009,-0.286987,-0.943604,-0.275146,514
40189474,10007,-0.287964,-0.945679,-0.275879,507
40199475,10001,-0.286133,-0.946289,-0.275269,513
40209451,9976,-0.286987,-0.947388,-0.274780,506
40219472,10021,-0.287109,-0.946533,-0.275024,512
40229462,9990,-0.287476,-0.946899,-0.275513,511
40239468,10006,-0.287720,-0.943726,-0.276855,509
40249459,9991,-0.286621,-0.940796,-0.277832,509
40259478,10019,-0.288208,-0.940430,-0.277100,507
40269459,9981,-0.288696,-0.938843,-0.277344,507
40279464,10005,-0.288208,-0.939331,-0.276367,507
40289469,10005,-0.289185,-0.944336,-0.277588,505
40299452,9983,-0.288696,-0.943237,-0.276367,503
40309477,10025,-0.289185,-0.943604,-0.275879,504
40319452,9975,-0.289429,-0.944824,-0.276855,503
40329460,10008,-0.288940,-0.944702,-0.277588,503
40339461,10001,-0.286255,-0.945557,-0.277222,504
40349466,10005,-0.285645,-0.945312,-0.277832,503
40359470,10004,-0.285400,-0.944336,-0.276978,505
40369453,9983,-0.287842,-0.944946,-0.277832,501
40379478,10025,-0.290283,-0.941772,-0.276978,503
40389460,9982,-0.292603,-0.941528,-0.276978,503
40399463,10003,-0.291016,-0.943115,-0.276855,504
40409457,9994,-0.288330,-0.942139,-0.274780,498
40419453,9996,-0.285645,-0.942627,-0.273682,503
40429473,10020,-0.286011,-0.947388,-0.273560,505
40439464,9991,-0.285156,-0.949341,-0.274658,503
40449474,10010,-0.286255,-0.945312,-0.274902,496
40459477,10003,-0.289063,-0.942139,-0.274292,503
40469464,9987,-0.288818,-0.939087,-0.272827,496
40479463,9999,-0.290039,-0.940308,-0.273926,499
40489477,10014,-0.291626,-0.942383,-0.276001,500
40499463,9986,-0.290894,-0.943970,-0.278809,501
40509468,10005,-0.289185,-0.942993,-0.277710,505
40519467,9999,-0.288330,-0.941040,-0.276855,505
40529471,10004,-0.286987,-0.941406,-0.277222,506
40539455,9984,-0.285889,-0.944702,-0.277100,506
40551263,11808,-0.285522,-0.945679,-0.276733,513
40559491,8228,-0.285767,-0.947021,-0.274048,514
40569473,9982,-0.287354,-0.945801,-0.274414,517
40579458,9985,-0.289185,-0.945068,-0.273804,528
40589461,10003,-0.289429,-0.943848,-0.274780,526
40599460,9999,-0.289673,-0.941772,-0.273926,536
40609457,9997,-0.289429,-0.941895,-0.274536,535
40619476,10019,-0.289307,-0.942871,-0.274170,534
40629478,10002,-0.289673,-0.941406,-0.273071,539
40639472,9994,-0.290039,-0.942139,-0.273926,537
40649451,9979,-0.289673,-0.944824,-0.272705,533
40659458,10007,-0.288818,-0.948120,-0.274170,534
40669470,10012,-0.286377,-0.949219,-0.276367,532
40679461,9991,-0.286011,-0.946899,-0.275146,527
40689463,10002,-0.286987,-0.944702,-0.275513,530
40699489,10026,-0.287476,-0.942749,-0.276001,530
40709479,9990,-0.289063,-0.942871,-0.275635,526
40719478,9999,-0.287354,-0.944824,-0.273804,520
40729462,9984,-0.289429,-0.946045,-0.274048,518
40739475,10013,-0.289185,-0.945923,-0.272461,520
40749454,9979,-0.289185,-0.946289,-0.272949,515
40759471,10017,-0.289917,-0.946533,-0.272339,517
40769477,10006,-0.289673,-0.940674,-0.273682,512
40779463,9986,-0.289917,-0.941650,-0.273438,513
40789475,10012,-0.288208,-0.942261,-0.275146,514
40799452,9977,-0.288330,-0.942261,-0.274902,513
40809471,10019,-0.287964,-0.943237,-0.274902,511
40819471,10000,-0.287720,-0.945923,-0.273926,512
40829456,9985,-0.286377,-0.949585,-0.274292,514
40839453,9997,-0.286377,-0.947388,-0.274536,514
40849479,10026,-0.286621,-0.946533,-0.275269,512
40859459,9980,-0.287231,-0.945435,-0.275757,509
40869462,10003,-0.288574,-0.945435,-0.275146,516
40879455,9993,-0.290649,-0.942627,-0.275391,511
40889463,10008,-0.289795,-0.942383,-0.276123,515
40899473,10010,-0.288574,-0.942017,-0.276367,516
40909453,9980,-0.287964,-0.940918,-0.276367,514
40919478,10025,-0.287354,-0.941284,-0.274902,517
40929459,9981,-0.288330,-0.944336,-0.274414,515
40939471,10012,-0.287598,-0.945190,-0.274170,510
40949475,10004,-0.288696,-0.945312,-0.272583,510
40959466,9991,-0.288208,-0.946411,-0.273193,511
40969499,10033,-0.287964,-0.949585,-0.273438,506
40979462,9963,-0.286987,-0.949707,-0.274170,506
40989458,9996,-0.287354,-0.942139,-0.275513,509
40999455,9997,-0.288696,-0.941406,-0.275146,506
41009460,10005,-0.288940,-0.942505,-0.275269,509
41019457,9997,-0.289307,-0.941650,-0.274902,509
41029461,10004,-0.289673,-0.942383,-0.273804,502
41039459,9998,-0.292603,-0.942749,-0.274658,506
41049459,10000,-0.291626,-0.943848,-0.275391,505
41059460,10001,-0.291504,-0.943604,-0.275879,499
41069467,10007,-0.289307,-0.941650,-0.275635,502
41079471,10004,-0.287964,-0.940308,-0.275146,507
41089457,9986,-0.286011,-0.942383,-0.276123,502
41099481,10024,-0.287109,-0.947021,-0.275635,508
41109464,9983,-0.289429,-0.948975,-0.275513,508
41119469,10005,-0.290161,-0.949707,-0.272949,507
41129455,9986,-0.290894,-0.947876,-0.274414,506
41139456,10001,-0.291748,-0.945312,-0.272827,502
41149460,10004,-0.290405,-0.943604,-0.270142,505
41159475,10015,-0.288086,-0.945557,-0.269409,506
41169456,9981,-0.287720,-0.947021,-0.270020,506
41179455,9999,-0.288452,-0.946533,-0.269897,501
41189460,10005,-0.288818,-0.944092,-0.270752,502
41199468,10008,-0.290405,-0.939819,-0.274658,493
41209455,9987,-0.291382,-0.938232,-0.273560,499
41219459,10004,-0.290283,-0.938965,-0.275024,502
41229461,10002,-0.290527,-0.942017,-0.276978,502
41239452,9991,-0.290161,-0.945068,-0.277710,504
41249473,10021,-0.289673,-0.944824,-0.277710,506
41259467,9994,-0.287476,-0.942749,-0.274780,505
41269467,10000,-0.287964,-0.944336,-0.276123,514
41279474,10007,-0.287964,-0.946899,-0.275391,516
41289458,9984,-0.288330,-0.947021,-0.275391,522
41299466,10008,-0.286865,-0.945679,-0.275146,532
41309456,9990,-0.288330,-0.944458,-0.272095,536
41319457,10001,-0.289063,-0.946899,-0.272095,541
41329469,10012,-0.289185,-0.947998,-0.271851,546
41339450,9981,-0.288452,-0.947144,-0.270508,547
41349467,10017,-0.290405,-0.946289,-0.270752,548
41359459,9992,-0.290894,-0.944336,-0.271606,549
41369504,10045,-0.291748,-0.941406,-0.271240,541
41379472,9968,-0.291992,-0.939209,-0.271118,541
41389463,9991,-0.290894,-0.940063,-0.271484,544
41399464,10001,-0.289795,-0.942871,-0.272339,539
41409475,10011,-0.288940,-0.942871,-0.270752,539
41419474,9999,-0.287842,-0.948730,-0.272827,536
41429450,9976,-0.287964,-0.950562,-0.272583,529
41439456,10006,-0.287476,-0.949951,-0.273682,531
41449477,10021,-0.286621,-0.948853,-0.273560,530
41459468,9991,-0.286255,-0.945923,-0.275146,529
41469462,9994,-0.287598,-0.944702,-0.276245,521
41479467,10005,-0.288452,-0.943481,-0.276733,523
41489464,9997,-0.289429,-0.942871,-0.275024,524
41499453,9989,-0.291382,-0.940918,-0.274536,521
41509455,10002,-0.290894,-0.939453,-0.273682,519
41519459,10004,-0.290771,-0.940186,-0.272583,513
41529457,9998,-0.289429,-0.942505,-0.272217,515
41539478,10021,-0.289917,-0.942505,-0.270996,509
41553659,14181,-0.288940,-0.947266,-0.267578,513
41560282,6623,0.000000,0.000000,0.000000,510
41569472,9190,-0.288940,-0.948242,-0.266968,508
41579458,9986,-0.288208,-0.950317,-0.270752,507
41589457,9999,-0.288696,-0.947876,-0.273315,511
41599454,9997,-0.288818,-0.944702,-0.273926,516
41609453,9999,-0.289063,-0.943237,-0.275146,516
41619465,10012,-0.288330,-0.942871,-0.274658,519
41629475,10010,-0.289795,-0.943970,-0.276367,519
41639477,10002,-0.289063,-0.942993,-0.277344,520
41649480,10003,-0.289307,-0.942871,-0.275757,519
41659451,9971,-0.289063,-0.942749,-0.274048,518
41669472,10021,-0.289429,-0.942871,-0.273071,513
41679470,9998,-0.288086,-0.944336,-0.270874,516
41689460,9990,-0.287964,-0.946899,-0.269287,514
41699465,10005,-0.290039,-0.946777,-0.267700,507
41709451,9986,-0.291626,-0.943359,-0.267212,512
41719454,10003,-0.290527,-0.943359,-0.268311,505
41729479,10025,-0.289917,-0.943237,-0.269287,504
41739465,9986,-0.290894,-0.943359,-0.268311,507
41749479,10014,-0.291138,-0.945190,-0.269409,499
41759472,9993,-0.290405,-0.945312,-0.270386,505
41769457,9985,-0.289063,-0.945679,-0.270142,506
41779476,10019,-0.289673,-0.946533,-0.270996,502
41789469,9993,-0.289795,-0.946899,-0.271362,505
41799481,10012,-0.288818,-0.946411,-0.272583,499
41809454,9973,-0.290039,-0.948242,-0.272095,505
41819474,10020,-0.288818,-0.947144,-0.272583,504
41829467,9993,-0.287231,-0.946045,-0.274048,507
41839477,10010,-0.285645,-0.945435,-0.273926,510
41849469,9992,-0.286621,-0.944092,-0.273682,510
41859466,9997,-0.290039,-0.942139,-0.273315,504
41869471,10005,-0.292236,-0.940552,-0.273315,507
41879451,9980,-0.294067,-0.941772,-0.272095,501
41889451,10000,-0.294067,-0.945679,-0.271362,507
41899471,10020,-0.289795,-0.947632,-0.267334,506
41909458,9987,-0.286621,-0.947144,-0.266479,507
41919461,10003,-0.285400,-0.949951,-0.266724,502
41929460,9999,-0.284058,-0.950439,-0.268677,503
41939472,10012,-0.285522,-0.950684,-0.269531,504
41949464,9992,-0.289185,-0.942505,-0.270020,496
41959475,10011,-0.291138,-0.939819,-0.272705,496
41969472,9997,-0.291016,-0.939575,-0.273438,503
41979465,9993,-0.290894,-0.939575,-0.275269,499
41989473,10008,-0.291992,-0.940308,-0.275391,505
41999452,9979,-0.292358,-0.942017,-0.274536,505
42009504,10052,-0.289185,-0.942505,-0.273682,504
42019466,9962,-0.288452,-0.943481,-0.272461,510
42029469,10003,-0.287231,-0.945435,-0.272583,515
42039465,9996,-0.287231,-0.944336,-0.272705,513
42049494,10029,-0.287109,-0.945801,-0.270508,524
42059452,9958,-0.286865,-0.948975,-0.270386,532
42069450,9998,-0.287476,-0.949951,-0.271240,529
42079460,10010,-0.289063,-0.950195,-0.270996,541
42089453,9993,-0.289795,-0.948608,-0.270142,545
42099478,10025,-0.289307,-0.945679,-0.270386,548
42109476,9998,-0.290161,-0.946411,-0.270142,550
42119474,9998,-0.290649,-0.946167,-0.269653,550
42129463,9989,-0.290405,-0.944336,-0.270264,545
42139495,10032,-0.290161,-0.943848,-0.270020,547
42149456,9961,-0.289429,-0.941650,-0.269531,543
42159476,10020,-0.288940,-0.940430,-0.267944,540
42169451,9975,-0.290039,-0.944336,-0.269531,536
42179467,10016,-0.289551,-0.947144,-0.270630,537
42189473,10006,-0.287842,-0.949341,-0.272461,533
42199473,10000,-0.288086,-0.948120,-0.272583,526
42209454,9981,-0.289551,-0.944824,-0.273071,530
42219465,10011,-0.288208,-0.944702,-0.275024,525
42229470,10005,-0.287231,-0.945801,-0.274780,521
42239466,9996,-0.287964,-0.945679,-0.276978,523
42249476,10010,-0.288330,-0.945190,-0.275024,515
42259465,9989,-0.288330,-0.943115,-0.273071,518
42269451,9986,-0.289185,-0.943970,-0.272705,516
42279475,10024,-0.288208,-0.946167,-0.271118,515
42289468,9993,-0.287842,-0.947998,-0.270386,512
42299493,10025,-0.287720,-0.945923,-0.270996,508
42309454,9961,-0.289063,-0.944824,-0.270142,511
42319470,10016,-0.289429,-0.946655,-0.269653,506
42329459,9989,-0.289307,-0.944702,-0.270020,510
42339459,10000,-0.289551,-0.944946,-0.269043,513
42349478,10019,-0.288696,-0.945557,-0.268799,509
42359456,9978,-0.289185,-0.945557,-0.269653,508
42369460,10004,-0.289795,-0.945312,-0.270020,516
42379476,10016,-0.290405,-0.945801,-0.269287,511
42389503,10027,-0.290039,-0.945923,-0.268433,516
42399476,9973,-0.288574,-0.945801,-0.269165,511
42409461,9985,-0.288330,-0.945679,-0.270630,516
42419461,10000,-0.288086,-0.945679,-0.271118,512
42429463,10002,-0.286743,-0.947998,-0.272095,513
42439456,9993,-0.285889,-0.948608,-0.272705,510
42449478,10022,-0.285278,-0.948853,-0.274658,513
42459477,9999,-0.285889,-0.949097,-0.272705,514
42469457,9980,-0.287231,-0.947144,-0.273071,512
42479475,10018,-0.288818,-0.944458,-0.271851,512
42489457,9982,-0.290405,-0.943359,-0.270996,511
42499474,10017,-0.289429,-0.942871,-0.271606,511
42509474,10000,-0.289551,-0.941284,-0.270996,509
42519477,10003,-0.289917,-0.940430,-0.270142,507
42529461,9984,-0.290039,-0.941772,-0.270386,507
42539458,9997,-0.287598,-0.944336,-0.270142,505
42549469,10011,-0.288574,-0.946777,-0.269775,504
42559455,9986,-0.288330,-0.948608,-0.269653,498
42569472,10017,-0.286987,-0.949951,-0.270874,504
42579466,9994,-0.285522,-0.948120,-0.271606,506
42589467,10001,-0.285767,-0.948853,-0.271118,506
42599461,9994,-0.286377,-0.949707,-0.271240,506
42609459,9998,-0.286743,-0.948364,-0.272461,504
42619474,10015,-0.290039,-0.944702,-0.273438,502
42629473,9999,-0.291016,-0.942261,-0.271484,503
42639454,9981,-0.293091,-0.940796,-0.272217,501
42649466,10012,-0.291870,-0.944946,-0.271851,505
42659459,9993,-0.289185,-0.946533,-0.268677,507
42669465,10006,-0.284668,-0.946167,-0.268799,501
42679465,10000,-0.283081,-0.942871,-0.269287,503
42689494,10029,-0.283325,-0.944458,-0.269531,505
42699455,9961,-0.286499,-0.945068,-0.268677,503
42709478,10023,-0.288818,-0.943481,-0.268921,506
42719451,9973,-0.290405,-0.943726,-0.269531,499
42729471,10020,-0.290894,-0.944702,-0.269165,506
42739451,9980,-0.292603,-0.947754,-0.268799,502
42749462,10011,-0.293579,-0.947144,-0.270874,505
42759467,10005,-0.291138,-0.942261,-0.270874,505
42769455,9988,-0.288086,-0.942383,-0.270874,509
42779469,10014,-0.288208,-0.944702,-0.272095,511
42789481,10012,-0.285400,-0.945312,-0.273071,520
42799457,9976,-0.284668,-0.947388,-0.273071,524
42809475,10018,-0.282471,-0.949585,-0.273315,529
42819454,9979,-0.285034,-0.947754,-0.272095,533
42829492,10038,-0.285889,-0.946289,-0.272095,536
42839454,9962,-0.288574,-0.945312,-0.272217,540
42849463,10009,-0.289429,-0.944092,-0.272339,552
42859453,9990,-0.291382,-0.941406,-0.270874,551
42869456,10003,-0.289917,-0.940918,-0.269409,552
42879457,10001,-0.290894,-0.940796,-0.268433,552
42889471,10014,-0.290283,-0.944092,-0.267212,550
42899460,9989,-0.290039,-0.946167,-0.267578,544
42909477,10017,-0.288208,-0.948853,-0.266846,544
42919465,9988,-0.284546,-0.951782,-0.267578,536
42929451,9986,-0.284058,-0.951050,-0.267212,536
42939457,10006,-0.284790,-0.950317,-0.269165,533
42949451,9994,-0.286133,-0.951050,-0.270264,527
42959464,10013,-0.286865,-0.950684,-0.268799,523
42969459,9995,-0.289673,-0.942871,-0.268921,527
42979477,10018,-0.290771,-0.942993,-0.269043,522
42989453,9976,-0.291626,-0.942017,-0.270386,520
42999467,10014,-0.290405,-0.940308,-0.269775,515
43009461,9994,-0.290771,-0.939819,-0.271240,511
43019478,10017,-0.290405,-0.943115,-0.272095,510
43029450,9972,-0.286377,-0.944214,-0.270386,514
43039456,10006,-0.285156,-0.946899,-0.268188,513
43049454,9998,-0.286499,-0.951294,-0.267456,515
43059491,10037,-0.285034,-0.954590,-0.268677,519
43069457,9966,-0.287842,-0.956909,-0.269531,519
43079473,10016,-0.287476,-0.949219,-0.270874,513
43089458,9985,-0.289673,-0.944946,-0.268677,514
43099450,9992,-0.290039,-0.943359,-0.269043,518
43109453,10003,-0.291992,-0.942383,-0.269531,517
43119455,10002,-0.291748,-0.942627,-0.268188,521
43129450,9995,-0.291260,-0.942139,-0.266602,520
43139473,10023,-0.289429,-0.942261,-0.267822,517
43149471,9998,-0.287354,-0.942627,-0.268677,513
43159465,9994,-0.286011,-0.944214,-0.268188,520
43169470,10005,-0.285522,-0.945435,-0.269653,518
43179451,9981,-0.286133,-0.947998,-0.270630,510
43192312,12861,-0.286133,-0.949341,-0.272339,510
43199466,7154,-0.286133,-0.948242,-0.273438,518
43209467,10001,-0.286133,-0.947632,-0.271973,514
43219455,9988,-0.286865,-0.948242,-0.271362,516
43229480,10025,-0.289429,-0.949463,-0.271729,511
43239470,9990,-0.290161,-0.945435,-0.271118,517
43249471,10001,-0.289307,-0.939819,-0.270508,509
43259457,9986,-0.289917,-0.937866,-0.270020,506
43269466,10009,-0.289917,-0.938232,-0.269043,510
43279467,10001,-0.290649,-0.941650,-0.268799,508
43289454,9987,-0.290405,-0.945801,-0.268799,508
43299468,10014,-0.289063,-0.944946,-0.267822,501
43309469,10001,-0.288330,-0.945190,-0.267456,505
43319461,9992,-0.286255,-0.946533,-0.266846,505
43329470,10009,-0.285767,-0.947876,-0.267212,503
43339468,9998,-0.288330,-0.949097,-0.269409,505
43349464,9996,-0.292480,-0.946045,-0.270264,498
43359488,10024,-0.292725,-0.944092,-0.271362,503
43369455,9967,-0.292603,-0.944214,-0.270020,507
43379471,10016,-0.292114,-0.944336,-0.270264,504
43389464,9993,-0.289551,-0.944824,-0.270752,500
43399465,10001,-0.285645,-0.945312,-0.269775,505
43409454,9989,-0.284180,-0.947510,-0.269653,509
43419470,10016,-0.284058,-0.945679,-0.270996,506
43429460,9990,-0.285034,-0.945068,-0.270630,505
43439463,10003,-0.286865,-0.943726,-0.272095,503
43449469,10006,-0.289429,-0.942017,-0.269775,504
43459460,9991,-0.290771,-0.944336,-0.269287,502
43469455,9995,-0.290894,-0.947144,-0.268555,501
43479469,10014,-0.290405,-0.950073,-0.268433,498
43489469,10000,-0.291870,-0.949097,-0.267822,506
43499458,9989,-0.292480,-0.947021,-0.268311,506
43509470,10012,-0.290283,-0.945801,-0.267212,513
43519478,10008,-0.289551,-0.942993,-0.267822,517
43529460,9982,-0.288574,-0.944458,-0.266846,523
43539464,10004,-0.288086,-0.946045,-0.265869,528
43549468,10004,-0.287842,-0.948486,-0.265503,530
43559471,10003,-0.289185,-0.949951,-0.266235,533
43569500,10029,-0.289429,-0.948730,-0.266357,544
43579450,9950,-0.289429,-0.946899,-0.267822,549
43589477,10027,-0.289795,-0.945801,-0.268188,550
43599465,9988,-0.290039,-0.943115,-0.269897,554
43609458,9993,-0.291016,-0.941895,-0.270142,546
43619478,10020,-0.292236,-0.942993,-0.271240,545
43629465,9987,-0.290405,-0.941406,-0.271118,547
43639461,9996,-0.289307,-0.942139,-0.271729,550
43649454,9993,-0.288696,-0.945312,-0.271729,544
43659473,10019,-0.287842,-0.946899,-0.270630,540
43669471,9998,-0.287354,-0.950073,-0.269287,536
43679473,10002,-0.286499,-0.951294,-0.268066,534
43689466,9993,-0.286743,-0.950806,-0.269165,526
43699464,9998,-0.287109,-0.950439,-0.270264,527
43709476,10012,-0.288208,-0.947510,-0.270996,519
43719451,9975,-0.289307,-0.942749,-0.268066,522
43729463,10012,-0.291504,-0.942505,-0.268677,516
43739482,10019,-0.291870,-0.942749,-0.267700,510
43749452,9970,-0.291382,-0.942627,-0.267334,513
43759451,9999,-0.292969,-0.942627,-0.268555,510
43769470,10019,-0.290039,-0.942261,-0.267578,505
43779479,10009,-0.290283,-0.944580,-0.267456,507
43789471,9992,-0.290649,-0.947510,-0.268433,509
43799475,10004,-0.289307,-0.947388,-0.270752,510
43809472,9997,-0.288696,-0.948364,-0.270020,510
43819502,10030,-0.288696,-0.948120,-0.269897,507
43829462,9960,-0.288452,-0.948120,-0.271484,511
43839456,9994,-0.288574,-0.947998,-0.272827,513
43849456,10000,-0.288452,-0.948975,-0.271240,517
43859464,10008,-0.287842,-0.947388,-0.271118,520
43869470,10006,-0.288574,-0.946167,-0.270142,514
43879453,9983,-0.290283,-0.941406,-0.268921,518
43889472,10019,-0.291138,-0.941528,-0.269775,515
43899457,9985,-0.293335,-0.942139,-0.269409,510
43909450,9993,-0.293091,-0.942627,-0.266724,514
43919459,10009,-0.292114,-0.944336,-0.266479,510
43929469,10010,-0.290771,-0.945435,-0.267456,504
43939479,10010,-0.288940,-0.945679,-0.267334,510
43949496,10017,-0.287231,-0.946045,-0.267212,507
43959464,9968,-0.286865,-0.947266,-0.268677,507
43969456,9992,-0.287231,-0.948853,-0.269531,499
43979475,10019,-0.287354,-0.948486,-0.270386,505
43989452,9977,-0.289307,-0.947021,-0.270264,501
43999452,10000,-0.290161,-0.947998,-0.270020,506
44009469,10017,-0.291016,-0.946167,-0.269775,506
44019459,9990,-0.291748,-0.945190,-0.268433,499
44029475,10016,-0.291992,-0.943115,-0.266602,503
44039460,9985,-0.293457,-0.942261,-0.268555,499
44049470,10010,-0.289795,-0.942261,-0.269165,503
44059454,9984,-0.287720,-0.942383,-0.269897,500
44069479,10025,-0.286865,-0.941772,-0.268555,500
44079458,9979,-0.287354,-0.946289,-0.269653,494
44089478,10020,-0.289429,-0.947021,-0.270996,500
44099479,10001,-0.292114,-0.947998,-0.271240,498
44109467,9988,-0.292480,-0.950195,-0.269775,502
44119484,10017,-0.290771,-0.948975,-0.270142,499
44129458,9974,-0.290039,-0.948120,-0.267700,503
44139475,10017,-0.288818,-0.947021,-0.267822,502
44149478,10003,-0.285767,-0.945190,-0.268677,496
44159452,9974,-0.287598,-0.942261,-0.269531,502
44169479,10027,-0.288208,-0.940796,-0.268311,501
44179458,9979,-0.290161,-0.938110,-0.268066,499
44189480,10022,-0.292114,-0.940430,-0.268921,495
44199465,9985,-0.292114,-0.943604,-0.270386,497
44209469,10004,-0.291138,-0.945312,-0.269653,493
44219464,9995,-0.291626,-0.945679,-0.270630,496
44229472,10008,-0.290649,-0.947021,-0.271362,498
44239451,9979,-0.289673,-0.948242,-0.271729,500
44249482,10031,-0.288574,-0.947876,-0.270630,507
44259475,9993,-0.288452,-0.945801,-0.270020,514
44269476,10001,-0.288940,-0.943604,-0.268799,519
44279466,9990,-0.288330,-0.944336,-0.269531,519
44289453,9987,-0.289551,-0.944702,-0.269165,531
44299465,10012,-0.290649,-0.943481,-0.268433,533
44309478,10013,-0.291016,-0.946411,-0.267334,533
44319455,9977,-0.291260,-0.945190,-0.267456,540
44329450,9995,-0.290405,-0.944458,-0.268066,542
44339479,10029,-0.290039,-0.944702,-0.266968,540
44349472,9993,-0.289185,-0.945190,-0.268677,544
44359477,10005,-0.290283,-0.946167,-0.270142,545
44369462,9985,-0.289185,-0.948242,-0.270142,543
44379453,9991,-0.287720,-0.948242,-0.271362,542
44389451,9998,-0.288574,-0.947998,-0.270386,540
44399452,10001,-0.289429,-0.949097,-0.269531,533
44409459,10007,-0.289673,-0.946533,-0.270020,532
44419456,9997,-0.289917,-0.943604,-0.268433,530
44429479,10023,-0.291138,-0.944214,-0.267700,524
44439469,9990,-0.291260,-0.943115,-0.267456,518
44449458,9989,-0.291992,-0.942993,-0.265747,518
44459479,10021,-0.292969,-0.944458,-0.265747,512
44469461,9982,-0.291504,-0.946289,-0.265259,510
44479460,9999,-0.291382,-0.945679,-0.266846,507
44489465,10005,-0.289429,-0.945190,-0.267212,503
44499477,10012,-0.289673,-0.945312,-0.267334,502
44509456,9979,-0.289673,-0.944458,-0.269409,510
44519460,10004,-0.289185,-0.944458,-0.268433,503
44529475,10015,-0.290771,-0.945801,-0.266724,501
44539462,9987,-0.290527,-0.948364,-0.266846,511
44549460,9998,-0.290283,-0.950439,-0.266846,512
44559457,9997,-0.290283,-0.950195,-0.266968,513
44571693,12236,-0.291382,-0.943970,-0.264771,513
44579497,7804,-0.291870,-0.943481,-0.266235,512
44589461,9964,-0.289795,-0.944092,-0.265869,512
44599477,10016,-0.289917,-0.946167,-0.265381,514
44609455,9978,-0.289429,-0.950439,-0.265869,513
44619476,10021,-0.289063,-0.949951,-0.267090,510
44629454,9978,-0.289307,-0.947388,-0.268433,514
44639465,10011,-0.288696,-0.946777,-0.269043,509
44649473,10008,-0.288574,-0.946777,-0.270752,512
44659474,10001,-0.287476,-0.945801,-0.270386,510
44669479,10005,-0.289307,-0.945679,-0.269531,508
44679467,9988,-0.288330,-0.945801,-0.268555,511
44689474,10007,-0.289185,-0.945312,-0.266846,508
44699496,10022,-0.289307,-0.945435,-0.266846,507
44709478,9982,-0.291382,-0.943726,-0.266235,509
44719465,9987,-0.291504,-0.944580,-0.265991,506
44729456,9991,-0.290649,-0.945557,-0.265991,501
44739480,10024,-0.290161,-0.946655,-0.266724,502
44749474,9994,-0.291016,-0.946167,-0.266357,500
44759454,9980,-0.291016,-0.945923,-0.267334,497
44769479,10025,-0.290771,-0.944458,-0.268311,499
44779465,9986,-0.290283,-0.946777,-0.270386,498
44789471,10006,-0.289063,-0.946045,-0.269897,497
44799457,9986,-0.289185,-0.946533,-0.269531,501
44809472,10015,-0.289307,-0.946655,-0.270508,501
44819471,9999,-0.290161,-0.946045,-0.270020,499
44829478,10007,-0.290039,-0.948120,-0.269653,500
44839479,10001,-0.286499,-0.944580,-0.270264,497
44849469,9990,-0.287964,-0.944580,-0.269165,502
44859463,9994,-0.290405,-0.944214,-0.267578,496
44869473,10010,-0.293579,-0.942261,-0.267334,496
44879452,9979,-0.294678,-0.940430,-0.266968,500
44889453,10001,-0.297974,-0.942749,-0.268799,499
44899474,10021,-0.294800,-0.945435,-0.266113,494
44909455,9981,-0.290771,-0.943481,-0.264282,493
44919459,10004,-0.288940,-0.944580,-0.262939,496
44929468,10009,-0.288574,-0.947754,-0.265381,491
44939459,9991,-0.286499,-0.949341,-0.268677,496
44949464,10005,-0.288696,-0.947632,-0.267212,490
44959503,10039,-0.289551,-0.944580,-0.267944,495
44969466,9963,-0.291382,-0.942383,-0.268921,488
44979464,9998,-0.293091,-0.942993,-0.269897,488
44989459,9995,-0.293701,-0.942871,-0.270508,495
44999453,9994,-0.293457,-0.942261,-0.270996,495
45009463,10010,-0.291626,-0.941895,-0.269897,489
45019463,10000,-0.290771,-0.939819,-0.269653,497
45029460,9997,-0.290894,-0.942749,-0.270264,502
45039457,9997,-0.288940,-0.944946,-0.270264,503
45049456,9999,-0.287231,-0.946899,-0.269409,512
45059468,10012,-0.287964,-0.949219,-0.266357,518
45069464,9996,-0.288330,-0.950439,-0.264893,523
45079466,10002,-0.289063,-0.952515,-0.266357,528
45089450,9984,-0.289063,-0.953003,-0.266235,534
45099458,10008,-0.289673,-0.950073,-0.266968,534
45109478,10020,-0.292603,-0.943237,-0.264404,539
45119456,9978,-0.293091,-0.942139,-0.264771,542
45129477,10021,-0.293457,-0.942261,-0.266968,543
45139476,9999,-0.293701,-0.943726,-0.267822,542
45149463,9987,-0.292725,-0.945435,-0.269775,540
45159468,10005,-0.291870,-0.942749,-0.268311,536
45169455,9987,-0.288208,-0.944824,-0.268677,536
45179468,10013,-0.286621,-0.948730,-0.268677,533
45189469,10001,-0.286133,-0.951904,-0.267700,526
45199470,10001,-0.286865,-0.953613,-0.266968,525
45209450,9980,-0.287354,-0.953125,-0.269165,526
45219473,10023,-0.287231,-0.948608,-0.267456,521
45229461,9988,-0.289185,-0.948486,-0.266479,518
45239463,10002,-0.290894,-0.948730,-0.265259,510
45249452,9989,-0.292725,-0.946411,-0.265503,513
45259461,10009,-0.294067,-0.943359,-0.263550,511
45269477,10016,-0.293823,-0.937988,-0.264771,507
45279465,9988,-0.292725,-0.938965,-0.264893,499
45289476,10011,-0.292358,-0.941650,-0.264893,505
45299469,9993,-0.289307,-0.944336,-0.264282,504
45309493,10024,-0.287720,-0.946655,-0.265259,505
45319460,9967,-0.286377,-0.950439,-0.269287,502
45329466,10006,-0.285522,-0.952148,-0.268433,511
45339467,10001,-0.286255,-0.951172,-0.270142,510
45349493,10026,-0.287598,-0.950562,-0.269287,510
45359477,9984,-0.288452,-0.949341,-0.268433,512
45369475,9998,-0.290039,-0.949097,-0.267700,513
45379476,10001,-0.291260,-0.946045,-0.269165,514
45389477,10001,-0.290649,-0.942505,-0.269775,512
45399466,9989,-0.291260,-0.940063,-0.267944,512
45409465,9999,-0.291138,-0.940186,-0.266724,503
45419469,10004,-0.290527,-0.941650,-0.265991,509
45429452,9983,-0.288940,-0.944824,-0.265747,506
45439469,10017,-0.288574,-0.948364,-0.266113,507
45449468,9999,-0.287231,-0.951660,-0.265381,500
45459451,9983,-0.285522,-0.951050,-0.266113,501
45469465,10014,-0.286987,-0.949097,-0.266235,503
45479470,10005,-0.289063,-0.946899,-0.268433,504
45489456,9986,-0.288940,-0.946411,-0.268921,497
45499469,10013,-0.289307,-0.945190,-0.268799,500
45509456,9987,-0.290527,-0.942749,-0.267212,498
45519469,10013,-0.291016,-0.943481,-0.266724,498
45529461,9992,-0.291138,-0.945190,-0.266968,498
45539487,10026,-0.289307,-0.947510,-0.267090,495
45549456,9969,-0.288818,-0.948364,-0.266968,496
45559460,10004,-0.289307,-0.949219,-0.265381,496
45573755,14295,-0.287598,-0.948853,-0.266357,496
45579652,5897,0.000000,0.000000,0.000000,495
45589467,9815,-0.290283,-0.945068,-0.267700,493
45599464,9997,-0.290527,-0.943481,-0.267334,495
45609462,9998,-0.291138,-0.942261,-0.268188,494
45619462,10000,-0.289673,-0.942261,-0.269287,495
45629456,9994,-0.289917,-0.941528,-0.271240,497
45639467,10011,-0.287964,-0.944458,-0.269409,495
45649503,10036,-0.285278,-0.945312,-0.268311,498
45659474,9971,-0.285400,-0.944580,-0.266724,493
45669469,9995,-0.286133,-0.946289,-0.267578,497
45679462,9993,-0.287964,-0.948853,-0.267212,495
45689453,9991,-0.290405,-0.950439,-0.268555,495
45699451,9998,-0.293701,-0.947998,-0.265503,497
45709459,10008,-0.293945,-0.946899,-0.262573,499
45719463,10004,-0.291748,-0.949219,-0.261963,484
45729478,10015,-0.288086,-0.946167,-0.262695,489
45739461,9983,-0.285522,-0.946045,-0.262939,498
45749470,10009,-0.283691,-0.946167,-0.265137,496
45759461,9991,-0.284058,-0.944702,-0.265015,497
45769467,10006,-0.286987,-0.943970,-0.263550,494
45779467,10000,-0.290527,-0.944092,-0.263672,494
45789464,9997,-0.291016,-0.945557,-0.263916,493
45799464,10000,-0.292969,-0.949463,-0.263672,494
45809473,10009,-0.292480,-0.949463,-0.263916,496
45819473,10000,-0.292480,-0.947388,-0.263306,495
45829454,9981,-0.291748,-0.945435,-0.265991,494
45839468,10014,-0.289673,-0.944702,-0.266846,500
45849456,9988,-0.289063,-0.943604,-0.266602,499
45859473,10017,-0.285522,-0.947876,-0.265869,520
45869467,9994,-0.284424,-0.949707,-0.266724,513
45879488,10021,-0.284302,-0.952393,-0.266724,519
45889479,9991,-0.286133,-0.953369,-0.267090,525
45899454,9975,-0.286987,-0.948730,-0.266602,529
45909478,10024,-0.287842,-0.944702,-0.265503,534
45919452,9974,-0.288574,-0.943726,-0.263550,536
45929466,10014,-0.290283,-0.945312,-0.261719,540
45939467,10001,-0.291382,-0.946655,-0.261963,540
45949474,10007,-0.293701,-0.946045,-0.264160,533
45959451,9977,-0.291748,-0.942017,-0.263062,536
45969462,10011,-0.290771,-0.942383,-0.263916,532
45979476,10014,-0.288086,-0.945190,-0.263428,529
45989462,9986,-0.287231,-0.950073,-0.264038,528
45999453,9991,-0.287476,-0.953369,-0.265747,526
46009452,9999,-0.285889,-0.953369,-0.264893,521
46019467,10015,-0.286499,-0.951294,-0.266113,523
46029469,10002,-0.286377,-0.948486,-0.265991,518
46039489,10020,-0.286743,-0.945801,-0.266602,518
46049458,9969,-0.287964,-0.946289,-0.266602,517
46059475,10017,-0.288818,-0.944092,-0.266846,512
46069472,9997,-0.290039,-0.942139,-0.266357,508
46079459,9987,-0.288452,-0.941040,-0.263306,511
46089472,10013,-0.290283,-0.943848,-0.262695,507
46099472,10000,-0.289795,-0.947266,-0.263428,507
46109500,10028,-0.288574,-0.948730,-0.264160,505
46119464,9964,-0.288574,-0.950562,-0.262939,500
46129473,10009,-0.288818,-0.952271,-0.260864,500
46139453,9980,-0.288086,-0.951294,-0.261597,500
46149452,9999,-0.287354,-0.950928,-0.261475,504
46159479,10027,-0.286377,-0.949951,-0.261230,506
46169467,9988,-0.286377,-0.947266,-0.264160,508
46179465,9998,-0.289429,-0.946899,-0.265137,502
46189455,9990,-0.290405,-0.947266,-0.265747,509
46199463,10008,-0.290283,-0.947388,-0.266113,513
46209464,10001,-0.288330,-0.944946,-0.265137,510
46219470,10006,-0.287476,-0.943848,-0.263672,511
46229502,10032,-0.288330,-0.947388,-0.265747,506
46239459,9957,-0.288086,-0.948364,-0.266602,512
46249461,10002,-0.287598,-0.949341,-0.266235,512
46259468,10007,-0.287720,-0.949341,-0.265869,511
46269476,10008,-0.287231,-0.947632,-0.264404,505
46279486,10010,-0.288818,-0.948242,-0.262573,511
46289469,9983,-0.288696,-0.946289,-0.263672,507
46299461,9992,-0.288940,-0.947266,-0.263550,509
46309472,10011,-0.289307,-0.946289,-0.264771,502
46319460,9988,-0.289307,-0.945068,-0.265625,506
46329461,10001,-0.289673,-0.944946,-0.264648,507
46339471,10010,-0.288330,-0.946045,-0.263672,503
46349476,10005,-0.288086,-0.947266,-0.263672,502
46359468,9992,-0.286865,-0.947754,-0.263672,503
46369469,10001,-0.287354,-0.949707,-0.262817,502
46379452,9983,-0.288940,-0.950684,-0.264282,501
46389472,10020,-0.288818,-0.948120,-0.265381,501
46399455,9983,-0.290161,-0.945435,-0.265259,500
46409474,10019,-0.290039,-0.944824,-0.265869,503
46419450,9976,-0.287842,-0.943604,-0.266968,500
46429452,10002,-0.286377,-0.942749,-0.267822,503
46439466,10014,-0.289551,-0.945435,-0.266602,502
46449462,9996,-0.289917,-0.946777,-0.266602,499
46459466,10004,-0.290527,-0.947754,-0.266235,501
46469468,10002,-0.292114,-0.949097,-0.263306,495
46479460,9992,-0.292603,-0.949463,-0.263550,499
46489455,9995,-0.291138,-0.950195,-0.259888,497
46499474,10019,-0.287354,-0.950195,-0.261230,498
46509462,9988,-0.286133,-0.950562,-0.261841,498
46519452,9990,-0.285034,-0.947998,-0.261475,498
46529470,10018,-0.285767,-0.945312,-0.261475,492
46539450,9980,-0.287231,-0.942627,-0.262329,498
46549473,10023,-0.290161,-0.942261,-0.263306,490
46559474,10001,-0.290771,-0.941406,-0.264526,496
46569474,10000,-0.291260,-0.942993,-0.266113,496
46579663,10189,-0.292236,-0.944580,-0.267212,494
46589479,9816,-0.291138,-0.945801,-0.267578,494
46599476,9997,-0.289063,-0.950439,-0.267456,502
46609460,9984,-0.287720,-0.950562,-0.267334,506
46619471,10011,-0.285400,-0.951904,-0.266846,506
46629455,9984,-0.284180,-0.952271,-0.265747,508
46639464,10009,-0.284180,-0.951294,-0.264893,518
46649470,10006,-0.285278,-0.949829,-0.264648,522
46659467,9997,-0.289185,-0.945923,-0.262817,525
46669460,9993,-0.290405,-0.943481,-0.261353,531
46679462,10002,-0.289917,-0.942993,-0.260986,529
46689472,10010,-0.292603,-0.943359,-0.260132,536
46699479,10007,-0.293457,-0.943115,-0.260376,532
46709478,9999,-0.292725,-0.945679,-0.260010,536
46719467,9989,-0.291382,-0.945923,-0.262085,536
46729459,9992,-0.290649,-0.947144,-0.264038,530
46739474,10015,-0.289307,-0.947998,-0.265503,533
46749452,9978,-0.287720,-0.948120,-0.266357,534
46759466,10014,-0.285400,-0.951782,-0.266602,532
46769469,10003,-0.286377,-0.952637,-0.267456,531
46779458,9989,-0.286499,-0.950928,-0.267090,524
46789478,10020,-0.289307,-0.948120,-0.265747,527
46799463,9985,-0.289673,-0.946045,-0.266357,524
46809451,9988,-0.291138,-0.944824,-0.265625,512
46819471,10020,-0.291382,-0.945190,-0.263550,518
46829458,9987,-0.289917,-0.946045,-0.261597,513
46839475,10017,-0.289673,-0.946289,-0.261719,512
46849468,9993,-0.289673,-0.945679,-0.261108,511
46859455,9987,-0.289795,-0.945435,-0.261475,505
46869470,10015,-0.289307,-0.948853,-0.264038,508
46879461,9991,-0.289429,-0.948975,-0.265015,505
46889461,10000,-0.288330,-0.949585,-0.264648,502
46899452,9991,-0.287231,-0.948853,-0.265015,506
46909471,10019,-0.288086,-0.948120,-0.263550,509
46919472,10001,-0.289185,-0.947144,-0.263550,507
46929454,9982,-0.290527,-0.948608,-0.263672,511
46939459,10005,-0.289673,-0.949219,-0.262939,509
46949471,10012,-0.290283,-0.949341,-0.261230,508
46959496,10025,-0.291260,-0.945801,-0.259399,512
46969462,9966,-0.290649,-0.946045,-0.260010,512
46979474,10012,-0.289795,-0.945435,-0.261719,512
46989466,9992,-0.289307,-0.945557,-0.261108,508
46999478,10012,-0.289307,-0.946533,-0.262451,509
47009457,9979,-0.288208,-0.949097,-0.263184,509
47019455,9998,-0.288452,-0.950562,-0.263794,511
47029474,10019,-0.288452,-0.951172,-0.263916,512
47039454,9980,-0.286987,-0.950684,-0.265259,509
47049450,9996,-0.288452,-0.948975,-0.265625,512
47059458,10008,-0.287842,-0.945312,-0.264893,509
47069475,10017,-0.287842,-0.942505,-0.263794,508
47079470,9995,-0.289795,-0.945679,-0.262939,509
47089451,9981,-0.290894,-0.945923,-0.262207,507
47099464,10013,-0.291992,-0.945557,-0.261719,504
47109474,10010,-0.291138,-0.945190,-0.260986,503
47119451,9977,-0.291016,-0.944580,-0.261108,479
47129457,10006,-0.292236,-0.945312,-0.260986,499
47139454,9997,-0.291260,-0.947021,-0.261963,494
47149472,10018,-0.291992,-0.947388,-0.261230,501
47159470,9998,-0.289673,-0.949829,-0.261841,498
47169467,9997,-0.287354,-0.951294,-0.262695,499
47179456,9989,-0.285645,-0.950928,-0.263062,499
47189457,10001,-0.287109,-0.946289,-0.263672,500
47199464,10007,-0.289551,-0.944702,-0.263428,502
47209458,9994,-0.293091,-0.942993,-0.263306,502
47219456,9998,-0.294678,-0.943848,-0.261841,504
47229466,10010,-0.295410,-0.945801,-0.260742,498
47239468,10002,-0.292236,-0.946289,-0.259033,495
47249471,10003,-0.289673,-0.947998,-0.257690,501
47259450,9979,-0.287476,-0.949829,-0.257690,501
47269467,10017,-0.285767,-0.950928,-0.258301,498
47279473,10006,-0.286499,-0.951660,-0.260254,497
47289469,9996,-0.285522,-0.950317,-0.260864,500
47299477,10008,-0.288574,-0.946777,-0.261108,496
47309467,9990,-0.290283,-0.945679,-0.260620,495
47319457,9990,-0.292603,-0.946167,-0.260742,501
47329464,10007,-0.291992,-0.947266,-0.261353,500
47339466,10002,-0.292236,-0.947998,-0.262451,501
47349469,10003,-0.292236,-0.945190,-0.261841,498
47359490,10021,-0.292114,-0.942505,-0.262085,505
47369462,9972,-0.290405,-0.941406,-0.261597,507
47379464,10002,-0.289551,-0.939819,-0.262085,512
47389469,10005,-0.289063,-0.943359,-0.260620,514
47399471,10002,-0.287231,-0.954224,-0.257202,523
47409475,10004,-0.287354,-0.956055,-0.257568,525
47419466,9991,-0.286377,-0.954834,-0.256958,528
47429489,10023,-0.287964,-0.951660,-0.257446,535
47439469,9980,-0.289917,-0.949097,-0.258667,537
47449461,9992,-0.290894,-0.945557,-0.258545,534
47459466,10005,-0.292969,-0.946899,-0.259521,542
47469470,10004,-0.292480,-0.948120,-0.258667,544
47479462,9992,-0.292480,-0.947144,-0.257935,539
47489464,10002,-0.291870,-0.946655,-0.257813,541
47499450,9986,-0.291382,-0.946777,-0.257080,538
47509457,10007,-0.289307,-0.949097,-0.258911,537
47519476,10019,-0.289185,-0.948730,-0.258301,530
47529455,9979,-0.290527,-0.947998,-0.258423,531
47539475,10020,-0.289429,-0.948853,-0.258423,527
47549480,10005,-0.288940,-0.949585,-0.257813,522
47559456,9976,-0.287598,-0.951782,-0.257813,518
47569470,10014,-0.288818,-0.951172,-0.258911,521
47583943,14473,-0.289429,-0.949585,-0.259155,516
47589956,6013,-0.289673,-0.946777,-0.259766,515
47599465,9509,-0.288818,-0.946411,-0.260864,515
47609469,10004,-0.289673,-0.945923,-0.260864,513
47619451,9982,-0.289673,-0.948242,-0.259521,507
47629475,10024,-0.289429,-0.949097,-0.258667,507
47639479,10004,-0.288330,-0.950806,-0.257446,511
47649455,9976,-0.288574,-0.952148,-0.257690,512
47659476,10021,-0.288330,-0.952393,-0.256104,506
47669457,9981,-0.290649,-0.946655,-0.255615,511
47679471,10014,-0.291992,-0.946167,-0.257202,514
47689452,9981,-0.292603,-0.944824,-0.255859,510
47699461,10009,-0.290894,-0.942627,-0.256104,512
