t_us,dt_us,ax,ay,az,ppg
17933509,10002,-0.118530,-1.001587,0.153320,510
17943510,10001,-0.118408,-1.001099,0.153564,508
17953521,10011,-0.118774,-1.000977,0.152954,512
17963519,9998,-0.117676,-1.001465,0.152710,508
17973536,10017,-0.119019,-1.001465,0.153076,508
17983519,9983,-0.118164,-1.001343,0.152344,504
17993518,9999,-0.117676,-1.002197,0.151978,507
18003509,9991,-0.117432,-1.001953,0.153442,511
18013513,10004,-0.118530,-1.001343,0.154541,509
18023524,10011,-0.118530,-1.002075,0.153442,508
18033527,10003,-0.118774,-1.001587,0.152832,507
18043530,10003,-0.118530,-1.001587,0.153564,509
18053535,10005,-0.117676,-1.002808,0.152222,509
18063533,9998,-0.117676,-1.002319,0.152954,507
18073526,9993,-0.117676,-1.002441,0.153931,510
18083528,10002,-0.118286,-1.001831,0.153687,507
18093519,9991,-0.118774,-1.002197,0.152710,511
18103533,10014,-0.118164,-1.001953,0.153198,512
18113527,9994,-0.119873,-1.001587,0.153809,511
18123507,9980,-0.119141,-1.000977,0.153442,503
18133522,10015,-0.117798,-1.001099,0.152100,511
18143528,10006,-0.117188,-1.002075,0.153564,507
18153516,9988,-0.116455,-1.001953,0.152832,509
18163560,10044,-0.116333,-1.001953,0.153320,507
18173517,9957,-0.116455,-1.001343,0.153198,510
18183511,9994,-0.118408,-1.001831,0.154419,508
18193512,10001,-0.118652,-1.001099,0.152222,510
18203533,10021,-0.118042,-1.001221,0.152588,512
18213512,9979,-0.118652,-1.001709,0.153076,511
18223514,10002,-0.119263,-1.001465,0.153198,504
18233508,9994,-0.118652,-1.002075,0.152466,514
18243514,10006,-0.118286,-1.000977,0.153076,512
18253522,10008,-0.117798,-1.000854,0.153442,515
18263510,9988,-0.115845,-1.004395,0.153442,511
18273515,10005,-0.116211,-1.002930,0.153198,513
18283536,10021,-0.116699,-1.002319,0.154175,513
18293510,9974,-0.117188,-1.001587,0.154175,512
18303557,10047,-0.117920,-1.002197,0.153809,519
18313510,9953,-0.118774,-1.001831,0.152588,519
18323532,10022,-0.118042,-1.002075,0.151245,515
18333520,9988,-0.117920,-1.001953,0.152954,518
18343528,10008,-0.118408,-1.001831,0.153442,512
18353534,10006,-0.118164,-1.003174,0.152344,516
18363534,10000,-0.117310,-1.001587,0.152100,515
18373511,9977,-0.116943,-1.002319,0.154053,516
18383547,10036,-0.117310,-1.002075,0.152954,514
18393536,9989,-0.118408,-1.001953,0.153442,512
18403515,9979,-0.117310,-1.002319,0.152588,509
18413527,10012,-0.117432,-1.001587,0.152588,509
18423522,9995,-0.116333,-1.002197,0.153687,512
18433510,9988,-0.117310,-1.001221,0.152588,513
18443536,10026,-0.118042,-1.001343,0.152710,509
18453527,9991,-0.117432,-1.001465,0.153564,504
18463534,10007,-0.117920,-1.002319,0.154663,512
18473512,9978,-0.117798,-1.001831,0.151978,503
18483507,9995,-0.117065,-1.001465,0.152710,506
18493533,10026,-0.116943,-1.001465,0.153198,508
18503528,9995,-0.116821,-1.001465,0.153442,510
18513526,9998,-0.116821,-1.002319,0.153320,508
18523514,9988,-0.116333,-1.002686,0.153687,506
18533529,10015,-0.118042,-1.001099,0.153564,510
18543512,9983,-0.118652,-1.001221,0.153687,509
18553507,9995,-0.117920,-1.002197,0.153564,509
18563523,10016,-0.118042,-1.001465,0.152954,511
18573525,10002,-0.116699,-1.001831,0.153931,512
18583509,9984,-0.116943,-1.001099,0.154419,507
18593526,10017,-0.117920,-1.002563,0.152344,510
18603516,9990,-0.117432,-1.002563,0.153564,514
18613532,10016,-0.116821,-1.002563,0.153442,507
18623511,9979,-0.117676,-1.002197,0.154053,511
18633508,9997,-0.117065,-1.001465,0.153076,511
18643525,10017,-0.117554,-1.001465,0.152710,511
18653511,9986,-0.116577,-1.000977,0.154419,510
18663531,10020,-0.118164,-1.001343,0.153931,506
18673519,9988,-0.117432,-1.001099,0.151489,510
18683520,10001,-0.117188,-1.001099,0.153076,503
18693534,10014,-0.117188,-1.001221,0.152710,509
18703521,9987,-0.116699,-1.001953,0.152710,511
18713520,9999,-0.116821,-1.001831,0.152588,511
18723514,9994,-0.117920,-1.001343,0.152832,509
18733534,10020,-0.117432,-1.001831,0.154175,506
18743552,10018,-0.117676,-1.003052,0.153809,509
18753535,9983,-0.117920,-1.001709,0.153442,510
18763508,9973,-0.117188,-1.001343,0.153931,503
18773507,9999,-0.118286,-1.001709,0.153442,499
18783510,10003,-0.117798,-1.001709,0.152832,506
18793511,10001,-0.117310,-1.002075,0.152832,509
18803523,10012,-0.116943,-1.001831,0.153687,510
18813519,9996,-0.117676,-1.001831,0.155029,511
18823528,10009,-0.117065,-1.001465,0.153564,508
18833526,9998,-0.118042,-1.001465,0.154175,487
18843518,9992,-0.118896,-1.001343,0.154541,510
18853535,10017,-0.118408,-1.001343,0.153564,505
18863529,9994,-0.118042,-1.001221,0.152710,506
18873519,9990,-0.119507,-1.001343,0.152466,508
18883508,9989,-0.117798,-1.000977,0.154175,509
18893539,10031,-0.117310,-1.001709,0.153564,509
18903514,9975,-0.117188,-1.001953,0.152710,508
18913513,9999,-0.118286,-1.002319,0.153442,512
18923531,10018,-0.115845,-1.002197,0.152832,509
18933533,10002,-0.117920,-1.002441,0.152954,506
18943536,10003,-0.118408,-1.001953,0.153809,510
18953531,9995,-0.118896,-1.001343,0.152832,510
18963533,10002,-0.118286,-1.001831,0.152100,512
18973536,10003,-0.119141,-1.001709,0.153442,507
18983520,9984,-0.118896,-1.001709,0.154907,506
18993527,10007,-0.118774,-1.001709,0.153931,506
19003529,10002,-0.118042,-1.001953,0.153687,509
19013522,9993,-0.119141,-1.001099,0.154053,515
19023536,10014,-0.118774,-1.001587,0.154785,516
19033517,9981,-0.118042,-1.001465,0.153076,516
19043552,10035,-0.118042,-1.001099,0.154053,518
19053517,9965,-0.118896,-1.002319,0.154785,518
19063508,9991,-0.118286,-1.001709,0.152710,516
19073507,9999,-0.117310,-1.000977,0.153320,518
19083507,10000,-0.117432,-1.001831,0.153198,519
19093513,10006,-0.118408,-1.001953,0.153442,518
19103507,9994,-0.118408,-1.001587,0.153076,511
19113531,10024,-0.118652,-1.001465,0.153809,520
19123532,10001,-0.118896,-1.001343,0.154297,516
19133521,9989,-0.118652,-1.001343,0.153198,517
19143512,9991,-0.117798,-1.001953,0.153320,511
19153510,9998,-0.120117,-1.000977,0.153198,513
19163537,10027,-0.119263,-1.001221,0.154175,512
19173519,9982,-0.119141,-1.002441,0.152954,513
19183518,9999,-0.118896,-1.001343,0.152588,505
19193529,10011,-0.118896,-1.001709,0.152588,511
19203537,10008,-0.118286,-1.001709,0.154175,511
19213523,9986,-0.118896,-1.001343,0.153076,511
19223507,9984,-0.118896,-1.001099,0.153687,508
19233522,10015,-0.119141,-1.001343,0.153687,505
19243533,10011,-0.117676,-1.000977,0.153564,511
19253530,9997,-0.117554,-1.001221,0.154175,507
19263523,9993,-0.118164,-1.001709,0.152710,510
19273518,9995,-0.119019,-1.001587,0.152954,509
19283507,9989,-0.119385,-1.001831,0.153442,511
19293507,10000,-0.118408,-1.003052,0.153442,504
19303508,10001,-0.118652,-1.001465,0.154053,510
19313525,10017,-0.118530,-1.000977,0.153442,512
19323534,10009,-0.119873,-1.001343,0.153198,513
19333525,9991,-0.119751,-1.001587,0.152832,510
19343517,9992,-0.119385,-1.000854,0.153564,506
19353543,10026,-0.119385,-1.001343,0.154053,500
19363525,9982,-0.118286,-1.001831,0.153687,510
19373533,10008,-0.119873,-1.001465,0.154175,505
19383507,9974,-0.118896,-1.001465,0.154541,509
19393531,10024,-0.119263,-1.000977,0.153564,512
19403531,10000,-0.118164,-1.001099,0.153809,506
19413517,9986,-0.117920,-1.000977,0.152832,505
19423521,10004,-0.117920,-1.002075,0.153198,511
19433529,10008,-0.118896,-1.001221,0.153809,511
19443545,10016,-0.117310,-1.000977,0.153442,510
19453534,9989,-0.118286,-1.001831,0.153931,508
19463525,9991,-0.118530,-1.001465,0.152588,511
19473517,9992,-0.118164,-1.001343,0.153076,511
19483517,10000,-0.118652,-1.001343,0.153564,508
19493510,9993,-0.118774,-1.001709,0.154785,511
19503525,10015,-0.119019,-1.001099,0.154419,510
19513563,10038,-0.118408,-1.001587,0.153931,509
19523517,9954,-0.118774,-1.001221,0.153076,506
19533529,10012,-0.117920,-1.001831,0.153809,509
19543512,9983,-0.118774,-1.001099,0.153076,508
19553530,10018,-0.118652,-1.001343,0.153809,505
19563507,9977,-0.118164,-1.001343,0.153931,508
19573511,10004,-0.118774,-1.001221,0.152954,508
19583513,10002,-0.118774,-1.002319,0.153198,508
19593522,10009,-0.118042,-1.001465,0.153442,508
19603513,9991,-0.119019,-1.001465,0.154541,507
19613532,10019,-0.118530,-1.001831,0.153564,510
19623522,9990,-0.118164,-1.001221,0.153931,509
19633511,9989,-0.119141,-1.001831,0.153809,508
19643525,10014,-0.119751,-1.001343,0.153320,506
19653508,9983,-0.119263,-1.001465,0.153320,505
19663530,10022,-0.119629,-1.001343,0.153809,510
19673550,10020,-0.118164,-1.001709,0.154419,509
19683516,9966,-0.118896,-1.001709,0.152588,509
19693529,10013,-0.118286,-1.001587,0.153564,507
19703518,9989,-0.117798,-1.001343,0.154175,504
19713532,10014,-0.118530,-1.001221,0.152954,507
19723535,10003,-0.119995,-1.000977,0.152832,506
19733515,9980,-0.119629,-1.001221,0.153687,508
19743518,10003,-0.119019,-1.001221,0.153442,512
19753521,10003,-0.119507,-1.001343,0.152588,511
19763515,9994,-0.118652,-1.000854,0.152344,512
19773538,10023,-0.118042,-1.001343,0.154419,513
19783530,9992,-0.117920,-1.002441,0.153931,510
19793507,9977,-0.119507,-1.001343,0.154419,511
19803517,10010,-0.118652,-1.001221,0.152832,512
19813523,10006,-0.118286,-1.001709,0.154175,518
19823532,10009,-0.118652,-1.001587,0.154175,511
19833553,10021,-0.118164,-1.001831,0.154175,517
19843531,9978,-0.119507,-1.001465,0.153442,520
19853518,9987,-0.118652,-1.000732,0.154175,520
19863516,9998,-0.117920,-1.002319,0.153809,519
19873509,9993,-0.117920,-1.001709,0.153320,514
19883516,10007,-0.118774,-1.001709,0.154297,517
19893522,10006,-0.119507,-1.000977,0.153320,513
19903535,10013,-0.119507,-1.000977,0.152954,512
19913532,9997,-0.119385,-1.000854,0.153687,513
19923535,10003,-0.119141,-1.001465,0.152832,517
19933510,9975,-0.118774,-1.001465,0.153320,513
19943519,10009,-0.118408,-1.001221,0.153931,513
19953508,9989,-0.119629,-1.000977,0.153320,512
19963521,10013,-0.119385,-1.000977,0.154663,514
19973511,9990,-0.118286,-1.001221,0.153442,511
19983509,9998,-0.118530,-1.001099,0.154175,509
19993529,10020,-0.119019,-1.001343,0.154297,504
20003521,9992,-0.117920,-1.001343,0.154175,503
20013531,10010,-0.119019,-1.001099,0.154419,510
20023528,9997,-0.120483,-1.001709,0.153076,506
20033511,9983,-0.119629,-1.001099,0.153687,509
20043530,10019,-0.118896,-1.001343,0.153442,510
20053508,9978,-0.119995,-1.001465,0.153931,503
20063521,10013,-0.119385,-1.001099,0.153687,510
20073521,10000,-0.119263,-1.001953,0.153931,513
20083531,10010,-0.119751,-1.001099,0.153198,509
20093551,10020,-0.119019,-1.001221,0.154297,510
20103507,9956,-0.119629,-1.001465,0.154175,509
20113528,10021,-0.119751,-1.000854,0.153809,508
20123513,9985,-0.120483,-1.001343,0.153809,513
20133509,9996,-0.119019,-1.001221,0.154419,507
20143533,10024,-0.119263,-1.001221,0.154297,509
20153518,9985,-0.119385,-1.001465,0.152832,510
20163515,9997,-0.118896,-1.001221,0.153442,508
20173518,10003,-0.119019,-1.001221,0.152588,511
20183529,10011,-0.119751,-1.001099,0.153198,506
20193522,9993,-0.119507,-1.001465,0.153687,505
20203523,10001,-0.119141,-1.001099,0.154541,510
20213516,9993,-0.119263,-1.002197,0.154297,508
20223510,9994,-0.119019,-1.001099,0.154297,506
20233521,10011,-0.120239,-1.001709,0.153320,503
20243533,10012,-0.119507,-1.001343,0.153809,509
20253508,9975,-0.119629,-1.001221,0.152466,509
20263521,10013,-0.119385,-1.001465,0.153809,507
20273530,10009,-0.119385,-1.001953,0.154175,505
20283533,10003,-0.119141,-1.000977,0.154663,505
20293508,9975,-0.118774,-1.001831,0.153564,511
20303514,10006,-0.119019,-1.001587,0.153931,510
20313553,10039,-0.118896,-1.001221,0.154053,515
20323530,9977,-0.119751,-1.001343,0.153687,509
20333508,9978,-0.119019,-1.001587,0.153809,508
20343532,10024,-0.118530,-1.001099,0.152832,509
20353514,9982,-0.118774,-1.001587,0.153931,507
20363531,10017,-0.119141,-1.001587,0.154419,503
20373532,10001,-0.118408,-1.001709,0.153076,510
20383524,9992,-0.119507,-1.002319,0.153564,504
20393531,10007,-0.119141,-1.001953,0.153076,510
20403550,10019,-0.119751,-1.001343,0.153076,509
20413517,9967,-0.119629,-1.001343,0.153442,504
20423511,9994,-0.119995,-1.001465,0.152222,510
20433527,10016,-0.119873,-1.001709,0.152344,507
20443531,10004,-0.119141,-1.001099,0.153687,508
20453516,9985,-0.119507,-1.001343,0.153076,510
20463563,10047,-0.119019,-1.002075,0.153442,510
20473509,9946,-0.118042,-1.002197,0.153687,504
20483520,10011,-0.118652,-1.002197,0.153076,508
20493508,9988,-0.118530,-1.001343,0.153931,510
20503524,10016,-0.119873,-1.001587,0.153076,510
20513523,9999,-0.120117,-1.001587,0.153442,507
20523509,9986,-0.120361,-1.001465,0.153076,505
20533524,10015,-0.120239,-1.000854,0.152100,511
20543514,9990,-0.118774,-1.001831,0.153320,512
20553525,10011,-0.120117,-1.001099,0.153320,506
20563514,9989,-0.118896,-1.001343,0.153198,511
20573526,10012,-0.118286,-1.001099,0.153320,513
20583526,10000,-0.118652,-1.001587,0.154419,515
20593515,9989,-0.118652,-1.001221,0.154785,513
20603512,9997,-0.119141,-1.001465,0.155029,514
20613512,10000,-0.118408,-1.001099,0.154419,511
20623510,9998,-0.118164,-1.001343,0.153809,518
20633526,10016,-0.118530,-1.001587,0.152954,518
20643519,9993,-0.118530,-1.001343,0.154053,520
20653517,9998,-0.118896,-1.001221,0.153687,519
20663512,9995,-0.119751,-1.001587,0.153809,513
20673528,10016,-0.119995,-1.000977,0.154175,516
20683524,9996,-0.119995,-1.001465,0.153809,518
20693527,10003,-0.119629,-1.001465,0.153931,512
20703522,9995,-0.119629,-1.000732,0.153320,517
20713526,10004,-0.119507,-1.000977,0.154175,516
20723536,10010,-0.118530,-1.001587,0.153931,507
20733524,9988,-0.119385,-1.001831,0.152954,513
20743526,10002,-0.119629,-1.001221,0.154053,511
20753527,10001,-0.119873,-1.000977,0.154419,512
20763530,10003,-0.119751,-1.001221,0.154175,507
20773519,9989,-0.119507,-1.001099,0.154053,507
20783521,10002,-0.118652,-1.001343,0.153076,503
20793524,10003,-0.118774,-1.001343,0.153320,509
20803521,9997,-0.119995,-1.001343,0.153931,507
20813513,9992,-0.119141,-1.002075,0.152832,508
20823523,10010,-0.119873,-1.001587,0.154053,504
20833513,9990,-0.120605,-1.000854,0.151733,508
20843523,10010,-0.119751,-1.001709,0.153687,509
20853526,10003,-0.119751,-1.001099,0.154053,510
20863525,9999,-0.118774,-1.001221,0.154907,503
20873513,9988,-0.118896,-1.001099,0.153931,509
20883531,10018,-0.117798,-1.000977,0.153442,504
20893522,9991,-0.119507,-1.001587,0.154541,506
20903510,9988,-0.119263,-1.001099,0.153564,510
20913550,10040,-0.121704,-1.001343,0.153442,514
20923514,9964,-0.119873,-1.001221,0.152832,511
20933515,10001,-0.120361,-1.001953,0.153687,509
20943530,10015,-0.119263,-1.003662,0.153809,509
20953524,9994,-0.119629,-1.001953,0.152832,505
20963518,9994,-0.118896,-1.001343,0.154175,511
20973516,9998,-0.119263,-1.001221,0.154907,511
20983535,10019,-0.120728,-1.000977,0.154907,512
20993518,9983,-0.118408,-1.001343,0.156982,511
21003529,10011,-0.121826,-0.998535,0.156006,510
21013510,9981,-0.116821,-1.004883,0.156616,509
21023526,10016,-0.117188,-1.002441,0.156738,511
21033530,10004,-0.119263,-1.001221,0.155151,511
21043532,10002,-0.118164,-1.000977,0.154785,511
21053512,9980,-0.118896,-1.002075,0.154053,507
21063536,10024,-0.117065,-1.001953,0.153931,508
21073514,9978,-0.117554,-1.000977,0.153687,508
21083516,10002,-0.118042,-1.002075,0.154663,514
21093524,10008,-0.117798,-1.001465,0.154541,509
21103529,10005,-0.119385,-1.001953,0.155640,510
21113524,9995,-0.118408,-1.001587,0.155151,510
21123531,10007,-0.118774,-1.001587,0.153809,509
21133518,9987,-0.119873,-1.001099,0.154541,507
21143516,9998,-0.119629,-1.001221,0.152832,510
21153508,9992,-0.117798,-1.002197,0.153198,508
21163527,10019,-0.117798,-1.002686,0.154175,508
21173509,9982,-0.117798,-1.001099,0.154663,507
21183518,10009,-0.118774,-1.001099,0.154053,511
21193536,10018,-0.119873,-1.001221,0.154907,503
21203535,9999,-0.119873,-1.000977,0.153931,509
21213545,10010,-0.119507,-1.000977,0.154297,503
21223536,9991,-0.118652,-1.001343,0.155029,514
21233511,9975,-0.118774,-1.002197,0.155396,510
21243509,9998,-0.118408,-1.001465,0.154541,510
21253520,10011,-0.118652,-1.001099,0.153809,506
21263525,10005,-0.118530,-1.001587,0.154663,505
21273517,9992,-0.119019,-1.001587,0.154297,505
21283536,10019,-0.118774,-1.000977,0.154541,505
21293530,9994,-0.117676,-1.001343,0.154663,511
21303539,10009,-0.118164,-1.001221,0.154907,508
21313522,9983,-0.118408,-1.001099,0.155396,511
21323519,9997,-0.119385,-1.001587,0.153320,509
21333519,10000,-0.119507,-1.001709,0.155273,528
21343520,10001,-0.118774,-1.000854,0.153320,511
21353532,10012,-0.119751,-1.001343,0.154053,504
21363535,10003,-0.119019,-1.001465,0.154785,507
21373522,9987,-0.119263,-1.001831,0.154297,512
21383534,10012,-0.118530,-1.001221,0.153687,513
21393530,9996,-0.118896,-1.001343,0.154663,515
21403534,10004,-0.118408,-1.001709,0.155396,510
21413515,9981,-0.118042,-1.001709,0.154785,515
21423526,10011,-0.117676,-1.001709,0.155029,514
21433517,9991,-0.118286,-1.001587,0.153931,520
21443530,10013,-0.118652,-1.001099,0.153442,515
21453536,10006,-0.119141,-1.001709,0.153931,514
21463521,9985,-0.118042,-1.002075,0.154419,521
21473534,10013,-0.118408,-1.001099,0.155640,519
21483537,10003,-0.118652,-1.000977,0.154785,517
21493530,9993,-0.119019,-1.001343,0.153809,513
21503508,9978,-0.119507,-1.001343,0.154541,512
21513527,10019,-0.118652,-1.001587,0.154053,517
21523525,9998,-0.119141,-1.001221,0.155273,518
21533522,9997,-0.118164,-1.001465,0.154785,508
21543536,10014,-0.119019,-1.001831,0.154297,513
21553522,9986,-0.118408,-1.001709,0.154907,507
21563534,10012,-0.118408,-1.001343,0.154785,515
21573513,9979,-0.119019,-1.001465,0.155029,512
21583536,10023,-0.118530,-1.001831,0.154541,511
21593516,9980,-0.119019,-1.001099,0.154785,509
21603531,10015,-0.119141,-1.001099,0.154785,503
21613514,9983,-0.119141,-1.001465,0.154053,510
21623513,9999,-0.117676,-1.000977,0.154419,502
21633517,10004,-0.118286,-1.001343,0.153687,511
21643514,9997,-0.119141,-1.001587,0.153809,504
21653510,9996,-0.120117,-1.001831,0.153564,505
21663528,10018,-0.119385,-1.001221,0.154663,511
21673518,9990,-0.119995,-1.001099,0.153931,509
21683520,10002,-0.120117,-1.000977,0.154175,510
21693536,10016,-0.119263,-1.001465,0.154541,511
21703511,9975,-0.118896,-1.001465,0.154175,507
21713533,10022,-0.118286,-1.000977,0.154419,512
21723514,9981,-0.118286,-1.000732,0.153809,507
21733513,9999,-0.119995,-1.001343,0.154175,509
21743527,10014,-0.119263,-1.001709,0.154541,508
21753533,10006,-0.118042,-1.002197,0.153931,505
21763524,9991,-0.117920,-1.001221,0.155029,509
21773513,9989,-0.118530,-1.001343,0.154785,511
21783514,10001,-0.118896,-1.001221,0.154541,512
21793516,10002,-0.119873,-1.001099,0.154053,514
21803532,10016,-0.119629,-1.001465,0.153809,512
21813507,9975,-0.119751,-1.000977,0.154541,512
21823519,10012,-0.119141,-1.001343,0.153809,503
21833512,9993,-0.118774,-1.001465,0.153931,508
21843513,10001,-0.117432,-1.000977,0.154053,511
21853510,9997,-0.118408,-1.001343,0.155151,504
21863520,10010,-0.118774,-1.000854,0.154907,511
21873524,10004,-0.117798,-1.001221,0.153931,509
21883531,10007,-0.119019,-1.001831,0.154419,503
21893533,10002,-0.118408,-1.001099,0.154297,510
21903515,9982,-0.118896,-1.001709,0.155396,507
21913526,10011,-0.118652,-1.002075,0.154663,508
21923532,10006,-0.118042,-1.001099,0.154541,510
21933509,9977,-0.118164,-1.001099,0.155029,505
21943513,10004,-0.118286,-1.000977,0.154053,510
21953523,10010,-0.119263,-1.001343,0.154419,512
21963528,10005,-0.117676,-1.001099,0.153809,511
21973534,10006,-0.118286,-1.001587,0.153809,509
21983512,9978,-0.118286,-1.002197,0.154541,509
21993514,10002,-0.118042,-1.001831,0.154907,509
22003530,10016,-0.117676,-1.001831,0.154419,503
22013509,9979,-0.118652,-1.001587,0.155273,510
22023522,10013,-0.120117,-1.000854,0.154907,506
22033536,10014,-0.119263,-1.001343,0.153320,509
22043535,9999,-0.119629,-1.000977,0.153198,511
22053509,9974,-0.119263,-1.001099,0.153320,510
22063517,10008,-0.118896,-1.001099,0.154419,506
22073528,10011,-0.117188,-1.004395,0.155273,509
22083524,9996,-0.116089,-1.004761,0.156494,505
22093512,9988,-0.118164,-1.001831,0.155151,507
22103507,9995,-0.118652,-1.001953,0.155396,509
22113508,10001,-0.118164,-1.002075,0.154907,505
22123559,10051,-0.118042,-1.001343,0.154907,510
22133508,9949,-0.118286,-1.001343,0.154175,511
22143524,10016,-0.117554,-1.001587,0.152710,508
22153521,9997,-0.117554,-1.001465,0.153931,511
22163525,10004,-0.117310,-1.002686,0.155273,506
22173514,9989,-0.118286,-1.001221,0.154175,512
22183523,10009,-0.118408,-1.001465,0.154541,512
22193516,9993,-0.117310,-1.001221,0.154907,515
22203536,10020,-0.115967,-1.002075,0.154907,512
22213519,9983,-0.116821,-1.001343,0.154297,516
22223522,10003,-0.117188,-1.001343,0.154419,517
22233532,10010,-0.117554,-1.001343,0.154053,518
22243515,9983,-0.118408,-1.000977,0.154663,520
22253512,9997,-0.117065,-1.002075,0.155151,518
22263515,10003,-0.117432,-1.001465,0.153809,519
22273538,10023,-0.117798,-1.001709,0.154663,515
22283508,9970,-0.118286,-1.000732,0.155396,516
22293516,10008,-0.117920,-1.001953,0.153809,511
22303533,10017,-0.117310,-1.001587,0.153809,516
22313525,9992,-0.117676,-1.002319,0.153809,513
22323531,10006,-0.118164,-1.001953,0.155029,513
22333518,9987,-0.118408,-1.001953,0.153687,511
22343531,10013,-0.117676,-1.001465,0.154297,512
22353514,9983,-0.118042,-1.001709,0.154175,511
22363553,10039,-0.117798,-1.001099,0.154541,504
22373528,9975,-0.117188,-1.001099,0.155029,507
22383518,9990,-0.117188,-1.001709,0.154053,502
22393511,9993,-0.117188,-1.001587,0.153931,509
22403508,9997,-0.117920,-1.001343,0.154419,505
22413521,10013,-0.118042,-1.002319,0.154053,509
22423529,10008,-0.118286,-1.001221,0.153687,510
22433525,9996,-0.118164,-1.001465,0.154053,493
22443520,9995,-0.116943,-1.001953,0.154785,511
22453521,10001,-0.118286,-1.001343,0.154785,507
22463518,9997,-0.118042,-1.001221,0.154053,506
22473522,10004,-0.117310,-1.001587,0.154053,511
22483530,10008,-0.116699,-1.001709,0.153687,514
22493525,9995,-0.117310,-1.001709,0.153809,510
22503534,10009,-0.117554,-1.001343,0.154297,511
22513537,10003,-0.117920,-1.001953,0.154175,511
22523524,9987,-0.117310,-1.001465,0.154175,509
22533511,9987,-0.117798,-1.001953,0.155151,512
22543529,10018,-0.118774,-1.001831,0.154907,509
22553531,10002,-0.118164,-1.000854,0.153931,510
22563541,10010,-0.117432,-1.001465,0.155518,506
22573519,9978,-0.118164,-1.002441,0.154419,512
22583527,10008,-0.118042,-1.001465,0.153564,510
22593530,10003,-0.118042,-1.001099,0.154663,510
22603511,9981,-0.116943,-1.001343,0.154541,512
22613518,10007,-0.117188,-1.001709,0.153687,510
22623518,10000,-0.117310,-1.001465,0.154785,510
22633533,10015,-0.117798,-1.002075,0.154785,506
22643512,9979,-0.118164,-1.001465,0.154053,508
22653523,10011,-0.118896,-1.001465,0.153809,503
22663507,9984,-0.118286,-1.001099,0.153931,510
22673510,10003,-0.117554,-1.002075,0.154297,512
22683532,10022,-0.118286,-1.001831,0.154419,503
22693508,9976,-0.117432,-1.000977,0.153809,503
22703519,10011,-0.117065,-1.001465,0.153809,506
22713508,9989,-0.117554,-1.001221,0.153931,507
22723548,10040,-0.118408,-1.000977,0.154297,509
22733520,9972,-0.117920,-1.001221,0.154541,509
22743523,10003,-0.118896,-1.001343,0.154663,510
22753533,10010,-0.117798,-1.001465,0.154541,504
22763508,9975,-0.119019,-1.001953,0.154541,504
22773517,10009,-0.117920,-1.001587,0.154785,487
22783530,10013,-0.118286,-1.000977,0.153809,504
22793524,9994,-0.117554,-1.002075,0.153931,511
22803530,10006,-0.116577,-1.001099,0.153076,504
22813517,9987,-0.116089,-1.001587,0.155273,509
22823516,9999,-0.117676,-1.001343,0.153809,511
22833535,10019,-0.117920,-1.001465,0.154053,512
22843510,9975,-0.116577,-1.002075,0.153198,510
22853523,10013,-0.117676,-1.001709,0.153687,512
22863527,10004,-0.118408,-1.001099,0.153809,502
22873522,9995,-0.117920,-1.001587,0.153809,508
22883543,10021,-0.117798,-1.000977,0.153320,510
22893527,9984,-0.118286,-1.001831,0.153564,507
22903526,9999,-0.118164,-1.001587,0.153809,512
22913527,10001,-0.118530,-1.001587,0.154053,512
22923514,9987,-0.118042,-1.001709,0.154663,511
22933508,9994,-0.118286,-1.001221,0.153931,515
22943507,9999,-0.117310,-1.001709,0.154419,517
22953513,10006,-0.116821,-1.001831,0.153809,520
22963533,10020,-0.117188,-1.001221,0.155762,517
22973529,9996,-0.117310,-1.001221,0.153809,516
22983513,9984,-0.117188,-1.001709,0.153809,520
22993517,10004,-0.117676,-1.001953,0.154419,522
23003509,9992,-0.117920,-1.001831,0.154297,521
23013534,10025,-0.118286,-1.001587,0.153809,513
23023535,10001,-0.117676,-1.001831,0.153076,514
23033534,9999,-0.117798,-1.000854,0.153809,514
23043525,9991,-0.118408,-1.001221,0.154785,514
23053513,9988,-0.118286,-1.001587,0.153809,516
23063530,10017,-0.118042,-1.002075,0.154175,508
23073533,10003,-0.118652,-1.001343,0.154663,510
23083512,9979,-0.118652,-1.001343,0.154297,511
23093507,9995,-0.117676,-1.001953,0.154785,512
23103534,10027,-0.118652,-1.001831,0.154907,510
23113516,9982,-0.119507,-1.001343,0.154053,505
23123529,10013,-0.118042,-1.000977,0.153809,504
23133509,9980,-0.116821,-1.001099,0.154175,508
23143527,10018,-0.107910,-0.996460,0.153809,510
23153518,9991,-0.122070,-1.004761,0.152954,509
23163537,10019,-0.119751,-1.002197,0.153564,510
23173531,9994,-0.120239,-1.001587,0.153931,509
23183538,10007,-0.119873,-1.001343,0.154175,507
23193528,9990,-0.118530,-1.001831,0.153687,506
23203530,10002,-0.118408,-1.001709,0.154663,511
23213528,9998,-0.119019,-1.001587,0.153809,512
23223524,9996,-0.119141,-1.001221,0.154419,511
23233511,9987,-0.118164,-1.001465,0.154663,507
23243535,10024,-0.118774,-1.001465,0.154663,511
23253536,10001,-0.119629,-1.001343,0.153809,505
23263511,9975,-0.117920,-1.000977,0.153931,512
23273542,10031,-0.118408,-1.001343,0.153320,512
23283529,9987,-0.117554,-1.001099,0.154053,513
23293522,9993,-0.118286,-1.001465,0.154175,506
23303518,9996,-0.118164,-1.002197,0.155640,511
23313516,9998,-0.119751,-1.000854,0.154053,505
23323535,10019,-0.119141,-1.001343,0.153687,505
23333529,9994,-0.119263,-1.001465,0.153687,512
23343507,9978,-0.118408,-1.001587,0.154175,510
23353537,10030,-0.118652,-1.001953,0.154175,511
23363507,9970,-0.119141,-1.001099,0.152710,511
23373528,10021,-0.118774,-1.001587,0.153687,509
23383529,10001,-0.117798,-1.001343,0.154297,504
23393513,9984,-0.118652,-1.001221,0.153564,504
23403534,10021,-0.118286,-1.001709,0.154541,504
23413534,10000,-0.119141,-1.002319,0.154419,510
23423518,9984,-0.119629,-1.001221,0.153198,504
23433508,9990,-0.119629,-1.001831,0.152832,507
23443507,9999,-0.118408,-1.001099,0.153442,506
23453532,10025,-0.119385,-1.000977,0.154419,507
23463514,9982,-0.118408,-1.001587,0.154907,507
23473516,10002,-0.117676,-1.001099,0.153687,508
23483526,10010,-0.118652,-1.001953,0.154663,506
23493516,9990,-0.119141,-1.000977,0.155396,505
23503530,10014,-0.118408,-1.001343,0.153442,509
23513527,9997,-0.119751,-1.001465,0.154053,508
23523510,9983,-0.119019,-1.001953,0.154053,504
23533528,10018,-0.119385,-1.001221,0.154541,511
23543507,9979,-0.118774,-1.001465,0.153076,512
23553521,10014,-0.118896,-1.001587,0.153320,505
23563534,10013,-0.118896,-1.001221,0.153442,504
23573530,9996,-0.118530,-1.001953,0.154785,507
23583534,10004,-0.118286,-1.001587,0.153687,511
23593514,9980,-0.118652,-1.001831,0.153442,511
23603510,9996,-0.119019,-1.001709,0.154175,512
23613524,10014,-0.118652,-1.001343,0.153442,511
23623519,9995,-0.119019,-1.001465,0.154419,509
23633519,10000,-0.119385,-1.001465,0.153320,513
23643527,10008,-0.117920,-1.001099,0.153076,511
23653516,9989,-0.119507,-1.001465,0.154541,510
23663535,10019,-0.119873,-1.001953,0.156006,515
23673517,9982,-0.118896,-1.000977,0.152466,509
23683533,10016,-0.118286,-1.000854,0.153564,516
23693520,9987,-0.118896,-1.002197,0.153076,514
23703534,10014,-0.118286,-1.001709,0.153687,519
23713525,9991,-0.118286,-1.000732,0.153442,520
23723518,9993,-0.118164,-1.001343,0.153809,514
23733564,10046,-0.119263,-1.001343,0.154175,522
23743519,9955,-0.119263,-1.001099,0.155029,519
23753510,9991,-0.118896,-1.001587,0.155396,519
23763523,10013,-0.120117,-1.000854,0.154663,519
23773517,9994,-0.121216,-1.000977,0.152466,518
23783522,10005,-0.120361,-1.000854,0.153809,513
23793529,10007,-0.118896,-1.001831,0.153809,517
23803534,10005,-0.118530,-1.001953,0.154785,515
23813520,9986,-0.118530,-1.001831,0.154053,515
23823518,9998,-0.119751,-1.001587,0.155029,512
23833514,9996,-0.119385,-1.001831,0.154541,511
23843528,10014,-0.119873,-1.000977,0.154541,514
23853516,9988,-0.119385,-1.001587,0.155029,506
23863521,10005,-0.120361,-1.000977,0.153809,512
23873517,9996,-0.119629,-1.001343,0.153687,505
23883537,10020,-0.119995,-1.002075,0.154663,504
23893523,9986,-0.118530,-1.001221,0.153809,511
23903528,10005,-0.117676,-1.002075,0.153320,505
23913521,9993,-0.119385,-1.001221,0.154175,510
23923531,10010,-0.119629,-1.001709,0.154297,509
23933507,9976,-0.118530,-1.000977,0.154419,508
23943526,10019,-0.120117,-1.001343,0.154541,510
23953512,9986,-0.119751,-1.000732,0.153931,511
23963519,10007,-0.119629,-1.001343,0.154541,513
23973509,9990,-0.119751,-1.000977,0.154175,511
23983511,10002,-0.120361,-1.000977,0.153931,505
23993529,10018,-0.119019,-1.000854,0.153809,512
24003527,9998,-0.118896,-1.000977,0.153198,512
24013531,10004,-0.118408,-1.001953,0.154541,513
24023540,10009,-0.118774,-1.001953,0.154907,510
24033523,9983,-0.119995,-1.001221,0.153809,508
24043526,10003,-0.118652,-1.001709,0.153687,508
24053519,9993,-0.118774,-1.001221,0.154663,508
24063520,10001,-0.120239,-1.001709,0.153442,506
24073534,10014,-0.119995,-1.000854,0.154785,511
24083510,9976,-0.119629,-1.001709,0.153687,509
24093513,10003,-0.119385,-1.001343,0.154175,509
24103529,10016,-0.119263,-1.000977,0.153687,510
24113510,9981,-0.118652,-1.001953,0.154541,509
24123525,10015,-0.119385,-1.001709,0.153687,511
24133509,9984,-0.119385,-1.001709,0.153687,503
24143528,10019,-0.119751,-1.001709,0.155029,506
24153509,9981,-0.119629,-1.001709,0.154907,507
24163537,10028,-0.119507,-1.001587,0.154053,508
24173539,10002,-0.119385,-1.001465,0.155029,508
24183512,9973,-0.120850,-1.001587,0.155640,505
24193520,10008,-0.120239,-1.000977,0.154541,511
24203525,10005,-0.120850,-1.001465,0.153320,508
24213519,9994,-0.120117,-1.001709,0.153564,506
24223511,9992,-0.118652,-1.001953,0.154419,508
24233522,10011,-0.119385,-1.001099,0.154663,502
24243511,9989,-0.119751,-1.001343,0.154419,509
24253532,10021,-0.119141,-1.001221,0.153809,507
24263526,9994,-0.119751,-1.001831,0.154541,512
24273521,9995,-0.119141,-1.001221,0.154053,508
24283530,10009,-0.120728,-1.001221,0.153931,509
24293524,9994,-0.120361,-1.001343,0.153198,504
24303513,9989,-0.120483,-1.001099,0.153320,505
24313550,10037,-0.119507,-1.000977,0.153931,503
24323529,9979,-0.118896,-1.000977,0.153564,511
24333529,10000,-0.118896,-1.001709,0.153564,503
24343507,9978,-0.119385,-1.001221,0.154297,510
24353524,10017,-0.118774,-1.001953,0.155029,507
24363519,9995,-0.118652,-1.001465,0.154663,499
24373510,9991,-0.119263,-1.001831,0.154053,510
24383520,10010,-0.120728,-1.001465,0.154419,510
24393527,10007,-0.119507,-1.000977,0.153931,513
24403510,9983,-0.119995,-1.001099,0.154175,511
24413526,10016,-0.118042,-1.001099,0.153931,512
24423514,9988,-0.118408,-1.001587,0.154785,516
24433510,9996,-0.118042,-1.001343,0.154419,511
24443513,10003,-0.110474,-0.998169,0.154419,515
24453555,10042,-0.129272,-1.006104,0.155151,512
24463517,9962,-0.126465,-1.002808,0.154907,519
24473515,9998,-0.121704,-1.001709,0.153931,519
24483513,9998,-0.122437,-1.001099,0.153687,520
24493527,10014,-0.121582,-1.001465,0.152954,521
24503507,9980,-0.120483,-1.000977,0.153687,520
24513532,10025,-0.119873,-1.001465,0.153687,517
24523525,9993,-0.121094,-1.000977,0.153809,513
24533535,10010,-0.121704,-1.001099,0.154663,513
24543510,9975,-0.120728,-1.000977,0.153687,516
24553527,10017,-0.121460,-1.001221,0.153931,516
24563532,10005,-0.122070,-1.000977,0.153198,515
24573510,9978,-0.120483,-1.000732,0.154541,513
24583536,10026,-0.121582,-1.001343,0.154053,513
24593538,10002,-0.121460,-1.001221,0.154175,512
24603508,9970,-0.119873,-1.001709,0.154785,507
24613525,10017,-0.120117,-1.001099,0.154419,512
24623511,9986,-0.120239,-1.001221,0.155029,510
24633518,10007,-0.119629,-1.001709,0.152954,509
24643531,10013,-0.120605,-1.000977,0.153931,509
24653519,9988,-0.120728,-1.001587,0.154053,502
24663509,9990,-0.119751,-1.002197,0.155029,512
24673515,10006,-0.121948,-1.000854,0.155273,505
24683507,9992,-0.122437,-1.001343,0.156982,511
24693531,10024,-0.122314,-1.001099,0.154419,514
24703508,9977,-0.121338,-1.000977,0.152954,507
24713520,10012,-0.121826,-1.000854,0.153687,511
24723519,9999,-0.122437,-1.001709,0.154175,503
24733522,10003,-0.122314,-1.001099,0.153809,507
24743528,10006,-0.121460,-1.001343,0.154541,506
24753528,10000,-0.121826,-1.001099,0.154419,512
24763508,9980,-0.121460,-1.001343,0.153564,505
24773532,10024,-0.121460,-1.000977,0.154663,507
24783527,9995,-0.120850,-1.001221,0.154053,504
24793511,9984,-0.120728,-1.001343,0.153687,512
24803535,10024,-0.121582,-1.000854,0.153442,511
24813530,9995,-0.120972,-1.001587,0.155029,506
24823513,9983,-0.120728,-1.000977,0.155029,509
24833517,10004,-0.120361,-1.001831,0.154053,507
24843519,10002,-0.121582,-1.000854,0.154663,505
24853529,10010,-0.122437,-1.000977,0.154053,510
24863507,9978,-0.121582,-1.000732,0.153320,509
24873510,10003,-0.121338,-1.001221,0.153809,505
24883534,10024,-0.121826,-1.001099,0.153809,504
24893535,10001,-0.120972,-1.000854,0.154907,504
24903514,9979,-0.120483,-1.001221,0.155640,509
24913509,9995,-0.120972,-1.001587,0.154541,508
24923510,10001,-0.121704,-1.001343,0.155640,506
24933535,10025,-0.121826,-1.000977,0.154785,505
24943516,9981,-0.122314,-1.001465,0.153564,511
24953522,10006,-0.121582,-1.001343,0.153809,510
24963510,9988,-0.121094,-1.001221,0.153320,511
24973529,10019,-0.121582,-1.001343,0.154053,512
24983531,10002,-0.120972,-1.001587,0.153931,509
24993512,9981,-0.122437,-1.000854,0.154419,511
25003521,10009,-0.122314,-1.001099,0.154053,509
25013520,9999,-0.121460,-1.001099,0.153442,510
25023532,10012,-0.121704,-1.001099,0.153687,515
25033527,9995,-0.121582,-1.001221,0.154663,510
25043560,10033,-0.121826,-1.000854,0.153931,505
25053516,9956,-0.120605,-1.000854,0.153320,508
25063508,9992,-0.120972,-1.000977,0.153809,508
25073519,10011,-0.120972,-1.001099,0.153442,509
25083529,10010,-0.121338,-1.000610,0.154175,511
25093517,9988,-0.121338,-1.000977,0.154907,511
25103517,10000,-0.121216,-1.000854,0.152954,511
25113524,10007,-0.121704,-1.000977,0.153809,507
25123526,10002,-0.120850,-1.000977,0.153320,508
25133532,10006,-0.120972,-1.000977,0.154297,510
25143510,9978,-0.121338,-1.000732,0.154419,509
25153528,10018,-0.121582,-1.000977,0.154541,510
25163534,10006,-0.121094,-1.001343,0.153564,504
25173513,9979,-0.121094,-1.001221,0.154541,511
25183535,10022,-0.121460,-1.000854,0.153320,503
25193533,9998,-0.122559,-1.001099,0.154541,512
25203517,9984,-0.122803,-1.001099,0.154541,513
25213528,10011,-0.122070,-1.001465,0.154663,510
25223513,9985,-0.120972,-1.001465,0.154053,514
25233530,10017,-0.121826,-1.001099,0.154053,518
25243521,9991,-0.121338,-1.001709,0.153687,514
25253521,10000,-0.120239,-1.001343,0.153687,519
25263515,9994,-0.120483,-1.001343,0.154419,515
25273514,9999,-0.121460,-1.001465,0.154419,521
25283535,10021,-0.120972,-1.000854,0.154175,518
25293530,9995,-0.121948,-1.001099,0.154785,516
25303517,9987,-0.122070,-1.000977,0.153931,513
25313533,10016,-0.121948,-1.001099,0.153931,512
25323516,9983,-0.122314,-1.001099,0.153442,518
25333510,9994,-0.121460,-1.001099,0.154785,516
25343530,10020,-0.122192,-1.001465,0.155518,516
25353514,9984,-0.121460,-1.000977,0.155273,515
25363507,9993,-0.121094,-1.001587,0.155518,509
25373507,10000,-0.121338,-1.001587,0.154053,512
25383535,10028,-0.121948,-1.000977,0.154663,513
25393522,9987,-0.121216,-1.000977,0.154297,509
25403514,9992,-0.121460,-1.001099,0.154663,511
25413532,10018,-0.121704,-1.000732,0.154907,509
25423511,9979,-0.121826,-1.000977,0.154053,509
25433514,10003,-0.121948,-1.001343,0.153442,511
25443509,9995,-0.120850,-1.000732,0.153809,505
25453514,10005,-0.121826,-1.001221,0.154541,510
25463513,9999,-0.121582,-1.000977,0.154541,509
25473508,9995,-0.121460,-1.001221,0.154541,511
25483532,10024,-0.121460,-1.000854,0.153076,512
25493514,9982,-0.121704,-1.001221,0.155396,508
25503519,10005,-0.121582,-1.000854,0.153564,512
25513526,10007,-0.120605,-1.001343,0.154907,509
25523533,10007,-0.121094,-1.001099,0.154907,508
25533533,10000,-0.122192,-1.001099,0.153687,511
25543528,9995,-0.121216,-1.000977,0.153442,510
25553529,10001,-0.120850,-1.001221,0.154663,512
25563513,9984,-0.120728,-1.001221,0.154541,512
25573517,10004,-0.120728,-1.000610,0.154541,511
25583532,10015,-0.121826,-1.001343,0.154175,506
25593526,9994,-0.121582,-1.001099,0.154053,508
25603535,10009,-0.120972,-1.000977,0.154419,509
25613534,9999,-0.121094,-1.000854,0.153931,512
25623544,10010,-0.121704,-1.001099,0.152710,511
25633529,9985,-0.121948,-1.001099,0.154663,511
25643536,10007,-0.120605,-1.000977,0.153564,508
25653510,9974,-0.120483,-1.001465,0.154175,504
25663558,10048,-0.120605,-1.001709,0.155029,509
25673534,9976,-0.120483,-1.001465,0.154907,540
25683509,9975,-0.121094,-1.001465,0.154419,510
25693517,10008,-0.120972,-1.001709,0.153198,504
25703535,10018,-0.121216,-1.000732,0.154663,504
25713534,9999,-0.121826,-1.000854,0.153809,507
25723512,9978,-0.120483,-1.001465,0.153931,503
25733534,10022,-0.120850,-1.001709,0.154419,503
25743524,9990,-0.121704,-1.000854,0.153687,508
25753512,9988,-0.121460,-1.000854,0.154053,510
25763518,10006,-0.119873,-1.000854,0.153809,508
25773508,9990,-0.120972,-1.000977,0.154297,512
25783552,10044,-0.121582,-1.000854,0.153809,508
25793507,9955,-0.120850,-1.000977,0.154053,510
25803518,10011,-0.121094,-1.000854,0.154053,510
25813515,9997,-0.120117,-1.001465,0.154297,509
25823514,9999,-0.120728,-1.002075,0.155029,511
25833537,10023,-0.121338,-1.001221,0.154419,509
25843521,9984,-0.121338,-1.000977,0.154175,506
25853531,10010,-0.121094,-1.000977,0.154785,506
25863519,9988,-0.121338,-1.000977,0.154053,511
25873530,10011,-0.121094,-1.000977,0.153442,509
25883529,9999,-0.121338,-1.000854,0.153320,511
25893516,9987,-0.120117,-1.001221,0.154541,509
25903527,10011,-0.118896,-1.002197,0.154297,511
25913513,9986,-0.120117,-1.001343,0.153564,510
25923510,9997,-0.120117,-1.002197,0.153320,507
25933515,10005,-0.121216,-1.000977,0.153687,507
25943540,10025,-0.121704,-1.000977,0.153564,507
25953529,9989,-0.120850,-1.000977,0.153564,510
25963510,9981,-0.120972,-1.001099,0.153320,508
25973527,10017,-0.120361,-1.001099,0.154053,512
25983528,10001,-0.119507,-1.001099,0.153687,514
25993531,10003,-0.119141,-1.001099,0.153198,515
26003527,9996,-0.120483,-1.000977,0.155273,515
26013532,10005,-0.120361,-1.001709,0.152832,515
26023532,10000,-0.121460,-1.000977,0.153809,511
26033516,9984,-0.121582,-1.001343,0.154053,517
26043514,9998,-0.120850,-1.001709,0.153198,517
26053519,10005,-0.119873,-1.001099,0.153198,520
26063524,10005,-0.119995,-1.001343,0.153198,514
26073518,9994,-0.120728,-1.001221,0.153931,517
26083534,10016,-0.119873,-1.001587,0.153564,516
26093514,9980,-0.120117,-1.000977,0.153320,517
26103534,10020,-0.121338,-1.001343,0.155640,514
26113518,9984,-0.121338,-1.001099,0.153687,515
26123513,9995,-0.120850,-1.001831,0.153687,510
26133509,9996,-0.120605,-1.001343,0.154053,514
26143532,10023,-0.120605,-1.001099,0.153931,515
26153533,10001,-0.120728,-1.001587,0.154053,509
26163527,9994,-0.120239,-1.002197,0.153931,509
26173524,9997,-0.120605,-1.001343,0.153931,509
26183517,9993,-0.119629,-1.001831,0.153809,512
26193510,9993,-0.120361,-1.001953,0.153687,510
26203509,9999,-0.120483,-1.001709,0.153442,512
26213508,9999,-0.120483,-1.002075,0.154297,512
26223512,10004,-0.119873,-1.000854,0.153564,504
26233534,10022,-0.120239,-1.000977,0.153564,512
26243535,10001,-0.120850,-1.001099,0.153564,510
26253545,10010,-0.120850,-1.000854,0.153809,509
26263515,9970,-0.121460,-1.000732,0.154175,509
26273519,10004,-0.119873,-1.001953,0.153442,503
26283535,10016,-0.118896,-1.001709,0.154663,512
26293514,9979,-0.119019,-1.001465,0.152588,512
26303546,10032,-0.120605,-1.001465,0.154541,512
26313516,9970,-0.119629,-1.001465,0.154175,511
26323515,9999,-0.119263,-1.000977,0.153198,512
26333516,10001,-0.122192,-1.000977,0.154541,507
26343528,10012,-0.120850,-1.000977,0.153076,513
26353515,9987,-0.120117,-1.001221,0.154541,512
26363514,9999,-0.120239,-1.000732,0.154663,513
26373534,10020,-0.120483,-1.001099,0.153809,508
26383531,9997,-0.119995,-1.000854,0.153076,505
26393508,9977,-0.120361,-1.000977,0.153198,505
26403522,10014,-0.119873,-1.001709,0.153809,512
26413526,10004,-0.119995,-1.001221,0.154175,509
26423530,10004,-0.118530,-1.001831,0.153564,509
26433507,9977,-0.120361,-1.001099,0.154663,509
26443507,10000,-0.121094,-1.001343,0.153687,510
26453535,10028,-0.120483,-1.000732,0.153687,506
26463562,10027,-0.120117,-1.001343,0.153564,512
26473511,9949,-0.119385,-1.001343,0.154175,505
26483516,10005,-0.118286,-1.000854,0.153076,510
26493511,9995,-0.119629,-1.001221,0.154541,505
26503513,10002,-0.120361,-1.001831,0.153076,506
26513518,10005,-0.119141,-1.001709,0.153687,509
26523517,9999,-0.120239,-1.002075,0.153320,510
26533528,10011,-0.119507,-1.001343,0.153320,509
26543531,10003,-0.120728,-1.000854,0.153809,506
26553529,9998,-0.119995,-1.001587,0.153809,510
26563517,9988,-0.120972,-1.000977,0.153442,509
26573510,9993,-0.119629,-1.001709,0.154175,509
26583553,10043,-0.119873,-1.001465,0.153076,503
26593508,9955,-0.118652,-1.000977,0.152832,510
26603516,10008,-0.120728,-1.001099,0.154297,504
26613518,10002,-0.120972,-1.000732,0.152954,507
26623520,10002,-0.120605,-1.000732,0.153564,511
26633532,10012,-0.120239,-1.001343,0.153931,509
26643523,9991,-0.119873,-1.001221,0.154419,506
26653516,9993,-0.119995,-1.001221,0.153931,510
26663530,10014,-0.119507,-1.001221,0.152222,512
26673527,9997,-0.121094,-1.001343,0.154175,510
26683513,9986,-0.119751,-1.000977,0.153809,510
26693536,10023,-0.119629,-1.001099,0.153564,511
26703528,9992,-0.119263,-1.000977,0.153564,510
26713527,9999,-0.120361,-1.001343,0.154053,503
26723520,9993,-0.120605,-1.001221,0.154053,510
26733540,10020,-0.120728,-1.000977,0.153320,507
26743528,9988,-0.119995,-1.001343,0.153198,512
26753531,10003,-0.119751,-1.001465,0.152954,507
26763530,9999,-0.121216,-1.001343,0.154053,516
26773542,10012,-0.121460,-1.001343,0.153809,515
26783521,9979,-0.119507,-1.000977,0.153809,516
26793532,10011,-0.119873,-1.000977,0.154419,515
26803515,9983,-0.119385,-1.001709,0.153687,520
26813520,10005,-0.120239,-1.001465,0.154297,518
26823537,10017,-0.118896,-1.000732,0.154663,519
26833535,9998,-0.120239,-1.001465,0.153442,519
26843512,9977,-0.120972,-1.002075,0.153931,520
26853533,10021,-0.120605,-1.001831,0.153931,518
26863536,10003,-0.121094,-1.001953,0.154419,514
26873535,9999,-0.121338,-1.000610,0.153076,518
26883526,9991,-0.120850,-1.000854,0.152954,511
26893509,9983,-0.119873,-1.002197,0.153564,516
26903516,10007,-0.121460,-1.001099,0.154053,509
26913532,10016,-0.121094,-1.000732,0.154175,513
26923521,9989,-0.121582,-1.000854,0.154663,511
26933530,10009,-0.120361,-1.001099,0.154175,511
26943522,9992,-0.120850,-1.001221,0.153809,511
26953521,9999,-0.119873,-1.001953,0.153687,483
26963528,10007,-0.120728,-1.001343,0.153076,516
26973514,9986,-0.119873,-1.000977,0.153687,510
26983518,10004,-0.120361,-1.000977,0.153931,510
26993532,10014,-0.120361,-1.001099,0.154175,510
27003514,9982,-0.120850,-1.001587,0.154297,510
27013536,10022,-0.122070,-1.000977,0.154297,509
27023524,9988,-0.122070,-1.000732,0.153076,509
27033536,10012,-0.120728,-1.001831,0.155029,510
27043524,9988,-0.120728,-1.002197,0.154175,511
27053522,9998,-0.119873,-1.001221,0.153687,510
27063519,9997,-0.119141,-1.001221,0.152344,506
27073510,9991,-0.120117,-1.001099,0.153931,507
27083517,10007,-0.120239,-1.001465,0.154541,510
27093513,9996,-0.120239,-1.001465,0.153198,513
27103514,10001,-0.119629,-1.001831,0.154907,511
27113530,10016,-0.120239,-1.001099,0.154907,507
27123512,9982,-0.121338,-1.000977,0.153931,511
27133528,10016,-0.120605,-1.000977,0.152710,512
27143527,9999,-0.121460,-1.000854,0.153931,512
27153532,10005,-0.121704,-1.001343,0.153564,510
27163536,10004,-0.120483,-1.001221,0.152954,509
27173523,9987,-0.120728,-1.001221,0.153076,512
27183534,10011,-0.120850,-1.001465,0.153198,510
27193527,9993,-0.120850,-1.001465,0.153442,510
27203519,9992,-0.121338,-1.001831,0.154053,507
27213522,10003,-0.121094,-1.001221,0.154663,506
27223507,9985,-0.121094,-1.001465,0.153931,510
27233509,10002,-0.121094,-1.000977,0.153687,507
27243518,10009,-0.121094,-1.000732,0.153931,508
27253516,9998,-0.121216,-1.000977,0.154419,510
27263527,10011,-0.120972,-1.000977,0.154419,503
27273508,9981,-0.120972,-1.001221,0.153931,509
27283525,10017,-0.120239,-1.000977,0.153931,506
27293530,10005,-0.121216,-1.001099,0.154541,512
27303520,9990,-0.121216,-1.001465,0.154419,501
27313523,10003,-0.122559,-1.001465,0.153687,503
27323523,10000,-0.123413,-1.000854,0.153564,509
27333527,10004,-0.121948,-1.000977,0.153809,505
27343508,9981,-0.122314,-1.001099,0.154419,510
27353517,10009,-0.122070,-1.001343,0.152710,508
27363545,10028,-0.121704,-1.001343,0.153687,509
27373517,9972,-0.121948,-1.000854,0.153198,503
27383530,10013,-0.122559,-1.001221,0.153320,508
27393519,9989,-0.121460,-1.002197,0.153198,510
27403528,10009,-0.121826,-1.001099,0.154175,510
27413525,9997,-0.121460,-1.001221,0.153931,510
27423523,9998,-0.121582,-1.001587,0.154297,509
27433509,9986,-0.121216,-1.001221,0.153931,509
27443510,10001,-0.121704,-1.001099,0.153198,509
27453531,10021,-0.121460,-1.001709,0.154541,509
27463533,10002,-0.121948,-1.000854,0.153809,504
27473508,9975,-0.121582,-1.000854,0.152954,512
27483516,10008,-0.121948,-1.001343,0.154175,511
27493526,10010,-0.121826,-1.000977,0.154175,511
27503520,9994,-0.120972,-1.000488,0.154053,511
27513536,10016,-0.118286,-1.001221,0.153687,509
27523514,9978,-0.123535,-1.001465,0.153442,515
27533533,10019,-0.123657,-1.001953,0.153320,512
27543526,9993,-0.122559,-1.001099,0.154175,512
27553525,9999,-0.122437,-1.001099,0.154907,514
27563564,10039,-0.122437,-1.002686,0.152710,519
27573508,9944,-0.121948,-1.001465,0.154663,513
27583510,10002,-0.120728,-1.000977,0.154053,519
27593521,10011,-0.121826,-1.001221,0.154175,518
27603534,10013,-0.122192,-1.000977,0.152954,519
27613529,9995,-0.122192,-1.000977,0.153809,517
27623511,9982,-0.121704,-1.000854,0.154297,517
27633533,10022,-0.122314,-1.001343,0.154907,515
27643534,10001,-0.121704,-1.001343,0.153076,515
27653518,9984,-0.121704,-1.001221,0.153442,515
27663527,10009,-0.121216,-1.001587,0.153076,509
27673508,9981,-0.122070,-1.000732,0.153442,517
27683545,10037,-0.121216,-1.001343,0.153198,513
27693528,9983,-0.122192,-1.001099,0.154663,512
27703510,9982,-0.121216,-1.001099,0.154053,512
27713534,10024,-0.121826,-1.001099,0.154297,510
27723525,9991,-0.121704,-1.000854,0.153076,506
27733517,9992,-0.121704,-1.001465,0.153564,510
27743519,10002,-0.121338,-1.002075,0.154297,510
27753520,10001,-0.121460,-1.001831,0.154419,510
27763514,9994,-0.121704,-1.001099,0.153687,508
27773527,10013,-0.122070,-1.001343,0.154053,510
27783522,9995,-0.121460,-1.000854,0.153809,507
27793535,10013,-0.122314,-1.001343,0.153442,510
27803521,9986,-0.120850,-1.000732,0.153198,510
27813508,9987,-0.121826,-1.001221,0.153687,508
27823532,10024,-0.120605,-1.001221,0.153564,511
27833516,9984,-0.121704,-1.001953,0.153320,510
27843511,9995,-0.121704,-1.000854,0.154297,507
27853518,10007,-0.122559,-1.000732,0.153809,510
27863513,9995,-0.121216,-1.000854,0.152710,511
27873535,10022,-0.121826,-1.000977,0.154053,510
27883510,9975,-0.121582,-1.001221,0.153687,510
27893517,10007,-0.121338,-1.001709,0.153076,511
27903522,10005,-0.121826,-1.000854,0.154297,514
27913530,10008,-0.121338,-1.000854,0.153687,506
27923536,10006,-0.121338,-1.001709,0.154053,510
27933530,9994,-0.121582,-1.001221,0.153809,512
27943536,10006,-0.121948,-1.001099,0.154297,510
27953527,9991,-0.122070,-1.002563,0.152954,510
27963534,10007,-0.122070,-1.000854,0.154541,509
27973518,9984,-0.121582,-1.001099,0.153687,505
27983540,10022,-0.120972,-1.001099,0.153809,508
27993509,9969,-0.120850,-1.000977,0.154053,508
28003526,10017,-0.121338,-1.000854,0.154053,507
28013507,9981,-0.122070,-1.001099,0.154053,509
28023518,10011,-0.123291,-1.001221,0.154541,509
28033528,10010,-0.121826,-1.001099,0.153809,504
28043524,9996,-0.122070,-1.001099,0.153809,508
28053524,10000,-0.122559,-1.000732,0.153442,505
28063522,9998,-0.121704,-1.001221,0.153442,508
28073510,9988,-0.121826,-1.001099,0.154297,509
28083509,9999,-0.121948,-1.001343,0.153442,509
28093511,10002,-0.121460,-1.001465,0.152466,508
28103529,10018,-0.122192,-1.001221,0.153442,510
28113528,9999,-0.122070,-1.001099,0.153809,504
28123527,9999,-0.122192,-1.001343,0.153687,503
28133531,10004,-0.122192,-1.001465,0.153564,505
28143523,9992,-0.121216,-1.000977,0.153564,505
28153508,9985,-0.121216,-1.001343,0.152588,504
28163551,10043,-0.122559,-1.001343,0.152954,509
28173529,9978,-0.122681,-1.001221,0.152710,509
28183534,10005,-0.122559,-1.000977,0.153564,508
28193510,9976,-0.122070,-1.000610,0.153809,509
28203525,10015,-0.121948,-1.001221,0.153320,510
28213515,9990,-0.122070,-1.001343,0.153320,508
28223536,10021,-0.122437,-1.001465,0.153442,510
28233524,9988,-0.122681,-1.000977,0.153564,503
28243518,9994,-0.122192,-1.000854,0.153198,507
28253535,10017,-0.122070,-1.001343,0.152222,505
28263519,9984,-0.121826,-1.001099,0.152588,511
28273527,10008,-0.121704,-1.001343,0.153198,511
28283529,10002,-0.121826,-1.000854,0.152710,509
28293533,10004,-0.121582,-1.000854,0.153442,511
28303511,9978,-0.121948,-1.001221,0.152588,504
28313537,10026,-0.121826,-1.001221,0.152344,514
28323523,9986,-0.122559,-1.000854,0.153687,516
28333523,10000,-0.121582,-1.001343,0.153809,518
28343533,10010,-0.121582,-1.000854,0.154785,511
28353531,9998,-0.120728,-1.000977,0.154175,513
28363516,9985,-0.121948,-1.001587,0.153564,516
28373519,10003,-0.122192,-1.000977,0.152466,521
28383533,10014,-0.122314,-1.001465,0.153320,520
28393509,9976,-0.121216,-1.000977,0.153687,517
28403508,9999,-0.121704,-1.002686,0.154053,515
28413520,10012,-0.122314,-1.001221,0.154053,519
28423534,10014,-0.121094,-1.001587,0.153687,517
28433524,9990,-0.120972,-1.001221,0.153320,516
28443527,10003,-0.121460,-1.001587,0.153931,515
28453534,10007,-0.121338,-1.001099,0.153442,513
28463538,10004,-0.122314,-1.000732,0.153809,513
28473513,9975,-0.121338,-1.000977,0.153320,515
28483510,9997,-0.120972,-1.001221,0.153687,512
28493527,10017,-0.119751,-1.001465,0.152954,511
28503531,10004,-0.121704,-1.001587,0.153687,511
28513516,9985,-0.121216,-1.001099,0.152832,506
28523530,10014,-0.121338,-1.001587,0.154419,512
28533525,9995,-0.122192,-1.000854,0.152588,510
28543526,10001,-0.121948,-1.000854,0.153564,509
28553535,10009,-0.121338,-1.000977,0.153931,509
28563522,9987,-0.121094,-1.000977,0.154785,510
28573529,10007,-0.122192,-1.002075,0.152954,503
28583530,10001,-0.121704,-1.001465,0.153687,509
28593512,9982,-0.120728,-1.001099,0.152466,511
28603535,10023,-0.121460,-1.001343,0.153687,508
28613515,9980,-0.121094,-1.001587,0.153687,511
28623528,10013,-0.121338,-1.001099,0.154541,511
28633524,9996,-0.122070,-1.000854,0.155273,509
28643526,10002,-0.121216,-1.001343,0.152466,505
28653511,9985,-0.120972,-1.001099,0.152344,504
28663508,9997,-0.121826,-1.001465,0.152710,511
28673517,10009,-0.121582,-1.001099,0.153198,507
28683515,9998,-0.120972,-1.002197,0.152588,512
28693528,10013,-0.120850,-1.001221,0.154053,511
28703528,10000,-0.120850,-1.001709,0.153687,511
28713529,10001,-0.121216,-1.000977,0.154053,527
28723537,10008,-0.121094,-1.001221,0.154663,503
28733536,9999,-0.121338,-1.000732,0.153931,512
28743521,9985,-0.121704,-1.001343,0.153687,510
28753536,10015,-0.122314,-1.000732,0.152832,510
28763514,9978,-0.121704,-1.000977,0.153076,509
28773528,10014,-0.122437,-1.001221,0.152222,509
28783534,10006,-0.121826,-1.000977,0.152588,511
28793527,9993,-0.120972,-1.001221,0.153076,508
28803510,9983,-0.121582,-1.000732,0.154053,507
28813514,10004,-0.121338,-1.001953,0.153564,510
28823521,10007,-0.121460,-1.001099,0.154663,488
28833510,9989,-0.122314,-1.001221,0.153931,505
28843520,10010,-0.123169,-1.000977,0.153809,511
28853519,9999,-0.121704,-1.000854,0.153564,510
28863519,10000,-0.120850,-1.001709,0.153076,505
28873537,10018,-0.121582,-1.001343,0.153687,509
28883528,9991,-0.121460,-1.001221,0.153198,507
28893510,9982,-0.121094,-1.001343,0.153442,507
28903535,10025,-0.122070,-1.001709,0.153076,509
28913508,9973,-0.121826,-1.001587,0.153931,516
28923528,10020,-0.121582,-1.001099,0.154541,508
28933534,10006,-0.121826,-1.000854,0.153809,510
28943543,10009,-0.122070,-1.001831,0.152832,508
28953523,9980,-0.122925,-1.001343,0.152588,509
28963534,10011,-0.122559,-1.001953,0.153198,509
28973527,9993,-0.120972,-1.001221,0.152100,509
28983525,9998,-0.120728,-1.001099,0.152832,503
28993533,10008,-0.120728,-1.001465,0.154785,503
29003527,9994,-0.121704,-1.001465,0.153442,507
29013507,9980,-0.121094,-1.000977,0.152344,508
29023509,10002,-0.120850,-1.001099,0.152588,502
29033534,10025,-0.122070,-1.001099,0.153320,509
29043524,9990,-0.121216,-1.001343,0.152954,509
29053535,10011,-0.121460,-1.000732,0.152832,505
29063531,9996,-0.121460,-1.001465,0.154053,507
29073530,9999,-0.120605,-1.000977,0.154419,507
29083512,9982,-0.122437,-1.001953,0.153442,517
29093516,10004,-0.121582,-1.000610,0.153442,513
29103520,10004,-0.122070,-1.001587,0.153320,507
29113526,10006,-0.120361,-1.001587,0.153564,515
29123514,9988,-0.119507,-1.001953,0.153564,511
29133519,10005,-0.121704,-1.001831,0.153320,513
29143521,10002,-0.121216,-1.001343,0.153687,516
29153512,9991,-0.121948,-1.000732,0.154175,531
29163510,9998,-0.120117,-1.001099,0.153076,520
29173532,10022,-0.120117,-1.000977,0.153809,516
29183536,10004,-0.120972,-1.001465,0.154175,518
29193533,9997,-0.121582,-1.001709,0.152222,513
29203535,10002,-0.121582,-1.001343,0.153809,515
29213508,9973,-0.122437,-1.001099,0.153198,517
29223530,10022,-0.121826,-1.000977,0.152954,513
29233533,10003,-0.121582,-1.001099,0.153442,511
29243509,9976,-0.120972,-1.001831,0.152588,516
29253530,10021,-0.121216,-1.001465,0.153564,512
29263507,9977,-0.122070,-1.002930,0.153564,512
29273532,10025,-0.121826,-1.001587,0.153564,508
29283508,9976,-0.120728,-1.001465,0.153564,511
29293527,10019,-0.120850,-1.000977,0.152344,510
29303535,10008,-0.121094,-1.000977,0.152954,509
29313512,9977,-0.120850,-1.001831,0.152344,510
29323507,9995,-0.119629,-1.001465,0.153320,511
29333519,10012,-0.120361,-1.001343,0.153564,511
29343527,10008,-0.120728,-1.001343,0.153198,508
29353517,9990,-0.120972,-1.001587,0.153198,510
29363529,10012,-0.120483,-1.001221,0.153320,505
29373515,9986,-0.121338,-1.001343,0.154053,509
29383534,10019,-0.120850,-1.000854,0.154053,508
29393514,9980,-0.121460,-1.000977,0.151978,511
29403510,9996,-0.121338,-1.000732,0.152588,507
29413519,10009,-0.120239,-1.001221,0.153076,512
29423508,9989,-0.120728,-1.001343,0.152344,510
29433526,10018,-0.120972,-1.001221,0.153320,508
29443532,10006,-0.120728,-1.000977,0.153320,506
29453518,9986,-0.120361,-1.000732,0.152710,511
29463508,9990,-0.119629,-1.001709,0.152832,513
29473513,10005,-0.120972,-1.001343,0.153442,512
29483530,10017,-0.121094,-1.001099,0.152588,512
29493514,9984,-0.120605,-1.001587,0.153076,511
29503532,10018,-0.120728,-1.001099,0.152710,511
29513521,9989,-0.121216,-1.001221,0.153687,510
29523520,9999,-0.121338,-1.001343,0.152588,507
29533528,10008,-0.121582,-1.001343,0.154053,510
29543510,9982,-0.121094,-1.001099,0.153442,510
29553534,10024,-0.121582,-1.000977,0.153076,511
29563517,9983,-0.120728,-1.001953,0.152588,511
29573519,10002,-0.120728,-1.001831,0.152222,509
29583517,9998,-0.121460,-1.001587,0.152954,508
29593524,10007,-0.120728,-1.001587,0.153076,510
29603516,9992,-0.121216,-1.000977,0.152222,503
29613524,10008,-0.121582,-1.002563,0.154175,510
29623514,9990,-0.122070,-1.001709,0.153442,510
29633530,10016,-0.120728,-1.001587,0.152954,502
29643527,9997,-0.121460,-1.001465,0.153320,510
29653507,9980,-0.120361,-1.000977,0.152222,509
29663519,10012,-0.120728,-1.001831,0.152954,510
29673507,9988,-0.120850,-1.001953,0.152954,507
29683520,10013,-0.120728,-1.001587,0.153198,508
29693535,10015,-0.120972,-1.001221,0.153442,509
29703514,9979,-0.121704,-1.001465,0.152710,509
29713511,9997,-0.119995,-1.001953,0.153442,507
29723533,10022,-0.120728,-1.001343,0.153198,507
29733521,9988,-0.120605,-1.001343,0.151855,510
29743528,10007,-0.120972,-1.001221,0.152100,509
29753512,9984,-0.120728,-1.001587,0.153076,506
29763534,10022,-0.120361,-1.001343,0.152954,509
29773536,10002,-0.121094,-1.001465,0.153320,511
29783519,9983,-0.120728,-1.001221,0.153076,507
29793514,9995,-0.121216,-1.001465,0.153198,511
29803534,10020,-0.121582,-1.001587,0.152466,508
29813513,9979,-0.120483,-1.001831,0.153076,508
29823518,10005,-0.121582,-1.001221,0.154053,510
29833507,9989,-0.120728,-1.002075,0.153564,510
29843525,10018,-0.120605,-1.001221,0.152710,512
29853522,9997,-0.120605,-1.001099,0.153687,511
29863535,10013,-0.121094,-1.001587,0.152710,514
29873524,9989,-0.120972,-1.001221,0.153320,514
29883529,10005,-0.121094,-1.001587,0.152100,508
29893526,9997,-0.120850,-1.002075,0.153687,511
29903529,10003,-0.120117,-1.001709,0.153564,515
29913522,9993,-0.120483,-1.001221,0.153687,518
29923513,9991,-0.121216,-1.001709,0.153442,519
29933517,10004,-0.121216,-1.001709,0.152710,510
29943518,10001,-0.121094,-1.000977,0.152588,515
29953511,9993,-0.120850,-1.001465,0.153320,513
29963516,10005,-0.121094,-1.000977,0.152466,514
29973515,9999,-0.120850,-1.002075,0.153442,519
29983534,10019,-0.121216,-1.001343,0.153564,517
29993514,9980,-0.121826,-1.001099,0.152588,517
30003520,10006,-0.121094,-1.000977,0.153076,517
30013512,9992,-0.121216,-1.001587,0.155029,514
30023513,10001,-0.122437,-1.001831,0.152832,511
30033532,10019,-0.121094,-1.000854,0.153320,507
30043519,9987,-0.121094,-1.001465,0.152954,513
30053516,9997,-0.121094,-1.001221,0.153198,513
30063535,10019,-0.121338,-1.000977,0.152954,508
30073529,9994,-0.120972,-1.000977,0.153076,512
30083519,9990,-0.121582,-1.001343,0.152954,509
30093529,10010,-0.121460,-1.001343,0.153198,510
30103518,9989,-0.121216,-1.001099,0.153442,505
30113516,9998,-0.121216,-1.001343,0.153198,506
30123525,10009,-0.121704,-1.000732,0.153320,511
30133509,9984,-0.121704,-1.001343,0.153076,510
30143520,10011,-0.121826,-1.000977,0.152344,510
30153511,9991,-0.122314,-1.001099,0.153320,509
30163525,10014,-0.121094,-1.001465,0.153809,507
30173516,9991,-0.120605,-1.001221,0.153076,512
30183511,9995,-0.121826,-1.000732,0.153931,509
30193531,10020,-0.122070,-1.000977,0.153320,509
30203528,9997,-0.121460,-1.001465,0.153687,504
30213516,9988,-0.121460,-1.000977,0.152954,512
30223515,9999,-0.122192,-1.000977,0.153320,508
30233536,10021,-0.121216,-1.001099,0.153076,512
30243534,9998,-0.120361,-1.000854,0.153076,510
30253514,9980,-0.120850,-1.000854,0.153198,507
30263511,9997,-0.121216,-1.000977,0.153198,508
30273508,9997,-0.121216,-1.001099,0.153442,509
30283534,10026,-0.120483,-1.000854,0.152588,512
30293527,9993,-0.120850,-1.002197,0.152832,511
30303530,10003,-0.120972,-1.001221,0.154419,510
30313507,9977,-0.121582,-1.001587,0.153564,507
30323513,10006,-0.121582,-1.001831,0.154053,509
30333533,10020,-0.121948,-1.001465,0.153442,511
30343514,9981,-0.121948,-1.000977,0.154053,509
30353533,10019,-0.121338,-1.001465,0.152954,509
30363534,10001,-0.121094,-1.001099,0.153320,509
30373553,10019,-0.121216,-1.001465,0.154175,510
30383516,9963,-0.121948,-1.001099,0.153320,509
30393512,9996,-0.122314,-1.000732,0.153320,507
30403508,9996,-0.122070,-1.001831,0.152710,507
30413516,10008,-0.122559,-1.000732,0.153442,506
30423530,10014,-0.122192,-1.001465,0.153564,509
30433534,10004,-0.121704,-1.001343,0.153809,509
30443535,10001,-0.122070,-1.001099,0.153320,522
30453513,9978,-0.121216,-1.001953,0.153442,506
30463512,9999,-0.121704,-1.000977,0.153442,505
30473521,10009,-0.122070,-1.000977,0.153809,510
30483518,9997,-0.121826,-1.001709,0.152344,508
30493518,10000,-0.121826,-1.000977,0.153076,505
30503546,10028,-0.121704,-1.001221,0.152832,511
30513527,9981,-0.121704,-1.001221,0.153198,509
30523508,9981,-0.121216,-1.001465,0.152466,510
30533523,10015,-0.120605,-1.000977,0.153076,509
30543511,9988,-0.121094,-1.001221,0.154053,510
30553525,10014,-0.121338,-1.001099,0.153564,510
30563530,10005,-0.121460,-1.001587,0.153687,510
30573518,9988,-0.121338,-1.001099,0.152954,506
30583510,9992,-0.120728,-1.001465,0.153564,511
30593533,10023,-0.121460,-1.001709,0.152466,510
30603521,9988,-0.121582,-1.001099,0.153564,513
30613537,10016,-0.121460,-1.001709,0.152954,511
30623523,9986,-0.121216,-1.001221,0.153564,513
30633520,9997,-0.121460,-1.002319,0.152954,511
30643536,10016,-0.121338,-1.001343,0.153687,513
30653512,9976,-0.120850,-1.001343,0.153931,520
30663528,10016,-0.121338,-1.001587,0.153198,516
30673516,9988,-0.121704,-1.001465,0.152710,516
30683554,10038,-0.121704,-1.001709,0.153442,518
30693512,9958,-0.120483,-1.001221,0.153442,513
30703526,10014,-0.122437,-1.000854,0.153442,518
30713508,9982,-0.122314,-1.000610,0.152588,504
30723520,10012,-0.121460,-1.001221,0.151855,521
30733533,10013,-0.121216,-1.001099,0.153320,514
30743531,9998,-0.122681,-1.001343,0.152832,514
30753529,9998,-0.122437,-1.001099,0.154297,514
30763523,9994,-0.121948,-1.001221,0.152954,514
30773511,9988,-0.122925,-1.000977,0.153931,516
30783524,10013,-0.121582,-1.000854,0.153442,510
30793528,10004,-0.122314,-1.001343,0.152954,504
30803516,9988,-0.122559,-1.001343,0.153809,512
30813509,9993,-0.122070,-1.001953,0.153687,512
30823516,10007,-0.122559,-1.000977,0.153076,508
30833509,9993,-0.121460,-1.001221,0.153320,512
30843550,10041,-0.121216,-1.001465,0.152466,503
30853511,9961,-0.121582,-1.001221,0.152954,505
30863522,10011,-0.122925,-1.001099,0.153442,510
30873519,9997,-0.122559,-1.000732,0.153076,509
30883507,9988,-0.122681,-1.000732,0.152588,511
30893510,10003,-0.123291,-1.001343,0.154297,503
30903507,9997,-0.123535,-1.001099,0.153320,502
30913507,10000,-0.122314,-1.000977,0.154053,504
30923508,10001,-0.122559,-1.001221,0.153076,510
30933526,10018,-0.122314,-1.000854,0.153564,508
30943533,10007,-0.120972,-1.001709,0.153320,509
30953526,9993,-0.122314,-1.001221,0.153564,506
30963514,9988,-0.122681,-1.001099,0.151978,512
30973509,9995,-0.123291,-1.000732,0.153809,508
30983533,10024,-0.124756,-1.001099,0.153931,513
30993553,10020,-0.122925,-1.000977,0.154175,506
31003514,9961,-0.122437,-1.000732,0.153076,506
31013526,10012,-0.121582,-1.000977,0.153687,511
31023509,9983,-0.121460,-1.001343,0.153564,510
31033514,10005,-0.121948,-1.000854,0.153320,512
31043525,10011,-0.121582,-1.001099,0.152832,510
31053519,9994,-0.121948,-1.001099,0.154053,510
31063512,9993,-0.122192,-1.000977,0.154297,504
31073532,10020,-0.121704,-1.001343,0.154785,509
31083522,9990,-0.122437,-1.000854,0.153564,513
31093509,9987,-0.122437,-1.002075,0.154541,511
31103525,10016,-0.122192,-1.001221,0.153076,505
31113535,10010,-0.121704,-1.000977,0.152954,508
31123543,10008,-0.122070,-1.001465,0.153442,524
31133536,9993,-0.121948,-1.001465,0.153931,507
31143518,9982,-0.121948,-1.000977,0.153931,508
31153551,10033,-0.122803,-1.001099,0.153564,511
31163530,9979,-0.122192,-1.000977,0.153564,511
31173532,10002,-0.121216,-1.001221,0.152222,508
31183519,9987,-0.122314,-1.000977,0.152832,512
31193518,9999,-0.123291,-1.000977,0.153564,505
31203509,9991,-0.123047,-1.001465,0.152832,510
31213517,10008,-0.123169,-1.001343,0.152954,510
31223521,10004,-0.122559,-1.001465,0.153198,510
31233515,9994,-0.122314,-1.001099,0.154297,484
31243536,10021,-0.122314,-1.000732,0.154053,509
31253509,9973,-0.122681,-1.001465,0.153198,509
31263509,10000,-0.124023,-1.001099,0.153931,510
31273527,10018,-0.123535,-1.000977,0.153564,502
31283554,10027,-0.121460,-1.001587,0.152466,507
31293521,9967,-0.122559,-1.001709,0.153076,508
31303522,10001,-0.122437,-1.001343,0.154175,508
31313530,10008,-0.121460,-1.001221,0.153564,505
31323513,9983,-0.122925,-1.001709,0.153442,509
31333533,10020,-0.122803,-1.001221,0.154175,508
31343537,10004,-0.121582,-1.001099,0.153320,505
31353517,9980,-0.123291,-1.000854,0.153809,506
31363517,10000,-0.123169,-1.001343,0.153687,512
31373511,9994,-0.122803,-1.001343,0.153320,512
31383523,10012,-0.121460,-1.000732,0.153442,513
31393529,10006,-0.122070,-1.001099,0.154053,515
31403512,9983,-0.122437,-1.001343,0.154663,508
31413530,10018,-0.122314,-1.000854,0.153564,516
31423513,9983,-0.122192,-1.001221,0.153564,515
31433521,10008,-0.123169,-1.000977,0.153809,518
31443511,9990,-0.122803,-1.001831,0.153442,519
31453535,10024,-0.123047,-1.000732,0.153076,519
31463522,9987,-0.122437,-1.000854,0.152710,520
31473519,9997,-0.122070,-1.000977,0.153198,516
31483534,10015,-0.122559,-1.000854,0.153442,519
31493531,9997,-0.121948,-1.001099,0.153076,519
31503527,9996,-0.121704,-1.000977,0.153320,517
31513509,9982,-0.122925,-1.000854,0.152832,518
31523531,10022,-0.123535,-1.000977,0.153320,514
31533529,9998,-0.123413,-1.000977,0.153931,514
31543507,9978,-0.123779,-1.000977,0.153198,511
31553512,10005,-0.122681,-1.001221,0.153320,514
31563510,9998,-0.122559,-1.001221,0.154175,512
31573530,10020,-0.121582,-1.001099,0.153687,517
31583508,9978,-0.122803,-1.001953,0.152954,503
31593512,10004,-0.121826,-1.000732,0.153687,505
31603545,10033,-0.122070,-1.001221,0.153809,507
31613507,9962,-0.122437,-1.000977,0.154297,509
31623535,10028,-0.122803,-1.000610,0.153687,509
31633532,9997,-0.123901,-1.001099,0.153320,511
31643530,9998,-0.122437,-1.001465,0.153198,511
31653515,9985,-0.123291,-1.000854,0.152832,505
31663525,10010,-0.122559,-1.001343,0.153198,511
31673525,10000,-0.122559,-1.001465,0.153320,511
31683507,9982,-0.122925,-1.000854,0.153931,507
31693515,10008,-0.121338,-1.001221,0.154175,511
31703507,9992,-0.122070,-1.001343,0.153687,509
31713511,10004,-0.121948,-1.001343,0.152832,506
31723508,9997,-0.122314,-1.001465,0.153687,511
31733516,10008,-0.122314,-1.000977,0.152954,510
31743520,10004,-0.122437,-1.001099,0.153564,514
31753518,9998,-0.122192,-1.000977,0.153076,508
31763515,9997,-0.122559,-1.001099,0.153564,512
31773528,10013,-0.122070,-1.001831,0.153198,512
31783522,9994,-0.122437,-1.001831,0.153198,511
31793534,10012,-0.121704,-1.002319,0.152954,504
31803533,9999,-0.122803,-1.000977,0.152344,510
31813517,9984,-0.122437,-1.001099,0.153076,505
31823507,9990,-0.121582,-1.001221,0.153564,506
31833533,10026,-0.121826,-1.001953,0.152710,510
31843527,9994,-0.121948,-1.000732,0.152588,512
31853508,9981,-0.121216,-1.000977,0.153076,503
31863521,10013,-0.122314,-1.000854,0.152222,505
31873521,10000,-0.122559,-1.000977,0.152954,511
31883514,9993,-0.121582,-1.001221,0.151855,508
31893525,10011,-0.122070,-1.001465,0.153320,508
31903519,9994,-0.121460,-1.000977,0.153320,510
31913508,9989,-0.121460,-1.001099,0.152832,511
31923521,10013,-0.122437,-1.000977,0.152344,502
31933533,10012,-0.122192,-1.002319,0.153809,507
31943511,9978,-0.121826,-1.001099,0.152588,511
31953525,10014,-0.120605,-1.000854,0.152832,505
31963522,9997,-0.121582,-1.000854,0.152344,508
31973516,9994,-0.122192,-1.001465,0.152710,510
31983536,10020,-0.121704,-1.002075,0.153442,503
31993514,9978,-0.122559,-1.001099,0.152954,511
32003510,9996,-0.121948,-1.001587,0.153809,503
32013508,9998,-0.123047,-1.001221,0.152588,510
32023534,10026,-0.123291,-1.000854,0.152466,507
32033536,10002,-0.122192,-1.001221,0.153198,503
32043524,9988,-0.121582,-1.000977,0.153564,512
32053530,10006,-0.122314,-1.001709,0.152832,510
32063521,9991,-0.121948,-1.001343,0.153198,511
32073533,10012,-0.122681,-1.001343,0.152954,511
32083532,9999,-0.121216,-1.001343,0.152588,504
32093527,9995,-0.122070,-1.001465,0.153076,508
32103530,10003,-0.123047,-1.001099,0.153198,511
32113509,9979,-0.122192,-1.001099,0.152466,509
32123526,10017,-0.122070,-1.001343,0.152954,508
32133532,10006,-0.122192,-1.000977,0.150879,512
32143513,9981,-0.122192,-1.000977,0.152100,514
32153526,10013,-0.121582,-1.001587,0.151367,517
32163519,9993,-0.122437,-1.001221,0.152588,513
32173532,10013,-0.121460,-1.001221,0.152466,514
32183533,10001,-0.123047,-1.001221,0.152954,514
32193526,9993,-0.122681,-1.002075,0.153198,513
32203533,10007,-0.121826,-1.000854,0.152710,517
32213511,9978,-0.121704,-1.001831,0.151855,515
32223512,10001,-0.121826,-1.001221,0.152100,517
32233522,10010,-0.121094,-1.001221,0.153442,513
32243515,9993,-0.121094,-1.001099,0.152344,520
32253521,10006,-0.121704,-1.001587,0.153931,520
32263529,10008,-0.122192,-1.001465,0.153198,514
32273517,9988,-0.122803,-1.001221,0.152588,518
32283536,10019,-0.122070,-1.001099,0.152466,516
32293517,9981,-0.122437,-1.001343,0.152588,517
32303530,10013,-0.123413,-1.001587,0.153320,512
32313509,9979,-0.122314,-1.001221,0.151855,513
32323517,10008,-0.122681,-1.000854,0.151733,510
32333531,10014,-0.123169,-1.000854,0.153198,512
32343533,10002,-0.122559,-1.001221,0.151978,507
32353521,9988,-0.121826,-1.001831,0.153320,512
32363514,9993,-0.122681,-1.001343,0.151245,505
32373521,10007,-0.120850,-1.001465,0.152222,508
32383526,10005,-0.121704,-1.001587,0.152588,509
32393537,10011,-0.122559,-1.001587,0.152710,510
32403521,9984,-0.122314,-1.001465,0.152710,510
32413507,9986,-0.121948,-1.001099,0.152466,512
32423517,10010,-0.122192,-1.001343,0.152588,512
32433524,10007,-0.122803,-1.001221,0.152954,511
32443518,9994,-0.122437,-1.000977,0.152710,511
32453540,10022,-0.122681,-1.000854,0.152344,508
32463509,9969,-0.122192,-1.001587,0.151978,505
32473516,10007,-0.121460,-1.001221,0.152710,510
32483521,10005,-0.122314,-1.000854,0.152100,511
32493516,9995,-0.121704,-1.001099,0.153687,511
32503525,10009,-0.122070,-1.001465,0.152710,510
32513523,9998,-0.121460,-1.000854,0.152832,512
32523526,10003,-0.122070,-1.001709,0.153198,513
32533518,9992,-0.121216,-1.001587,0.154175,510
32543515,9997,-0.121460,-1.001099,0.151855,511
32553530,10015,-0.121216,-1.001099,0.152222,511
32563514,9984,-0.122437,-1.001587,0.152588,510
32573524,10010,-0.121826,-1.001343,0.152710,512
32583516,9992,-0.121948,-1.001221,0.151245,513
32593510,9994,-0.121582,-1.001343,0.152954,511
32603512,10002,-0.121216,-1.001099,0.153076,508
32613535,10023,-0.121094,-1.001221,0.150757,510
32623534,9999,-0.122192,-1.001709,0.151245,493
32633520,9986,-0.121948,-1.001099,0.152588,511
32643510,9990,-0.121338,-1.000854,0.152710,506
32653535,10025,-0.121582,-1.001343,0.152588,509
32663530,9995,-0.121826,-1.001221,0.152588,505
32673511,9981,-0.121948,-1.001465,0.152344,504
32683526,10015,-0.121460,-1.001709,0.152222,507
32693509,9983,-0.122681,-1.001099,0.153076,510
32703533,10024,-0.120728,-1.000977,0.152222,510
32713530,9997,-0.121582,-1.001099,0.152466,506
32723520,9990,-0.121338,-1.001709,0.152588,507
32733532,10012,-0.121826,-1.001099,0.152710,505
32743530,9998,-0.121094,-1.001465,0.153442,509
32753526,9996,-0.121582,-1.001709,0.152832,506
32763534,10008,-0.122559,-1.001221,0.153076,509
32773533,9999,-0.122314,-1.001587,0.151367,511
32783517,9984,-0.121826,-1.001953,0.152344,511
32793524,10007,-0.121338,-1.001099,0.152222,505
32803522,9998,-0.121460,-1.001343,0.153076,503
32813537,10015,-0.121460,-1.001099,0.152344,503
32823531,9994,-0.120972,-1.001099,0.152832,509
32833521,9990,-0.121094,-1.001709,0.152466,510
32843531,10010,-0.121094,-1.002197,0.151978,510
32853529,9998,-0.120239,-1.001221,0.152832,512
32863516,9987,-0.122192,-1.001221,0.153198,509
32873528,10012,-0.121582,-1.001587,0.151245,511
32883517,9989,-0.120972,-1.001465,0.151855,511
32893514,9997,-0.122070,-1.001099,0.151978,510
32903535,10021,-0.121826,-1.001343,0.151123,514
32913531,9996,-0.121826,-1.001587,0.152344,511
32923519,9988,-0.122070,-1.001099,0.153198,512
32933537,10018,-0.121338,-1.001343,0.152710,516
32943530,9993,-0.120361,-1.001709,0.151489,516
32953523,9993,-0.121460,-1.002197,0.152344,512
32963507,9984,-0.119995,-1.001465,0.152466,517
32973521,10014,-0.120117,-1.000977,0.152954,517
32983535,10014,-0.120483,-1.000977,0.152100,518
32993522,9987,-0.120850,-1.001587,0.152588,518
33003522,10000,-0.120972,-1.000977,0.152832,511
33013520,9998,-0.121826,-1.001343,0.153198,518
33023509,9989,-0.121338,-1.001099,0.151245,518
33033516,10007,-0.121216,-1.000977,0.151733,517
33043535,10019,-0.121338,-1.000732,0.151978,515
33053512,9977,-0.121094,-1.001343,0.151367,510
33063522,10010,-0.120361,-1.001587,0.151733,511
33073522,10000,-0.120239,-1.001221,0.152588,508
33083560,10038,-0.121826,-1.001465,0.153809,512
33093512,9952,-0.119751,-1.001465,0.152222,509
33103507,9995,-0.121704,-1.001099,0.152832,509
33113526,10019,-0.121582,-1.000854,0.153076,510
33123511,9985,-0.121582,-1.001099,0.152710,510
33133522,10011,-0.121094,-1.000977,0.153564,509
33143524,10002,-0.120972,-1.000977,0.153076,511
33153534,10010,-0.121216,-1.001221,0.151245,509
33163530,9996,-0.121216,-1.001221,0.152222,510
33173517,9987,-0.121094,-1.002075,0.152344,509
33183523,10006,-0.121826,-1.001099,0.153564,510
33193527,10004,-0.121460,-1.001465,0.152954,509
33203519,9992,-0.121582,-1.001709,0.152588,509
33213516,9997,-0.121704,-1.001221,0.151611,510
33223517,10001,-0.119995,-1.001099,0.152100,505
33233529,10012,-0.121338,-1.000977,0.153076,511
33243543,10014,-0.120972,-1.001831,0.152344,510
33253514,9971,-0.121582,-1.001099,0.152344,511
33263508,9994,-0.121338,-1.001587,0.151978,505
33273511,10003,-0.121826,-1.001221,0.152344,501
33283528,10017,-0.122925,-1.000854,0.151855,511
33293530,10002,-0.121948,-1.000977,0.152222,510
33303526,9996,-0.120972,-1.000732,0.152466,508
33313515,9989,-0.121338,-1.001465,0.153320,511
33323530,10015,-0.121094,-1.001831,0.152954,505
33333511,9981,-0.121582,-1.001221,0.153687,510
33343521,10010,-0.121948,-1.001465,0.152710,508
33353529,10008,-0.121948,-1.000854,0.151733,507
33363523,9994,-0.121948,-1.000977,0.152100,511
33373530,10007,-0.121826,-1.000732,0.153076,507
33383543,10013,-0.121582,-1.001465,0.152832,512
33393520,9977,-0.120605,-1.001099,0.152710,502
33403507,9987,-0.121948,-1.001099,0.152344,510
33413534,10027,-0.122192,-1.001465,0.153198,511
33423526,9992,-0.121338,-1.001465,0.151855,510
33433532,10006,-0.121582,-1.001099,0.152344,510
33443507,9975,-0.121826,-1.001587,0.152710,508
33453519,10012,-0.121826,-1.001099,0.152832,510
33463531,10012,-0.121704,-1.001099,0.152588,506
33473522,9991,-0.121460,-1.001587,0.152222,508
33483518,9996,-0.121826,-1.001221,0.152588,505
33493531,10013,-0.122314,-1.000977,0.152588,510
33503530,9999,-0.122803,-1.000854,0.153320,514
33513525,9995,-0.121460,-1.000732,0.152710,504
33523510,9985,-0.121948,-1.000977,0.152222,505
33533548,10038,-0.121826,-1.001343,0.151978,512
33543507,9959,-0.122070,-1.001587,0.153564,511
33553525,10018,-0.121216,-1.001343,0.153198,511
33563527,10002,-0.122314,-1.000977,0.154175,509
33573534,10007,-0.122070,-1.001221,0.153198,506
33583509,9975,-0.121582,-1.001465,0.153809,511
33593508,9999,-0.122314,-1.000854,0.152710,509
33603524,10016,-0.122314,-1.001465,0.152588,508
33613507,9983,-0.121948,-1.001099,0.153442,511
33623525,10018,-0.120728,-1.000977,0.152832,508
33633520,9995,-0.121094,-1.001343,0.153076,513
33643521,10001,-0.121582,-1.000977,0.152710,507
33653530,10009,-0.122070,-1.000854,0.152100,513
33663526,9996,-0.122437,-1.001099,0.151489,513
33673525,9999,-0.122314,-1.001587,0.153809,516
33683529,10004,-0.121948,-1.001099,0.152344,516
33693530,10001,-0.121460,-1.001831,0.153687,519
33703531,10001,-0.122070,-1.000977,0.152710,520
33713516,9985,-0.121582,-1.001465,0.152710,516
33723516,10000,-0.121216,-1.001343,0.152588,517
33733536,10020,-0.121826,-1.001221,0.154175,519
33743531,9995,-0.122192,-1.000977,0.153442,516
33753522,9991,-0.122559,-1.000977,0.153320,517
33763517,9995,-0.123169,-1.001099,0.152832,516
33773527,10010,-0.122192,-1.001343,0.151611,516
33783528,10001,-0.122192,-1.001221,0.153320,512
33793523,9995,-0.123413,-1.001343,0.152344,510
33803513,9990,-0.121826,-1.001465,0.151978,510
33813530,10017,-0.122559,-1.000977,0.152588,499
33823514,9984,-0.122192,-1.001099,0.153442,511
33833524,10010,-0.121582,-1.000977,0.153198,511
33843517,9993,-0.121582,-1.001099,0.152222,511
33853531,10014,-0.121826,-1.000977,0.152588,511
33863521,9990,-0.121704,-1.000732,0.152100,510
33873514,9993,-0.122925,-1.001343,0.152954,501
33883534,10020,-0.122192,-1.001221,0.152100,510
33893535,10001,-0.123047,-1.000977,0.152710,509
33903534,9999,-0.123047,-1.001343,0.152832,509
33913513,9979,-0.122559,-1.001343,0.152710,512
33923526,10013,-0.121948,-1.000977,0.152466,508
33933507,9981,-0.122681,-1.000977,0.153809,512
33943534,10027,-0.122192,-1.001465,0.152832,511
33953535,10001,-0.122314,-1.001099,0.153076,511
33963536,10001,-0.122070,-1.001221,0.153198,512
33973528,9992,-0.122070,-1.000977,0.152100,504
33983520,9992,-0.122925,-1.001221,0.151611,513
33993515,9995,-0.122925,-1.000854,0.153198,510
34003537,10022,-0.122559,-1.001587,0.153687,510
34013544,10007,-0.121582,-1.000977,0.153320,511
34023524,9980,-0.121460,-1.001221,0.153564,511
34033532,10008,-0.122559,-1.000854,0.152466,511
34043527,9995,-0.122681,-1.001221,0.153442,510
34053517,9990,-0.122314,-1.000977,0.152954,513
34063521,10004,-0.121582,-1.001221,0.153076,506
34073529,10008,-0.121704,-1.001099,0.152832,507
34083508,9979,-0.121704,-1.001221,0.152222,512
34093534,10026,-0.121216,-1.001343,0.153320,511
34103520,9986,-0.122681,-1.000732,0.152100,509
34113508,9988,-0.121826,-1.001099,0.151978,512
34123507,9999,-0.122314,-1.001709,0.153442,509
34133529,10022,-0.122803,-1.001465,0.152954,510
34143518,9989,-0.122681,-1.000977,0.152466,510
34153514,9996,-0.122925,-1.001587,0.151367,509
34163530,10016,-0.122559,-1.000977,0.152832,510
34173536,10006,-0.122437,-1.000977,0.152710,509
34183535,9999,-0.122559,-1.001221,0.152466,507
34193530,9995,-0.122681,-1.001221,0.152344,512
34203516,9986,-0.122314,-1.001099,0.152344,506
34213509,9993,-0.121460,-1.001465,0.154175,514
34223518,10009,-0.122925,-1.001709,0.153564,509
34233536,10018,-0.123291,-1.001221,0.153320,509
34243517,9981,-0.123291,-1.001099,0.153076,510
34253515,9998,-0.124390,-1.001099,0.152100,507
34263507,9992,-0.122559,-1.000610,0.153809,511
34273528,10021,-0.122437,-1.000977,0.152832,504
34283523,9995,-0.122559,-1.001099,0.152832,511
34293533,10010,-0.123047,-1.001221,0.152344,508
34303521,9988,-0.122681,-1.002075,0.153687,514
34313536,10015,-0.122314,-1.000977,0.153809,512
34323513,9977,-0.123413,-1.001465,0.153198,506
34333514,10001,-0.122437,-1.000854,0.152100,510
34343539,10025,-0.123169,-1.000977,0.151978,512
34353525,9986,-0.123535,-1.001587,0.153564,507
34363522,9997,-0.123413,-1.000610,0.153320,511
34373513,9991,-0.122681,-1.000854,0.152710,510
34383519,10006,-0.122314,-1.001587,0.152222,513
34393511,9992,-0.121704,-1.001099,0.151489,503
34403510,9999,-0.122437,-1.001221,0.151855,509
34413510,10000,-0.122070,-1.000977,0.153198,516
34423530,10020,-0.122681,-1.001099,0.152588,519
34433512,9982,-0.121582,-1.000732,0.152832,518
34443507,9995,-0.122559,-1.001587,0.152832,514
34453519,10012,-0.123047,-1.000854,0.153198,520
34463520,10001,-0.122070,-1.001099,0.152954,517
34473530,10010,-0.123047,-1.001099,0.154297,517
34483509,9979,-0.123901,-1.000732,0.152832,517
34493523,10014,-0.123291,-1.000854,0.152466,519
34503531,10008,-0.123413,-1.000854,0.153076,512
34513530,9999,-0.123413,-1.001221,0.152344,513
34523525,9995,-0.122192,-1.000854,0.152710,514
34533534,10009,-0.122314,-1.001709,0.151978,512
34543507,9973,-0.122559,-1.001221,0.152100,514
34553526,10019,-0.124268,-1.001221,0.152832,515
34563530,10004,-0.124146,-1.001343,0.153442,510
34573528,9998,-0.123047,-1.000977,0.153320,512
34583534,10006,-0.122437,-1.000854,0.153564,511
34593516,9982,-0.122803,-1.001221,0.153076,512
34603512,9996,-0.122803,-1.001953,0.152344,509
34613533,10021,-0.123657,-1.001221,0.152710,506
34623522,9989,-0.123291,-1.000977,0.151855,510
34633508,9986,-0.123901,-1.001465,0.153442,497
34643508,10000,-0.122925,-1.000977,0.153076,510
34653513,10005,-0.123413,-1.001221,0.153076,510
34663530,10017,-0.122192,-1.000977,0.152344,505
34673518,9988,-0.123169,-1.001343,0.153076,511
34683512,9994,-0.123291,-1.001343,0.153564,509
34693525,10013,-0.123779,-1.000854,0.152710,510
34703519,9994,-0.124146,-1.001099,0.151733,512
34713522,10003,-0.122803,-1.001099,0.151611,512
34723531,10009,-0.123413,-1.001343,0.151733,510
34733537,10006,-0.122192,-1.001465,0.153198,509
34743519,9982,-0.122192,-1.000977,0.152466,513
34753510,9991,-0.122314,-1.001099,0.153320,506
34763529,10019,-0.124023,-1.000854,0.153076,506
34773513,9984,-0.124390,-1.000977,0.152954,511
34783524,10011,-0.122314,-1.001099,0.152100,512
34793532,10008,-0.123291,-1.000732,0.151855,513
34803527,9995,-0.122803,-1.001221,0.153198,511
34813528,10001,-0.122192,-1.001343,0.153198,505
34823531,10003,-0.122681,-1.001709,0.152710,505
34833563,10032,-0.123291,-1.001587,0.153320,511
34843513,9950,-0.122925,-1.001343,0.152588,508
34853513,10000,-0.123413,-1.001221,0.152588,510
34863511,9998,-0.123657,-1.000977,0.151855,510
34873535,10024,-0.123047,-1.001343,0.152710,509
34883519,9984,-0.123413,-1.000732,0.153564,504
34893512,9993,-0.123169,-1.001343,0.152954,509
34903509,9997,-0.123291,-1.000977,0.152954,509
34913513,10004,-0.123535,-1.000977,0.152832,508
34923517,10004,-0.123169,-1.000977,0.152100,507
34933513,9996,-0.122437,-1.000854,0.152344,508
34943513,10000,-0.123413,-1.000977,0.153442,509
34953518,10005,-0.123047,-1.001465,0.152832,509
34963512,9994,-0.122559,-1.001465,0.152954,509
34973546,10034,-0.124634,-1.001221,0.153320,505
34983552,10006,-0.123657,-1.001343,0.153198,502
34993527,9975,-0.123169,-1.001221,0.152466,509
35003509,9982,-0.123169,-1.000977,0.153442,512
35013536,10027,-0.123047,-1.000977,0.153687,512
35023514,9978,-0.122803,-1.001099,0.153320,505
35033536,10022,-0.122559,-1.000854,0.152710,508
35043533,9997,-0.123169,-1.001465,0.152710,507
35053525,9992,-0.122070,-1.001221,0.153076,509
35063529,10004,-0.122437,-1.001099,0.153442,507
35073511,9982,-0.124268,-1.001465,0.152466,503
35083515,10004,-0.123535,-1.001099,0.152222,509
35093511,9996,-0.123047,-1.001099,0.152710,511
35103536,10025,-0.123901,-1.000977,0.152466,511
35113515,9979,-0.122925,-1.000977,0.152344,512
35123513,9998,-0.123657,-1.001221,0.151855,507
35133547,10034,-0.123657,-1.001343,0.152588,507
35143527,9980,-0.122559,-1.001099,0.152466,510
35153524,9997,-0.123901,-1.000977,0.153076,515
35163525,10001,-0.124512,-1.000977,0.153076,516
35173512,9987,-0.124146,-1.000854,0.152588,514
35183516,10004,-0.123535,-1.001221,0.152588,519
35193533,10017,-0.122314,-1.001221,0.152710,520
35203517,9984,-0.121948,-1.001831,0.153198,519
35213515,9998,-0.122803,-1.000977,0.152222,518
35223527,10012,-0.123413,-1.000977,0.151978,516
35233515,9988,-0.123291,-1.000977,0.153076,513
35243518,10003,-0.123779,-1.000610,0.152832,517
35253522,10004,-0.124146,-1.000977,0.151978,516
35263515,9993,-0.123413,-1.001221,0.151611,515
35273524,10009,-0.124512,-1.001221,0.152710,513
35283531,10007,-0.124634,-1.000854,0.153076,514
35293561,10030,-0.125000,-1.001099,0.152344,510
35303522,9961,-0.122925,-1.001465,0.153076,511
35313529,10007,-0.122559,-1.001343,0.152344,512
35323515,9986,-0.122559,-1.001465,0.152832,511
35333510,9995,-0.124512,-1.001587,0.152832,512
35343513,10003,-0.122559,-1.001221,0.153198,503
35353526,10013,-0.124634,-1.000854,0.152466,509
35363521,9995,-0.123535,-1.000854,0.152100,503
35373526,10005,-0.124268,-1.000610,0.152466,509
35383513,9987,-0.124023,-1.000977,0.151855,509
35393534,10021,-0.122681,-1.001343,0.152100,507
35403517,9983,-0.123535,-1.001343,0.152710,511
35413520,10003,-0.122192,-1.000854,0.150879,507
35423509,9989,-0.122559,-1.001587,0.152954,509
35433525,10016,-0.123169,-1.001221,0.152710,506
35443516,9991,-0.123413,-1.000854,0.153076,510
35453542,10026,-0.123047,-1.001099,0.152710,511
35463536,9994,-0.123657,-1.001099,0.151489,510
35473507,9971,-0.123535,-1.001953,0.152710,510
35483517,10010,-0.122559,-1.001587,0.152344,508
35493526,10009,-0.121338,-1.001099,0.152222,511
35503509,9983,-0.122559,-1.001221,0.152954,510
35513517,10008,-0.122559,-1.002075,0.152344,505
35523531,10014,-0.122559,-1.001221,0.152222,509
35533527,9996,-0.123413,-1.001465,0.153198,505
35543523,9996,-0.123657,-1.000854,0.152832,507
35553517,9994,-0.124634,-1.000977,0.152222,508
35563525,10008,-0.123535,-1.001343,0.152588,501
35573513,9988,-0.121582,-1.001343,0.152344,506
35583534,10021,-0.123657,-1.000977,0.151855,512
35593524,9990,-0.122314,-1.000977,0.153076,504
35603534,10010,-0.123291,-1.001221,0.152222,506
35613521,9987,-0.121216,-1.000977,0.152710,509
35623545,10024,-0.122314,-1.000732,0.152466,511
35633564,10019,-0.122314,-1.000977,0.152466,505
35643508,9944,-0.122070,-1.001221,0.152832,509
35653523,10015,-0.122925,-1.001343,0.153320,509
35663513,9990,-0.123901,-1.001221,0.151489,509
35673535,10022,-0.122070,-1.000854,0.152832,506
35683516,9981,-0.122437,-1.001831,0.151978,509
35693517,10001,-0.122314,-1.001099,0.153564,507
35703518,10001,-0.121460,-1.000854,0.153564,512
35713510,9992,-0.122559,-1.000977,0.152466,510
35723513,10003,-0.122070,-1.001343,0.151123,508
35733507,9994,-0.123413,-1.000977,0.153076,509
35743531,10024,-0.122559,-1.001221,0.152222,510
35753529,9998,-0.123047,-1.001221,0.152100,509
35763510,9981,-0.122803,-1.000854,0.151978,512
35773510,10000,-0.122803,-1.001221,0.152954,510
35783515,10005,-0.122681,-1.000977,0.153442,508
35793561,10046,-0.122314,-1.000977,0.152954,510
35803535,9974,-0.122314,-1.001221,0.152588,504
35814358,10823,-0.122803,-1.000854,0.151733,511
35823523,9165,-0.123047,-1.000977,0.151489,505
35833512,9989,-0.122559,-1.001221,0.152344,504
35843535,10023,-0.122925,-1.000854,0.152100,509
35853534,9999,-0.122559,-1.000977,0.151611,511
35863521,9987,-0.122681,-1.001099,0.151489,505
35873525,10004,-0.123779,-1.001343,0.152466,512
35883519,9994,-0.122314,-1.000977,0.153809,508
35893516,9997,-0.122925,-1.000854,0.153442,514
35903516,10000,-0.122681,-1.000977,0.152344,507
35913531,10015,-0.121826,-1.000854,0.152954,512
35923527,9996,-0.121948,-1.001099,0.152588,516
35933526,9999,-0.121216,-1.001221,0.152954,515
35943517,9991,-0.122192,-1.001221,0.153198,518
35953518,10001,-0.122070,-1.000854,0.151978,518
35963564,10046,-0.121826,-1.001343,0.152710,513
35973513,9949,-0.121582,-1.001221,0.152466,519
35983536,10023,-0.122314,-1.001221,0.152588,515
35993534,9998,-0.122925,-1.001343,0.152344,518
36003520,9986,-0.123657,-1.000732,0.152832,517
36013523,10003,-0.122681,-1.000854,0.152466,517
36023509,9986,-0.122681,-1.000854,0.152100,509
36033526,10017,-0.124023,-1.001099,0.151733,509
36043534,10008,-0.122559,-1.000977,0.152100,512
36053510,9976,-0.122559,-1.000854,0.152344,511
36063522,10012,-0.121460,-1.002686,0.151611,514
36073522,10000,-0.121826,-1.001587,0.152710,510
36083535,10013,-0.121460,-1.001099,0.152100,508
36093508,9973,-0.121704,-1.001709,0.151855,509
36103509,10001,-0.121704,-1.001099,0.151245,505
36113517,10008,-0.121460,-1.001221,0.152344,508
36123519,10002,-0.122437,-1.001343,0.152344,511
36133510,9991,-0.122437,-1.001343,0.152222,505
36143527,10017,-0.122314,-1.001221,0.151123,510
36153509,9982,-0.121460,-1.001343,0.151489,508
36163513,10004,-0.121948,-1.001709,0.151978,509
36173516,10003,-0.121216,-1.001221,0.151489,509
36183526,10010,-0.121582,-1.000977,0.152344,516
36193531,10005,-0.121338,-1.001221,0.152710,508
36203528,9997,-0.121582,-1.001831,0.152466,510
36213513,9985,-0.121704,-1.000977,0.152954,507
36223510,9997,-0.121582,-1.000732,0.152222,506
36233521,10011,-0.122314,-1.001343,0.152954,507
36243517,9996,-0.122314,-1.001709,0.152466,510
36253514,9997,-0.121338,-1.000977,0.151611,513
36263518,10004,-0.122192,-1.001343,0.152100,505
36273527,10009,-0.122437,-1.000732,0.152100,511
36283521,9994,-0.121704,-1.001587,0.152710,512
36293519,9998,-0.122192,-1.001343,0.152954,509
36303512,9993,-0.122070,-1.001099,0.152222,511
36313556,10044,-0.122559,-1.001343,0.152344,508
36323510,9954,-0.121704,-1.000854,0.152344,509
36333518,10008,-0.121094,-1.001221,0.151245,508
36343536,10018,-0.122192,-1.001831,0.152466,507
36353531,9995,-0.122314,-1.001099,0.152954,508
36363507,9976,-0.121338,-1.001343,0.152100,510
36373511,10004,-0.120728,-1.001465,0.152222,503
36383512,10001,-0.122559,-1.001465,0.152588,508
36393533,10021,-0.122192,-1.001221,0.152954,512
36403511,9978,-0.122559,-1.001587,0.151611,503
36413507,9996,-0.122681,-1.000854,0.151611,505
36423515,10008,-0.122070,-1.001465,0.151245,508
36433536,10021,-0.120605,-1.000977,0.151611,505
36443534,9998,-0.122559,-1.001099,0.151611,509
36453511,9977,-0.120728,-1.001221,0.152466,509
36463519,10008,-0.122070,-1.001465,0.152588,508
36473527,10008,-0.121826,-1.001343,0.152222,509
36483513,9986,-0.121826,-1.001465,0.151489,502
36493536,10023,-0.121704,-1.001343,0.153442,507
36503519,9983,-0.122070,-1.000977,0.151611,504
36513515,9996,-0.121948,-1.000977,0.152344,511
36523536,10021,-0.120361,-1.001099,0.152344,505
36533516,9980,-0.119995,-1.000854,0.152222,510
36543518,10002,-0.121094,-1.002197,0.152344,509
36553519,10001,-0.122314,-1.001465,0.153198,507
36563519,10000,-0.121948,-1.001221,0.151978,507
36573515,9996,-0.122559,-1.001465,0.151855,510
36583528,10013,-0.122314,-1.000732,0.151733,509
36593536,10008,-0.123291,-1.000854,0.151367,509
36603524,9988,-0.121704,-1.001343,0.152222,511
36613525,10001,-0.122070,-1.000977,0.151855,510
36623525,10000,-0.121948,-1.001465,0.152344,514
36633519,9994,-0.121582,-1.001099,0.151978,515
36643527,10008,-0.121460,-1.001099,0.152588,518
36653535,10008,-0.121948,-1.001221,0.153320,515
36663514,9979,-0.121460,-1.001465,0.152832,515
36673513,9999,-0.121094,-1.001587,0.151978,519
36683510,9997,-0.122803,-1.001099,0.152344,512
36693511,10001,-0.122559,-1.000732,0.152588,519
36703533,10022,-0.122314,-1.001465,0.152466,511
36713522,9989,-0.122314,-1.000854,0.153076,514
36723525,10003,-0.122681,-1.000854,0.153198,512
36733533,10008,-0.121460,-1.000977,0.153198,518
36743536,10003,-0.121582,-1.000977,0.152466,518
36753511,9975,-0.122681,-1.000977,0.151855,510
36763523,10012,-0.121704,-1.000610,0.151978,515
36773536,10013,-0.122925,-1.000854,0.151978,506
36783535,9999,-0.123413,-1.000854,0.153564,509
36793518,9983,-0.123413,-1.002075,0.152222,511
36803517,9999,-0.122314,-1.000854,0.152344,509
36813536,10019,-0.122192,-1.000854,0.152222,506
36823532,9996,-0.121338,-1.001099,0.152222,505
36833532,10000,-0.121460,-1.001343,0.151611,510
36843531,9999,-0.122314,-1.001343,0.151733,503
36853528,9997,-0.121826,-1.001343,0.152832,504
36863532,10004,-0.122559,-1.001099,0.151855,509
36873531,9999,-0.122681,-1.000732,0.152832,505
36883524,9993,-0.123047,-1.000854,0.153687,507
36893514,9990,-0.123169,-1.000977,0.153931,510
36903521,10007,-0.123413,-1.000732,0.152588,516
36913533,10012,-0.122070,-1.000610,0.152222,510
36923531,9998,-0.122314,-1.000854,0.152222,510
36933536,10005,-0.123169,-1.000977,0.151733,510
36943536,10000,-0.123047,-1.000977,0.151367,508
36953520,9984,-0.121826,-1.000732,0.151978,509
36963515,9995,-0.122803,-1.000854,0.153076,513
36973511,9996,-0.122925,-1.001099,0.152344,509
36983524,10013,-0.122314,-1.001099,0.152832,512
36993523,9999,-0.121826,-1.000854,0.152344,510
37003549,10026,-0.122681,-1.000732,0.151978,508
37013509,9960,-0.122070,-1.000610,0.152100,512
37023508,9999,-0.123047,-1.001221,0.153564,509
37033516,10008,-0.122925,-1.000854,0.152344,507
37043512,9996,-0.122803,-1.001709,0.151855,510
37053523,10011,-0.121704,-1.002197,0.152832,507
37063520,9997,-0.121582,-1.001099,0.152588,510
37073532,10012,-0.122803,-1.000732,0.152100,510
37083527,9995,-0.123779,-1.001221,0.152344,511
37093513,9986,-0.122925,-1.000732,0.151978,508
37103520,10007,-0.122925,-1.000854,0.151855,510
37113520,10000,-0.122070,-1.001343,0.152222,509
37123520,10000,-0.122559,-1.000854,0.153320,509
37133511,9991,-0.122925,-1.000854,0.151855,504
37143533,10022,-0.122925,-1.001099,0.152222,510
37153529,9996,-0.123535,-1.001099,0.152832,509
37163520,9991,-0.122437,-1.001465,0.152222,513
37173552,10032,-0.122803,-1.001831,0.152588,510
37183512,9960,-0.123535,-1.001221,0.152466,510
37193528,10016,-0.124146,-1.001343,0.151489,510
37203512,9984,-0.124878,-1.000854,0.151855,508
37213525,10013,-0.124146,-1.000854,0.151855,517
37223530,10005,-0.124634,-1.000732,0.151855,509
37233519,9989,-0.123657,-1.000854,0.150635,508
37243524,10005,-0.123779,-1.000854,0.151123,511
37253524,10000,-0.122559,-1.001953,0.152344,510
37263514,9990,-0.122803,-1.001953,0.151855,509
37273509,9995,-0.122559,-1.001465,0.152954,509
37283517,10008,-0.122925,-1.001587,0.152344,510
37293525,10008,-0.123413,-1.000854,0.152588,512
37303508,9983,-0.123413,-1.000732,0.151001,510
37313517,10009,-0.124146,-1.001099,0.152954,504
37323526,10009,-0.124023,-1.000854,0.151611,512
37333532,10006,-0.124023,-1.000977,0.151733,507
37343561,10029,-0.122559,-1.000977,0.152222,488
37353513,9952,-0.123291,-1.001099,0.151367,514
37363529,10016,-0.122559,-1.001465,0.151733,515
37373530,10001,-0.122803,-1.000854,0.152954,518
37383530,10000,-0.123047,-1.000977,0.152832,514
37393521,9991,-0.123169,-1.001099,0.152588,517
37403536,10015,-0.122437,-1.001709,0.151978,516
37413513,9977,-0.124268,-1.000732,0.151611,518
37423521,10008,-0.122681,-1.001343,0.151733,528
37433513,9992,-0.123169,-1.001221,0.152954,516
37443522,10009,-0.122437,-1.000610,0.152466,519
37453528,10006,-0.123779,-1.000732,0.152832,520
37463525,9997,-0.124023,-1.001099,0.153076,515
37473507,9982,-0.123047,-1.001099,0.151489,516
37483513,10006,-0.122925,-1.001099,0.151978,515
37493515,10002,-0.122314,-1.000732,0.151733,514
37503525,10010,-0.123047,-1.000977,0.151733,516
37513512,9987,-0.124023,-1.000854,0.151855,509
37523529,10017,-0.123535,-1.000977,0.152710,511
37533517,9988,-0.123047,-1.000854,0.152222,511
37543533,10016,-0.123047,-1.000854,0.152344,511
37553536,10003,-0.123901,-1.000854,0.151733,506
37563524,9988,-0.123901,-1.001221,0.152588,506
37573513,9989,-0.122314,-1.000977,0.153198,509
37583509,9996,-0.122681,-1.001343,0.152954,508
37593526,10017,-0.124512,-1.000732,0.152588,503
37603516,9990,-0.124023,-1.001709,0.152954,508
37613521,10005,-0.125488,-1.001343,0.152710,510
37623512,9991,-0.124756,-1.000977,0.152222,511
37633530,10018,-0.124512,-1.000977,0.152222,507
37643528,9998,-0.123901,-1.000732,0.151001,506
37653514,9986,-0.123901,-1.000854,0.152466,512
37663517,10003,-0.123413,-1.001343,0.153076,512
37673522,10005,-0.124390,-1.000732,0.152100,511
37683573,10051,-0.124023,-1.001099,0.152222,511
37693529,9956,-0.123779,-1.001099,0.153687,511
37703507,9978,-0.124634,-1.000732,0.152710,512
37713517,10010,-0.124634,-1.001099,0.153320,512
37723522,10005,-0.123779,-1.000977,0.151489,512
37733524,10002,-0.123901,-1.000977,0.152832,511
37743522,9998,-0.124390,-1.001099,0.151855,510
37753523,10001,-0.124268,-1.000854,0.152100,511
37763533,10010,-0.124146,-1.000854,0.152710,510
37773510,9977,-0.125000,-1.000854,0.151978,512
37783508,9998,-0.124634,-1.001099,0.152710,511
37793534,10026,-0.124146,-1.000732,0.153320,510
37803517,9983,-0.124146,-1.000977,0.153320,511
37813509,9992,-0.124512,-1.000732,0.152588,510
37823507,9998,-0.124268,-1.001099,0.151978,512
37833517,10010,-0.124023,-1.000854,0.152222,510
37843532,10015,-0.124756,-1.001099,0.152100,504
37853525,9993,-0.124634,-1.000854,0.152466,508
37863528,10003,-0.123779,-1.000977,0.152954,506
37873517,9989,-0.124878,-1.001343,0.152954,505
37883508,9991,-0.123169,-1.000854,0.152100,511
37893513,10005,-0.123169,-1.000732,0.152954,509
37903508,9995,-0.123657,-1.001099,0.152222,509
37913521,10013,-0.124146,-1.000977,0.152222,508
37923533,10012,-0.124756,-1.000977,0.152222,510
37933508,9975,-0.125122,-1.000732,0.152588,507
37943522,10014,-0.125122,-1.000854,0.152710,508
37953514,9992,-0.124146,-1.000977,0.151978,508
37963533,10019,-0.124268,-1.000977,0.152100,508
37973513,9980,-0.124512,-1.001099,0.152588,512
37983511,9998,-0.124146,-1.001343,0.153198,503
37993516,10005,-0.123291,-1.001587,0.152222,511
38003530,10014,-0.123901,-1.001465,0.152100,510
38013542,10012,-0.124878,-1.000732,0.152466,504
38023528,9986,-0.125488,-1.000854,0.152954,511
38033516,9988,-0.125610,-1.000854,0.151733,511
38043521,10005,-0.124512,-1.000977,0.152588,511
38053517,9996,-0.124146,-1.001099,0.153320,512
38063529,10012,-0.124756,-1.000977,0.151733,512
38073517,9988,-0.124756,-1.000977,0.152588,511
38083528,10011,-0.124756,-1.001099,0.153198,512
38093523,9995,-0.124146,-1.001221,0.152710,516
38103518,9995,-0.124023,-1.001343,0.153076,519
38113534,10016,-0.123779,-1.000732,0.152832,517
38123529,9995,-0.123047,-1.000977,0.152344,513
38133521,9992,-0.124634,-1.001099,0.152954,519
38143518,9997,-0.124390,-1.001343,0.153442,520
38153513,9995,-0.123779,-1.000977,0.153198,521
38163518,10005,-0.123169,-1.000732,0.152588,512
38173518,10000,-0.124146,-1.000854,0.152344,517
38183566,10048,-0.124146,-1.000610,0.151733,516
38193510,9944,-0.124756,-1.000977,0.152100,516
38203516,10006,-0.124634,-1.001099,0.153076,513
38213519,10003,-0.124023,-1.001343,0.152832,511
38223531,10012,-0.124146,-1.000977,0.153076,513
38233515,9984,-0.124512,-1.001099,0.152588,512
38243517,10002,-0.124268,-1.001099,0.152954,513
38253513,9996,-0.124878,-1.000977,0.153320,508
38263516,10003,-0.123779,-1.000977,0.152710,511
38273526,10010,-0.123413,-1.001343,0.152832,505
38283523,9997,-0.125000,-1.000854,0.153076,510
38293509,9986,-0.124390,-1.000854,0.152588,508
38303525,10016,-0.124390,-1.000977,0.152222,512
38313513,9988,-0.122925,-1.000732,0.152832,506
38323520,10007,-0.124512,-1.000854,0.153687,510
38333534,10014,-0.124634,-1.000977,0.152832,510
38343517,9983,-0.124634,-1.001099,0.153198,511
38353561,10044,-0.123901,-1.001465,0.152344,509
38363517,9956,-0.124390,-1.000854,0.152222,503
38373532,10015,-0.123535,-1.000977,0.152832,512
38383510,9978,-0.124512,-1.000977,0.153564,505
38393521,10011,-0.124023,-1.000977,0.151978,511
38403522,10001,-0.124390,-1.000977,0.153198,512
38413535,10013,-0.124634,-1.001099,0.152588,510
38423512,9977,-0.123779,-1.001221,0.153442,507
38433521,10009,-0.124512,-1.000977,0.152954,511
38443522,10001,-0.124756,-1.000610,0.151489,510
38453511,9989,-0.124146,-1.000977,0.151367,506
38463508,9997,-0.124268,-1.000977,0.151367,507
38473507,9999,-0.123657,-1.000732,0.152466,487
38483532,10025,-0.124023,-1.000732,0.152222,508
38493511,9979,-0.124878,-1.000732,0.153442,511
38503510,9999,-0.124634,-1.000854,0.152222,512
38513535,10025,-0.123657,-1.000854,0.152222,503
38523518,9983,-0.124268,-1.000854,0.152954,510
38533522,10004,-0.124268,-1.001587,0.152222,509
38543519,9997,-0.124023,-1.001221,0.152100,510
38553513,9994,-0.124512,-1.001099,0.153320,510
38563529,10016,-0.123779,-1.000977,0.152344,504
38573516,9987,-0.123291,-1.000854,0.152954,512
38583512,9996,-0.124146,-1.000854,0.152832,510
38593518,10006,-0.125122,-1.001343,0.153320,510
38603508,9990,-0.124390,-1.000854,0.153198,512
38613515,10007,-0.124756,-1.000732,0.153320,512
38623524,10009,-0.124390,-1.000854,0.152344,509
38633525,10001,-0.124023,-1.001587,0.151489,511
38643534,10009,-0.122681,-1.000854,0.153931,509
38653515,9981,-0.124756,-1.001099,0.151978,504
38663516,10001,-0.125610,-1.000854,0.151733,509
38673508,9992,-0.125488,-1.000610,0.151611,511
38683512,10004,-0.125610,-1.000610,0.152588,511
38693564,10052,-0.123291,-1.001099,0.152832,505
38703510,9946,-0.123047,-1.000854,0.152222,508
38713514,10004,-0.124146,-1.001221,0.153564,505
38723516,10002,-0.124756,-1.000977,0.153809,509
38733531,10015,-0.124023,-1.001465,0.152832,511
38743526,9995,-0.124390,-1.000854,0.153320,505
38753529,10003,-0.124878,-1.001099,0.152344,510
38763534,10005,-0.156128,-1.000854,0.152466,503
38773528,9994,-0.124878,-1.000854,0.152344,512
38783528,10000,-0.124023,-1.000854,0.152100,512
38793529,10001,-0.123291,-1.000732,0.152344,511
38803511,9982,-0.123535,-1.000854,0.152954,511
38813537,10026,-0.124878,-1.000977,0.153564,515
38823535,9998,-0.125732,-1.000732,0.153564,515
38833530,9995,-0.125122,-1.000732,0.153198,517
38843535,10005,-0.125122,-1.001221,0.153076,512
38853571,10036,-0.124023,-1.001343,0.152344,515
38863534,9963,-0.124390,-1.000854,0.152222,506
38873532,9998,-0.124268,-1.001221,0.152954,518
38883509,9977,-0.124878,-1.001099,0.153076,520
38893511,10002,-0.124756,-1.000854,0.152466,520
38903535,10024,-0.124512,-1.001343,0.152466,519
38913520,9985,-0.125122,-1.000977,0.152100,524
38923516,9996,-0.124756,-1.000977,0.151855,512
38933517,10001,-0.125854,-1.000732,0.151855,511
38943508,9991,-0.125610,-1.001465,0.150513,514
38953534,10026,-0.124878,-1.001343,0.152588,508
38963530,9996,-0.124634,-1.000977,0.153442,508
38973531,10001,-0.125488,-1.000854,0.151733,511
38983523,9992,-0.124634,-1.001587,0.152954,512
38993517,9994,-0.124390,-1.001465,0.152954,504
39003509,9992,-0.123779,-1.000854,0.152710,511
39013523,10014,-0.124512,-1.001221,0.152710,507
39023508,9985,-0.125244,-1.001343,0.152710,509
39033519,10011,-0.124268,-1.000610,0.151978,510
39043536,10017,-0.125488,-1.001221,0.152344,509
39053525,9989,-0.125000,-1.001221,0.152588,504
39063514,9989,-0.124878,-1.001221,0.151733,508
39073528,10014,-0.124512,-1.001343,0.151367,508
39083528,10000,-0.125488,-1.000732,0.152100,512
39093525,9997,-0.124390,-1.000977,0.153442,506
39103507,9982,-0.124268,-1.000854,0.152222,509
39113520,10013,-0.124634,-1.001343,0.152100,512
39123533,10013,-0.123779,-1.000854,0.151978,506
39133533,10000,-0.125488,-1.000854,0.151733,510
39143511,9978,-0.125122,-1.000732,0.152710,505
39153518,10007,-0.124878,-1.000732,0.152222,510
39163521,10003,-0.123779,-1.001343,0.152222,512
39173509,9988,-0.123413,-1.000854,0.153320,511
39183522,10013,-0.124146,-1.001099,0.153076,511
39193536,10014,-0.124390,-1.000854,0.151123,512
39203508,9972,-0.123657,-1.001343,0.151489,505
39213523,10015,-0.123047,-1.000732,0.152344,513
39223507,9984,-0.123657,-1.000732,0.152222,507
39233521,10014,-0.124512,-1.000854,0.151611,505
39243532,10011,-0.124268,-1.001099,0.152466,507
39253527,9995,-0.123901,-1.000977,0.152344,507
39263525,9998,-0.124268,-1.000854,0.152222,511
39273518,9993,-0.125122,-1.000610,0.152222,509
39283534,10016,-0.123779,-1.001221,0.151611,509
39293522,9988,-0.124023,-1.000610,0.151611,507
39303525,10003,-0.124023,-1.001099,0.151489,503
39313510,9985,-0.123047,-1.001465,0.152344,511
39323516,10006,-0.122803,-1.000854,0.152100,509
39333510,9994,-0.123657,-1.000854,0.151733,512
39343537,10027,-0.123779,-1.001953,0.151245,510
39353510,9973,-0.122559,-1.001099,0.153076,507
39363524,10014,-0.124634,-1.000854,0.152588,509
39373525,10001,-0.124023,-1.000977,0.151489,510
39383510,9985,-0.124878,-1.000977,0.151733,506
39393534,10024,-0.124390,-1.001221,0.152222,510
39403510,9976,-0.123291,-1.001831,0.152344,505
39413507,9997,-0.123901,-1.000977,0.152710,511
39423512,10005,-0.123779,-1.001099,0.152344,503
39433521,10009,-0.124268,-1.000977,0.151367,510
39443522,10001,-0.123657,-1.001099,0.151733,508
39453513,9991,-0.124878,-1.001343,0.151367,505
39463517,10004,-0.124268,-1.001465,0.151489,511
39473514,9997,-0.123169,-1.000854,0.151978,509
39483511,9997,-0.124512,-1.001709,0.151978,509
39493525,10014,-0.123291,-1.001099,0.151733,512
39503525,10000,-0.123169,-1.001343,0.150879,509
39513533,10008,-0.123413,-1.001099,0.151001,517
39523537,10004,-0.123779,-1.001099,0.152100,512
39533566,10029,-0.124512,-1.001099,0.151855,509
39543534,9968,-0.123413,-1.001343,0.151855,512
39553521,9987,-0.124512,-1.000977,0.151489,512
39563521,10000,-0.124146,-1.000732,0.151978,515
39573513,9992,-0.123901,-1.001099,0.152588,515
39583516,10003,-0.123779,-1.000977,0.151733,515
39593509,9993,-0.123535,-1.001099,0.151733,516
39603532,10023,-0.122803,-1.001221,0.150879,520
39613533,10001,-0.121948,-1.000977,0.151245,520
39623513,9980,-0.123047,-1.001099,0.151733,517
39633520,10007,-0.123291,-1.001099,0.151733,515
39643510,9990,-0.124268,-1.001343,0.152222,516
39653510,10000,-0.123657,-1.000732,0.152100,518
39663534,10024,-0.123657,-1.001099,0.151245,511
39673525,9991,-0.123047,-1.001343,0.151978,516
39683514,9989,-0.123657,-1.000977,0.152710,516
39693511,9997,-0.123657,-1.000977,0.151611,512
39703518,10007,-0.123901,-1.001099,0.150635,514
39713540,10022,-0.123413,-1.001953,0.152832,510
39723525,9985,-0.124268,-1.001099,0.150879,507
39733530,10005,-0.124023,-1.000732,0.151733,507
39743514,9984,-0.123535,-1.000854,0.152100,513
39753534,10020,-0.123657,-1.001221,0.151245,510
39763510,9976,-0.121948,-1.001587,0.151611,509
39773509,9999,-0.123047,-1.001099,0.152710,511
39783536,10027,-0.122070,-1.001465,0.152588,507
39793515,9979,-0.122192,-1.000732,0.151611,510
39803526,10011,-0.123047,-1.001221,0.152344,510
39813517,9991,-0.123413,-1.000854,0.151245,510
39823515,9998,-0.124268,-1.000732,0.151245,508
39833520,10005,-0.123047,-1.001099,0.151611,502
39843525,10005,-0.124023,-1.001343,0.151978,505
39853510,9985,-0.122070,-1.001221,0.152588,512
39863528,10018,-0.122681,-1.001221,0.151611,506
39873534,10006,-0.123047,-1.001221,0.149780,512
39883524,9990,-0.123413,-1.000854,0.152344,511
39893516,9992,-0.123047,-1.001221,0.152100,512
39903508,9992,-0.123901,-1.000732,0.151367,511
39913510,10002,-0.122803,-1.001099,0.151733,511
39923526,10016,-0.123291,-1.000977,0.151611,506
39933526,10000,-0.122437,-1.001709,0.150391,508
39943519,9993,-0.122314,-1.000854,0.151855,514
39953515,9996,-0.122192,-1.001099,0.152222,511
39963530,10015,-0.122681,-1.000854,0.150879,505
39973529,9999,-0.122559,-1.001465,0.151855,510
39983512,9983,-0.121826,-1.001221,0.151245,509
39993512,10000,-0.122681,-1.001099,0.151733,507
40003529,10017,-0.122437,-1.000977,0.151489,510
40013508,9979,-0.123047,-1.000977,0.151978,505
40023521,10013,-0.123535,-1.001099,0.151855,510
40033536,10015,-0.121704,-1.002197,0.152344,509
40043514,9978,-0.122681,-1.001221,0.152100,511
40053526,10012,-0.122925,-1.001465,0.151489,510
40063533,10007,-0.123047,-1.001343,0.151123,505
40073530,9997,-0.121948,-1.001465,0.151978,510
40083522,9992,-0.121826,-1.000977,0.151123,507
40093524,10002,-0.121338,-1.001221,0.152466,507
40103512,9988,-0.122437,-1.001343,0.151123,506
40113535,10023,-0.123291,-1.000977,0.150513,509
40123517,9982,-0.122559,-1.001099,0.150757,509
40133515,9998,-0.123413,-1.001343,0.151855,509
40143534,10019,-0.124878,-1.001099,0.151367,509
40153520,9986,-0.123047,-1.001221,0.151245,505
40163516,9996,-0.122437,-1.001709,0.152954,510
40173526,10010,-0.122803,-1.001099,0.151611,510
40183514,9988,-0.122437,-1.001221,0.153076,506
40193516,10002,-0.122437,-1.000854,0.152588,510
40203529,10013,-0.122437,-1.000977,0.151367,511
40213546,10017,-0.122437,-1.001221,0.151855,511
40223531,9985,-0.121948,-1.001099,0.152344,510
40233528,9997,-0.122192,-1.001099,0.151001,503
40243524,9996,-0.122559,-1.000977,0.151489,514
40253536,10012,-0.122559,-1.001831,0.152100,512
40263513,9977,-0.122437,-1.001587,0.151855,513
40273524,10011,-0.122803,-1.001343,0.151978,518
40283508,9984,-0.123047,-1.000854,0.151733,511
40293508,10000,-0.121948,-1.001221,0.152222,510
40303517,10009,-0.122681,-1.001221,0.152710,518
40313518,10001,-0.122314,-1.000977,0.151855,517
40323524,10006,-0.122681,-1.000977,0.150757,518
40333534,10010,-0.122803,-1.001831,0.151367,517
40343513,9979,-0.122437,-1.001099,0.152588,518
40353513,10000,-0.122070,-1.001465,0.151978,519
40363514,10001,-0.122437,-1.001099,0.153076,518
40373531,10017,-0.122070,-1.001099,0.152344,518
40383512,9981,-0.123657,-1.001099,0.151733,516
40393518,10006,-0.122314,-1.000854,0.151489,513
40403516,9998,-0.122803,-1.000854,0.151367,513
40413517,10001,-0.121826,-1.001343,0.151245,515
40423522,10005,-0.122925,-1.001465,0.151245,515
40433507,9985,-0.123291,-1.001343,0.152100,513
40443513,10006,-0.121460,-1.000732,0.151367,511
40453537,10024,-0.122559,-1.001343,0.152222,513
40463524,9987,-0.123047,-1.000977,0.152466,511
40473527,10003,-0.122070,-1.001099,0.151855,512
40483530,10003,-0.122803,-1.001221,0.152832,510
40493517,9987,-0.122681,-1.001221,0.152466,511
40503507,9990,-0.123657,-1.000977,0.151611,502
40513532,10025,-0.122803,-1.001099,0.151489,511
40523520,9988,-0.122803,-1.000854,0.152832,512
40533537,10017,-0.124268,-1.001099,0.152588,506
40543534,9997,-0.123413,-1.000977,0.151367,510
40553528,9994,-0.122803,-1.001221,0.150757,508
40563517,9989,-0.122559,-1.001221,0.151367,508
40573525,10008,-0.122681,-1.001343,0.152344,512
40583522,9997,-0.122925,-1.000977,0.152588,511
40593553,10031,-0.121826,-1.001831,0.152832,510
40603510,9957,-0.123047,-1.001709,0.152710,505
40613521,10011,-0.123535,-1.001343,0.151489,511
40623509,9988,-0.123901,-1.000977,0.151611,508
40633533,10024,-0.122559,-1.001221,0.152588,509
40643524,9991,-0.123047,-1.000854,0.152344,512
40653527,10003,-0.123291,-1.000732,0.151367,511
40663520,9993,-0.123047,-1.001587,0.152100,511
40673528,10008,-0.122559,-1.001343,0.152100,512
40683532,10004,-0.122070,-1.000977,0.151123,505
40693527,9995,-0.122070,-1.001465,0.151733,506
40703532,10005,-0.122192,-1.001709,0.152222,511
40713524,9992,-0.123535,-1.000732,0.151611,510
40723531,10007,-0.123779,-1.001343,0.150146,511
40733530,9999,-0.122192,-1.000977,0.151489,512
40743509,9979,-0.123169,-1.001099,0.153198,511
40753517,10008,-0.123047,-1.001221,0.151855,510
40763508,9991,-0.122559,-1.000854,0.151123,506
40773517,10009,-0.123413,-1.000977,0.151978,509
40783525,10008,-0.123901,-1.000732,0.150757,508
40793514,9989,-0.122803,-1.001465,0.151733,510
40803527,10013,-0.122437,-1.001343,0.151489,509
40813531,10004,-0.123169,-1.001587,0.153076,510
40823520,9989,-0.122681,-1.001465,0.151978,510
40833528,10008,-0.125122,-1.000610,0.152344,510
40843516,9988,-0.124146,-1.001221,0.152344,507
40853529,10013,-0.123169,-1.000854,0.151733,511
40863533,10004,-0.123169,-1.001221,0.151001,505
40873533,10000,-0.122925,-1.001099,0.151611,510
40883514,9981,-0.123413,-1.000977,0.151855,512
40893512,9998,-0.122925,-1.001221,0.151733,511
40903507,9995,-0.123779,-1.000977,0.152832,511
40913515,10008,-0.123291,-1.001465,0.152466,509
40923526,10011,-0.124634,-1.000732,0.151489,503
40933523,9997,-0.123047,-1.000854,0.152222,509
40943532,10009,-0.124146,-1.000977,0.151978,512
40953508,9976,-0.123047,-1.000854,0.150635,512
40963517,10009,-0.123047,-1.000977,0.152222,505
40973507,9990,-0.123657,-1.001343,0.152344,509
40983519,10012,-0.122803,-1.001099,0.152344,509
40993525,10006,-0.124023,-1.001221,0.153320,515
41003526,10001,-0.124146,-1.000977,0.153198,518
41013519,9993,-0.123535,-1.000854,0.151978,520
41023535,10016,-0.122681,-1.000854,0.151489,515
41033523,9988,-0.122314,-1.001465,0.152466,520
41043522,9999,-0.122681,-1.001099,0.151855,518
41053525,10003,-0.122925,-1.001587,0.151367,521
41063531,10006,-0.123657,-1.000854,0.152344,517
41073529,9998,-0.124878,-1.001099,0.153076,514
41083534,10005,-0.124390,-1.000610,0.151123,515
41093521,9987,-0.125244,-1.000732,0.152466,515
41103511,9990,-0.123779,-1.000854,0.151855,517
41113516,10005,-0.123657,-1.001221,0.151611,514
41123513,9997,-0.122803,-1.001221,0.151611,511
41133535,10022,-0.123047,-1.002197,0.152344,517
41143535,10000,-0.123047,-1.000854,0.152832,507
41153512,9977,-0.123657,-1.000977,0.153931,512
41163513,10001,-0.124146,-1.000854,0.152588,511
41173507,9994,-0.123779,-1.001343,0.152466,507
41183525,10018,-0.123413,-1.000977,0.151245,511
41193528,10003,-0.122314,-1.001221,0.152588,510
41203516,9988,-0.123779,-1.001465,0.152100,511
41213508,9992,-0.124634,-1.000732,0.152466,507
41223536,10028,-0.124390,-1.000854,0.151001,508
41233511,9975,-0.124390,-1.000610,0.151978,510
41243517,10006,-0.124878,-1.000610,0.153076,508
41253510,9993,-0.124268,-1.001343,0.152710,510
41263521,10011,-0.124390,-1.000854,0.152466,504
41273532,10011,-0.123535,-1.000854,0.152344,505
41283509,9977,-0.124146,-1.001099,0.152710,510
41293537,10028,-0.124146,-1.000854,0.152100,512
41303549,10012,-0.124634,-1.000854,0.152588,510
41313517,9968,-0.123535,-1.000977,0.152344,510
41323536,10019,-0.124756,-1.000854,0.152710,511
41333524,9988,-0.124023,-1.000854,0.152588,512
41343534,10010,-0.123779,-1.000854,0.151001,511
41353514,9980,-0.123169,-1.000732,0.151611,512
41363515,10001,-0.123901,-1.000977,0.151855,513
41373513,9998,-0.124268,-1.000977,0.152344,513
41383527,10014,-0.124146,-1.000977,0.152100,512
41393513,9986,-0.123413,-1.001099,0.151611,510
41403527,10014,-0.123779,-1.000977,0.152588,505
41413524,9997,-0.124146,-1.000854,0.152832,507
41423510,9986,-0.124268,-1.001221,0.151611,510
41433524,10014,-0.123169,-1.001221,0.151855,511
41443527,10003,-0.124268,-1.001221,0.152344,510
41453518,9991,-0.122437,-1.001465,0.151611,503
41463508,9990,-0.124146,-1.000977,0.152466,509
41473562,10054,-0.123169,-1.000732,0.151367,508
41483531,9969,-0.124023,-1.000854,0.151733,508
41493519,9988,-0.122803,-1.001099,0.152222,504
41503510,9991,-0.123657,-1.001587,0.152466,503
41513529,10019,-0.123779,-1.000854,0.153076,510
41523519,9990,-0.123779,-1.000854,0.152588,512
41533531,10012,-0.125000,-1.000977,0.152344,504
41543513,9982,-0.123901,-1.000610,0.151367,510
41553530,10017,-0.124756,-1.000977,0.151489,508
41563507,9977,-0.124146,-1.001099,0.152222,508
41573527,10020,-0.123657,-1.001221,0.152100,502
41583518,9991,-0.122314,-1.001709,0.153076,507
41593530,10012,-0.123291,-1.001343,0.153442,509
41603508,9978,-0.122437,-1.001221,0.152100,510
41613531,10023,-0.123413,-1.001099,0.151733,506
41623522,9991,-0.124023,-1.000732,0.152588,509
41633508,9986,-0.123291,-1.001465,0.150879,513
41643554,10046,-0.124268,-1.001221,0.151489,510
41653516,9962,-0.124146,-1.000854,0.151367,509
41663525,10009,-0.123657,-1.000854,0.150757,507
41673536,10011,-0.124634,-1.001343,0.151855,507
41683519,9983,-0.124268,-1.000977,0.151489,515
41693518,9999,-0.124634,-1.001099,0.152222,515
41703516,9998,-0.123901,-1.001221,0.151978,515
41713512,9996,-0.124023,-1.000854,0.151855,514
41723525,10013,-0.123901,-1.000977,0.152100,517
41733536,10011,-0.124023,-1.001343,0.153198,518
41743536,10000,-0.123535,-1.000977,0.152710,509
41753523,9987,-0.122437,-1.001221,0.151855,524
41763519,9996,-0.123779,-1.001709,0.152100,518
41773525,10006,-0.125000,-1.000732,0.151978,513
41783516,9991,-0.123901,-1.001465,0.152466,514
41793532,10016,-0.125000,-1.000854,0.152954,517
41803516,9984,-0.125000,-1.001099,0.152588,535
41813546,10030,-0.123291,-1.001221,0.152100,515
41823549,10003,-0.123413,-1.000977,0.151733,523
41833536,9987,-0.123657,-1.001343,0.151733,508
41843518,9982,-0.125122,-1.000977,0.152100,513
41853511,9993,-0.124878,-1.000854,0.152100,512
41863512,10001,-0.123779,-1.000854,0.153076,511
41873534,10022,-0.124512,-1.000854,0.153320,511
41883533,9999,-0.123901,-1.001221,0.152100,513
41893526,9993,-0.124023,-1.001221,0.152588,506
41903513,9987,-0.123657,-1.001221,0.152710,504
41913530,10017,-0.123779,-1.001099,0.153320,511
41923534,10004,-0.124512,-1.001587,0.151978,509
41933527,9993,-0.123901,-1.000732,0.152710,506
41943523,9996,-0.123779,-1.001221,0.151978,510
41953535,10012,-0.123657,-1.000977,0.152466,511
41963517,9982,-0.123291,-1.000854,0.153076,512
41973508,9991,-0.124146,-1.000854,0.152222,513
41983514,10006,-0.124268,-1.000977,0.151245,511
41993550,10036,-0.123047,-1.000854,0.153442,509
42003532,9982,-0.122925,-1.001343,0.152588,512
42013516,9984,-0.123535,-1.000732,0.153687,512
42023526,10010,-0.124512,-1.001099,0.153687,507
42033524,9998,-0.123657,-1.000977,0.153198,511
42043512,9988,-0.124390,-1.001221,0.153076,512
42053516,10004,-0.123047,-1.001099,0.153320,512
42063522,10006,-0.122681,-1.001465,0.152222,512
42073520,9998,-0.124023,-1.000732,0.153076,513
42083524,10004,-0.123535,-1.001099,0.152100,505
42093524,10000,-0.124634,-1.000977,0.151733,510
42103508,9984,-0.123047,-1.000732,0.152588,513
42113536,10028,-0.124390,-1.000854,0.153320,506
42123507,9971,-0.124268,-1.000977,0.153076,503
42133507,10000,-0.123535,-1.000854,0.151978,504
42143534,10027,-0.123535,-1.000977,0.152588,510
42153511,9977,-0.123779,-1.001099,0.152466,503
42163527,10016,-0.122925,-1.000854,0.152954,504
42173535,10008,-0.123047,-1.000977,0.153809,509
42183511,9976,-0.123413,-1.001099,0.152222,504
42193510,9999,-0.123779,-1.000854,0.152222,508
42203533,10023,-0.124390,-1.000854,0.152588,509
42213536,10003,-0.124512,-1.000610,0.152100,509
42223520,9984,-0.123779,-1.000854,0.151978,507
42233514,9994,-0.123047,-1.001221,0.153198,504
42243510,9996,-0.124146,-1.001221,0.153076,512
42253509,9999,-0.123779,-1.000854,0.151611,510
42263531,10022,-0.124512,-1.000854,0.152222,508
42273526,9995,-0.123535,-1.000610,0.153198,509
42283511,9985,-0.123657,-1.001343,0.153076,511
42293528,10017,-0.124268,-1.000977,0.153320,509
42303532,10004,-0.125000,-1.000977,0.152710,506
42313564,10032,-0.124756,-1.001099,0.152466,509
42323508,9944,-0.124268,-1.000977,0.152588,506
42333530,10022,-0.124634,-1.001465,0.153076,508
42343526,9996,-0.124268,-1.001099,0.152100,511
42353532,10006,-0.124512,-1.000732,0.151978,509
42363516,9984,-0.125488,-1.000732,0.152222,503
42373521,10005,-0.125244,-1.000854,0.153198,507
42383517,9996,-0.123535,-1.000854,0.153076,511
42393514,9997,-0.123779,-1.001099,0.151611,507
42403509,9995,-0.123291,-1.000854,0.153442,512
42413528,10019,-0.123779,-1.001221,0.152954,509
42423525,9997,-0.123779,-1.000854,0.153809,513
42433510,9985,-0.123657,-1.001099,0.152710,516
42443532,10022,-0.123047,-1.001831,0.152588,519
42453517,9985,-0.123413,-1.002075,0.153442,517
42463511,9994,-0.123779,-1.000732,0.153076,520
42473535,10024,-0.123169,-1.000977,0.152588,519
42483509,9974,-0.123657,-1.001099,0.151855,518
42493535,10026,-0.123657,-1.000854,0.153442,517
42503544,10009,-0.124756,-1.000977,0.153320,517
42513513,9969,-0.123779,-1.000977,0.152710,518
42523507,9994,-0.123291,-1.000732,0.152588,511
42533535,10028,-0.122803,-1.000977,0.152588,513
42543523,9988,-0.124390,-1.000977,0.151489,516
42553516,9993,-0.123169,-1.001099,0.152466,513
42563522,10006,-0.123657,-1.000977,0.153076,514
42573519,9997,-0.124390,-1.000610,0.151489,511
42583533,10014,-0.123657,-1.000610,0.152100,512
42593516,9983,-0.124512,-1.000610,0.152710,512
42603513,9997,-0.123657,-1.000732,0.152832,506
42613534,10021,-0.124146,-1.001221,0.152588,510
42623518,9984,-0.122803,-1.000732,0.152954,511
42633511,9993,-0.124146,-1.000854,0.153198,508
42643516,10005,-0.122437,-1.000854,0.151611,509
42653526,10010,-0.123047,-1.000854,0.151489,505
42663518,9992,-0.123901,-1.001221,0.152832,507
42673510,9992,-0.124512,-1.001099,0.152832,503
42683517,10007,-0.122559,-1.000854,0.152344,506
42693533,10016,-0.123413,-1.001343,0.152466,512
42703512,9979,-0.122803,-1.001221,0.151001,516
42713509,9997,-0.123779,-1.001099,0.152710,511
42723511,10002,-0.122314,-1.001343,0.151489,511
42733510,9999,-0.122559,-1.001221,0.152832,510
42743522,10012,-0.123413,-1.000854,0.151855,511
42753520,9998,-0.122559,-1.001831,0.152588,514
42763509,9989,-0.122803,-1.000854,0.152710,511
42773526,10017,-0.122192,-1.001099,0.152466,509
42783521,9995,-0.122437,-1.000854,0.152588,527
42793520,9999,-0.122803,-1.000732,0.152466,508
42803536,10016,-0.122925,-1.001831,0.151367,512
42813526,9990,-0.124023,-1.000977,0.151733,539
42823522,9996,-0.122437,-1.000854,0.151367,512
42833530,10008,-0.123291,-1.000977,0.152588,511
42843528,9998,-0.123169,-1.001221,0.152588,512
42853529,10001,-0.122803,-1.000977,0.153564,507
42863509,9980,-0.123047,-1.000977,0.151733,510
42873517,10008,-0.123169,-1.000977,0.151489,510
42883514,9997,-0.122803,-1.000854,0.152710,507
42893535,10021,-0.122681,-1.001587,0.151611,510
42903530,9995,-0.122559,-1.000977,0.151733,510
42913533,10003,-0.122681,-1.001709,0.151855,505
42923513,9980,-0.123047,-1.001221,0.152100,508
42933535,10022,-0.122192,-1.001099,0.152344,506
42943525,9990,-0.122559,-1.001465,0.151855,505
42953533,10008,-0.120728,-1.001343,0.152954,507
42963521,9988,-0.122925,-1.001465,0.152466,510
42973533,10012,-0.122559,-1.000977,0.152832,508
42983521,9988,-0.123779,-1.000854,0.151733,504
42993548,10027,-0.123779,-1.000610,0.151733,512
43003526,9978,-0.124390,-1.000854,0.151855,504
43013529,10003,-0.122681,-1.001465,0.151489,509
43023528,9999,-0.121582,-1.001221,0.152954,500
43033511,9983,-0.122314,-1.001221,0.151855,509
43043510,9999,-0.122314,-1.000854,0.151855,507
43053509,9999,-0.121948,-1.001221,0.151733,506
43063524,10015,-0.121582,-1.001343,0.153076,512
43073518,9994,-0.122314,-1.001099,0.151855,510
43083511,9993,-0.122803,-1.000854,0.151978,517
43093534,10023,-0.123779,-1.001221,0.151611,512
43103527,9993,-0.125122,-1.000977,0.152100,512
43113513,9986,-0.122681,-1.000977,0.151489,505
43123512,9999,-0.122314,-1.000854,0.151855,514
43133536,10024,-0.122192,-1.001343,0.152466,512
43143513,9977,-0.123047,-1.001343,0.151245,515
43153545,10032,-0.121704,-1.001099,0.152588,508
43163516,9971,-0.121216,-1.001221,0.152466,517
43173526,10010,-0.122192,-1.001465,0.151489,517
