t_us,dt_us,ax,ay,az,ppg
62901107,10022,-0.327393,0.022949,0.929199,505
62911092,9985,-0.326538,0.023926,0.929932,513
62921100,10008,-0.327393,0.025513,0.928833,512
62931111,10011,-0.331299,0.025391,0.925415,511
62941102,9991,-0.332031,0.022461,0.921997,512
62951104,10002,-0.332397,0.016479,0.921509,505
62961103,9999,-0.329590,0.015015,0.924194,507
62971109,10006,-0.328491,0.015259,0.928345,512
62981110,10001,-0.329224,0.013672,0.928345,511
62991085,9975,-0.329834,0.014038,0.926758,514
63001101,10016,-0.329346,0.014648,0.925781,507
63011107,10006,-0.327637,0.016235,0.930298,506
63021108,10001,-0.326660,0.020142,0.930420,513
63031097,9989,-0.328247,0.023071,0.932251,515
63041089,9992,-0.328857,0.020874,0.933960,510
63051090,10001,-0.331543,0.016724,0.930664,515
63061101,10011,-0.333618,0.016235,0.928101,516
63071092,9991,-0.332275,0.018433,0.927734,517
63081107,10015,-0.329468,0.021729,0.931152,516
63091100,9993,-0.327759,0.024292,0.933472,520
63101102,10002,-0.327148,0.024048,0.930420,515
63111099,9997,-0.327148,0.022461,0.924438,518
63121112,10013,-0.325195,0.023315,0.923828,515
63131094,9982,-0.326050,0.025024,0.926270,512
63141094,10000,-0.326172,0.025269,0.927368,511
63151110,10016,-0.329956,0.023560,0.927612,512
63161113,10003,-0.333618,0.016479,0.924072,509
63171089,9976,-0.336548,0.018311,0.927490,513
63181113,10024,-0.333740,0.019775,0.933838,519
63191097,9984,-0.332275,0.019897,0.933350,513
63201092,9995,-0.330322,0.018921,0.930420,504
63211104,10012,-0.328491,0.017700,0.928101,517
63221090,9986,-0.326416,0.024414,0.931152,515
63231087,9997,-0.327148,0.024170,0.931030,514
63241088,10001,-0.329346,0.024536,0.929199,510
63251087,9999,-0.330688,0.023560,0.929443,514
63261104,10017,-0.333618,0.022827,0.929199,511
63271088,9984,-0.332642,0.020996,0.926758,513
63281090,10002,-0.328857,0.019897,0.928467,509
63291097,10007,-0.324951,0.021851,0.932983,512
63301086,9989,-0.324829,0.023437,0.933838,513
63311114,10028,-0.323608,0.021851,0.929687,508
63321111,9997,-0.325317,0.021118,0.925781,515
63331103,9992,-0.330811,0.022949,0.923218,513
63341093,9990,-0.330933,0.022827,0.923340,513
63351109,10016,-0.331787,0.024414,0.926392,513
63361097,9988,-0.332275,0.026367,0.929810,509
63371092,9995,-0.334106,0.022827,0.927612,513
63381104,10012,-0.333496,0.015747,0.926392,513
63391107,10003,-0.329468,0.017456,0.932373,512
63401112,10005,-0.325928,0.019409,0.935913,512
63411099,9987,-0.324951,0.019165,0.934570,511
63421140,10041,-0.324829,0.017212,0.932373,507
63431102,9962,-0.327393,0.019897,0.924927,507
63441108,10006,-0.325562,0.021240,0.928101,513
63451095,9987,-0.327026,0.025269,0.929932,509
63461109,10014,-0.328979,0.027588,0.930298,512
63471089,9980,-0.331543,0.025391,0.927246,511
63481095,10006,-0.332886,0.024048,0.925659,511
63491087,9992,-0.331543,0.024536,0.928833,509
63501112,10025,-0.329468,0.023560,0.930298,512
63511086,9974,-0.328003,0.020386,0.929932,506
63521089,10003,-0.328369,0.017334,0.925781,505
63531100,10011,-0.328125,0.015503,0.923218,513
63541104,10004,-0.332275,0.014160,0.925537,511
63551098,9994,-0.332520,0.014404,0.927734,512
63561100,10002,-0.334473,0.015259,0.928223,511
63571100,10000,-0.336426,0.015137,0.927002,513
63581101,10001,-0.334595,0.015015,0.927612,512
63591088,9987,-0.331909,0.014893,0.932739,514
63601112,10024,-0.330933,0.018799,0.933838,508
63611088,9976,-0.330200,0.019043,0.932251,505
63621116,10028,-0.329712,0.021240,0.930420,512
63631096,9980,-0.329712,0.022583,0.927368,512
63641097,10001,-0.330200,0.024902,0.926392,512
63651087,9990,-0.328735,0.026489,0.929810,508
63661115,10028,-0.330811,0.025269,0.929687,505
63671094,9979,-0.333252,0.023315,0.927734,511
63681103,10009,-0.333984,0.021729,0.926880,506
63691094,9991,-0.333496,0.019775,0.926147,506
63701087,9993,-0.329834,0.018799,0.928101,511
63711102,10015,-0.326294,0.018921,0.926392,511
63721137,10035,-0.327148,0.016235,0.924683,512
63731090,9953,-0.328857,0.015625,0.922241,508
63741104,10014,-0.330200,0.016846,0.922363,507
63751110,10006,-0.332031,0.016235,0.925171,505
63761111,10001,-0.334839,0.011841,0.930298,509
63771091,9980,-0.336426,0.011475,0.929565,508
63781103,10012,-0.337891,0.012085,0.927856,510
63791096,9993,-0.336548,0.012207,0.927734,510
63801105,10009,-0.333130,0.011963,0.929443,512
63811109,10004,-0.327271,0.016724,0.929687,512
63821091,9982,-0.327637,0.018311,0.928955,511
63831100,10009,-0.328857,0.018677,0.926758,509
63841090,9990,-0.330200,0.019531,0.924805,514
63851102,10012,-0.329346,0.021118,0.925293,515
63861106,10004,-0.328979,0.022705,0.929443,513
63871111,10005,-0.329102,0.022583,0.928345,517
63881092,9981,-0.331177,0.023071,0.927490,515
63891113,10021,-0.333008,0.022095,0.927124,516
63901119,10006,-0.332886,0.021362,0.929077,517
63911090,9971,-0.333252,0.019897,0.929199,515
63921112,10022,-0.332397,0.020142,0.927612,512
63931107,9995,-0.331543,0.018677,0.927734,516
63941096,9989,-0.331543,0.014648,0.927124,516
63951107,10011,-0.330322,0.014160,0.927246,520
63961109,10002,-0.331909,0.014526,0.928101,515
63971095,9986,-0.330200,0.014648,0.928101,516
63981098,10003,-0.329956,0.014038,0.930176,513
63991100,10002,-0.329468,0.016846,0.928467,515
64001102,10002,-0.329590,0.020508,0.927368,512
64011086,9984,-0.328369,0.020142,0.927002,506
64021111,10025,-0.327271,0.021484,0.928833,516
64031109,9998,-0.324829,0.026367,0.928589,514
64041116,10007,-0.325806,0.027588,0.929687,509
64051108,9992,-0.327026,0.027832,0.929687,512
64061109,10001,-0.327026,0.026245,0.930420,504
64071088,9979,-0.328247,0.023682,0.930176,513
64081100,10012,-0.330444,0.021973,0.931641,512
64091097,9997,-0.330566,0.020020,0.930298,505
64101085,9988,-0.331665,0.017700,0.928223,513
64111092,10007,-0.332275,0.016968,0.927490,513
64121087,9995,-0.331055,0.015625,0.927124,522
64131088,10001,-0.328125,0.015503,0.927368,511
64141106,10018,-0.328247,0.015381,0.928467,511
64151095,9989,-0.328003,0.015503,0.929077,513
64161108,10013,-0.327637,0.017700,0.929810,507
64171095,9987,-0.327759,0.017700,0.930176,513
64181109,10014,-0.328003,0.017090,0.929199,513
64191089,9980,-0.327026,0.022827,0.928345,513
64201093,10004,-0.325806,0.024902,0.929199,518
64211115,10022,-0.327148,0.026123,0.929810,506
64221085,9970,-0.322510,0.025879,0.928711,512
64231095,10010,-0.325195,0.026245,0.928223,512
64241090,9995,-0.326172,0.023560,0.929321,512
64251095,10005,-0.328491,0.022705,0.930664,506
64261111,10016,-0.327148,0.021729,0.932739,512
64271113,10002,-0.326416,0.017944,0.934204,513
64281090,9977,-0.326416,0.014160,0.933472,512
64291097,10007,-0.325562,0.014404,0.931030,512
64301104,10007,-0.324097,0.015137,0.931396,511
64311090,9986,-0.323975,0.016113,0.932251,505
64321101,10011,-0.324341,0.015747,0.931396,505
64331088,9987,-0.325806,0.016968,0.931274,506
64341091,10003,-0.326416,0.018066,0.931396,511
64351099,10008,-0.327393,0.017822,0.930786,510
64361110,10011,-0.324341,0.019531,0.932495,496
64371093,9983,-0.322266,0.022827,0.935181,512
64381095,10002,-0.321777,0.026489,0.935669,511
64391090,9995,-0.323608,0.027588,0.933472,505
64401106,10016,-0.326172,0.027832,0.924561,511
64411105,9999,-0.324463,0.029175,0.927368,511
64421092,9987,-0.322876,0.030029,0.934204,509
64431113,10021,-0.323486,0.028564,0.935059,509
64441092,9979,-0.325562,0.026733,0.931763,508
64451086,9994,-0.328491,0.017822,0.922485,510
64461104,10018,-0.328003,0.018555,0.925049,510
64471090,9986,-0.324219,0.020874,0.932739,504
64481106,10016,-0.322876,0.023071,0.936401,506
64491098,9992,-0.327515,0.020874,0.930908,509
64501098,10000,-0.330688,0.018188,0.924561,504
64511109,10011,-0.329712,0.017334,0.929932,512
64521113,10004,-0.327148,0.019287,0.934326,511
64531108,9995,-0.325073,0.021606,0.935181,508
64541086,9978,-0.324829,0.020508,0.935425,504
64551098,10012,-0.324585,0.019165,0.932617,508
64561091,9993,-0.326294,0.016724,0.925537,505
64571097,10006,-0.324951,0.019287,0.924438,508
64581110,10013,-0.323242,0.024414,0.927246,507
64591099,9989,-0.321167,0.026489,0.927124,514
64601105,10006,-0.321411,0.027100,0.929321,513
64611093,9988,-0.322021,0.024292,0.930908,513
64621106,10013,-0.327759,0.021240,0.931641,514
64631085,9979,-0.328735,0.022095,0.931274,513
64641103,10018,-0.328491,0.022949,0.931519,515
64651114,10011,-0.329102,0.024414,0.933960,516
64661101,9987,-0.327271,0.024170,0.934692,515
64671101,10000,-0.330200,0.020508,0.928589,514
64681104,10003,-0.330444,0.018555,0.924438,510
64691104,10000,-0.328857,0.017456,0.926270,511
64701102,9998,-0.325562,0.018188,0.930542,515
64711087,9985,-0.325562,0.020386,0.932861,517
64721116,10029,-0.328613,0.016724,0.929810,516
64731106,9990,-0.329346,0.016602,0.928833,513
64741106,10000,-0.328369,0.018921,0.928711,512
64751114,10008,-0.327637,0.021729,0.930176,511
64761108,9994,-0.326782,0.026611,0.934448,514
64771112,10004,-0.327148,0.028320,0.934204,507
64781086,9974,-0.330200,0.025757,0.927734,511
64791089,10003,-0.331177,0.023071,0.926514,513
64801111,10022,-0.328613,0.022217,0.926147,513
64811091,9980,-0.327759,0.022095,0.926758,509
64821123,10032,-0.326172,0.021973,0.926147,512
64831110,9987,-0.328735,0.017700,0.926270,509
64841100,9990,-0.329346,0.013672,0.925903,511
64851112,10012,-0.330444,0.010376,0.925903,512
64861131,10019,-0.331543,0.011353,0.928223,509
64871088,9957,-0.331543,0.013916,0.928345,511
64881112,10024,-0.329956,0.015503,0.931641,511
64891086,9974,-0.329956,0.016724,0.931274,507
64901096,10010,-0.331299,0.018188,0.929321,515
64911104,10008,-0.331787,0.019287,0.928345,513
64921112,10008,-0.331543,0.021606,0.929687,513
64931101,9989,-0.330444,0.023560,0.930908,507
64941103,10002,-0.329834,0.022583,0.929687,509
64951091,9988,-0.327759,0.021484,0.929565,511
64961111,10020,-0.327881,0.021484,0.928833,508
64971121,10010,-0.328125,0.021118,0.929810,512
64981086,9965,-0.327026,0.020020,0.929932,512
64991108,10022,-0.328491,0.019409,0.928467,510
65001086,9978,-0.329590,0.020020,0.927734,511
65011095,10009,-0.329712,0.017822,0.926514,507
65021091,9996,-0.331421,0.016724,0.925537,508
65031110,10019,-0.332642,0.015991,0.927124,511
65041087,9977,-0.333618,0.014771,0.926270,512
65056147,15060,-0.330444,0.015503,0.929443,507
65062083,5936,-0.330200,0.015137,0.930054,512
65071085,9002,-0.330933,0.013550,0.930420,507
65081096,10011,-0.332520,0.012939,0.929077,506
65091103,10007,-0.332153,0.015625,0.926758,506
65101085,9982,-0.330078,0.022705,0.929687,509
65111114,10029,-0.329590,0.023437,0.932251,509
65121123,10009,-0.329834,0.024780,0.930420,509
65131085,9962,-0.330566,0.023804,0.927734,512
65141107,10022,-0.329224,0.020508,0.927002,508
65151109,10002,-0.326660,0.022827,0.939209,508
65161099,9990,-0.328613,0.021606,0.934082,506
65171099,10000,-0.332397,0.019043,0.922729,510
65181094,9995,-0.333984,0.017334,0.913086,510
65191099,10005,-0.331299,0.020386,0.918091,511
65201111,10012,-0.326660,0.025391,0.933105,506
65211109,9998,-0.330200,0.016846,0.940063,503
65221088,9979,-0.337891,0.007935,0.924072,509
65231112,10024,-0.340332,0.004028,0.915894,510
65241105,9993,-0.336914,0.007568,0.920044,511
65251108,10003,-0.328369,0.015503,0.929687,506
65261099,9991,-0.321167,0.020508,0.929199,513
65271107,10008,-0.326050,0.019287,0.921875,511
65281092,9985,-0.328979,0.016602,0.920898,514
65291112,10020,-0.328979,0.017822,0.926636,511
65301089,9977,-0.329590,0.020020,0.934937,512
65311094,10005,-0.331543,0.021606,0.937012,513
65321114,10020,-0.333008,0.023193,0.935669,516
65331112,9998,-0.333496,0.023315,0.934082,508
65341087,9975,-0.333496,0.022217,0.930054,510
65351106,10019,-0.332153,0.021484,0.925781,514
65361093,9987,-0.330688,0.021484,0.927490,515
65371093,10000,-0.328369,0.023437,0.938110,512
65381107,10014,-0.331543,0.019653,0.928223,515
65391110,10003,-0.333740,0.013428,0.916870,514
65401100,9990,-0.334106,0.012573,0.914795,511
65411095,9995,-0.326538,0.018555,0.926636,509
65421139,10044,-0.322388,0.021729,0.937256,511
65431093,9954,-0.330322,0.017944,0.924072,514
65441089,9996,-0.335693,0.013794,0.915771,513
65451113,10024,-0.334961,0.014160,0.918701,513
65461107,9994,-0.329834,0.018799,0.929077,506
65471116,10009,-0.326416,0.023193,0.941406,509
65481115,9999,-0.332520,0.020996,0.930786,510
65491089,9974,-0.333862,0.017334,0.927002,513
65501095,10006,-0.333740,0.016602,0.927124,512
65511096,10001,-0.330200,0.017822,0.931152,511
65521104,10008,-0.326172,0.021240,0.932617,505
65531112,10008,-0.325928,0.026123,0.930298,508
65541112,10000,-0.327881,0.024902,0.929443,510
65551110,9998,-0.328491,0.023682,0.929810,506
65561108,9998,-0.331665,0.021606,0.927734,508
65571104,9996,-0.332886,0.020264,0.928345,511
65581115,10011,-0.331909,0.022461,0.927734,507
65591109,9994,-0.332397,0.022217,0.925293,512
65601497,10388,-0.329712,0.018921,0.921997,511
65611112,9615,-0.328735,0.018311,0.923340,512
65621113,10001,-0.328613,0.017456,0.927124,512
65631087,9974,-0.330933,0.016846,0.929077,511
65641096,10009,-0.333374,0.015015,0.930420,511
65651098,10002,-0.333496,0.014526,0.930786,509
65661104,10006,-0.331543,0.015137,0.931885,513
65671109,10005,-0.329468,0.016724,0.933960,510
65681085,9976,-0.326782,0.019287,0.937378,512
65691096,10011,-0.329468,0.023560,0.933472,512
65701110,10014,-0.331787,0.023193,0.927490,513
65711097,9987,-0.333008,0.023315,0.923096,512
65721102,10005,-0.330566,0.024902,0.925537,512
65731098,9996,-0.329468,0.025757,0.929565,509
65741099,10001,-0.328125,0.023682,0.926636,512
65751107,10008,-0.331787,0.018921,0.922241,510
65761104,9997,-0.329712,0.016846,0.927124,504
65771113,10009,-0.330566,0.015869,0.929199,510
65781112,9999,-0.332397,0.015747,0.929687,511
65791104,9992,-0.333374,0.015259,0.929077,505
65801902,10798,-0.333130,0.017334,0.929565,510
65811092,9190,-0.332520,0.018066,0.931396,499
65821104,10012,-0.331177,0.018921,0.932617,512
65831102,9998,-0.330933,0.017090,0.931274,511
65841114,10012,-0.330322,0.017090,0.930420,511
65851093,9979,-0.330078,0.016602,0.925293,504
65861111,10018,-0.327637,0.020386,0.925903,512
65871103,9992,-0.328003,0.022339,0.927490,505
65881103,10000,-0.329712,0.023193,0.927490,512
65891094,9991,-0.331543,0.021851,0.926270,511
65906019,14925,-0.334595,0.020020,0.932373,508
65911510,5491,-0.333984,0.018921,0.933594,503
65921117,9607,-0.334595,0.017334,0.930298,506
65931086,9969,-0.332764,0.017334,0.927612,503
65941113,10027,-0.329346,0.018311,0.927490,510
65951110,9997,-0.326416,0.019897,0.927979,511
65961091,9981,-0.326294,0.018677,0.927856,512
65971103,10012,-0.328369,0.016602,0.926025,511
65981099,9996,-0.329468,0.016602,0.924072,512
65991109,10010,-0.330200,0.017456,0.925171,514
66001103,9994,-0.328857,0.020386,0.931152,509
66011113,10010,-0.329590,0.022217,0.932861,510
66021095,9982,-0.334473,0.020874,0.929443,515
66031114,10019,-0.333374,0.021362,0.927979,509
66041102,9988,-0.332642,0.023560,0.932495,516
66051096,9994,-0.331909,0.023193,0.934570,517
66061116,10020,-0.331543,0.021484,0.932739,514
66071111,9995,-0.331421,0.018921,0.928833,516
66081094,9983,-0.331421,0.017944,0.925903,516
66091094,10000,-0.330200,0.016357,0.922241,510
66101093,9999,-0.328369,0.017578,0.925537,515
66111086,9993,-0.328613,0.019897,0.927734,516
66121098,10012,-0.328491,0.018311,0.930054,516
66131113,10015,-0.332764,0.016357,0.927734,513
66141099,9986,-0.333252,0.017090,0.929810,515
66151091,9992,-0.333496,0.019409,0.933472,513
66161112,10021,-0.332520,0.020508,0.936890,507
66171107,9995,-0.333130,0.022217,0.935547,513
66181085,9978,-0.335938,0.018799,0.925171,508
66191113,10028,-0.335205,0.019653,0.922852,512
66201114,10001,-0.331421,0.020020,0.923340,508
66211095,9981,-0.329224,0.021362,0.924805,512
66221096,10001,-0.328125,0.019531,0.927368,512
66231095,9999,-0.331421,0.016479,0.926025,510
66241113,10018,-0.331177,0.015991,0.928345,512
66251088,9975,-0.332275,0.017090,0.932739,512
66261109,10021,-0.332642,0.018799,0.933594,506
66271100,9991,-0.335205,0.018188,0.930542,512
66281085,9985,-0.336060,0.017456,0.927002,511
66291094,10009,-0.332764,0.020264,0.928345,511
66301117,10023,-0.332031,0.020264,0.927979,508
66311098,9981,-0.333252,0.019287,0.927734,513
66321102,10004,-0.333008,0.017212,0.926147,512
66331111,10009,-0.334351,0.016846,0.926880,506
66341096,9985,-0.332153,0.016846,0.930054,506
66351115,10019,-0.332031,0.016602,0.933228,507
66361112,9997,-0.332520,0.017578,0.934692,513
66371111,9999,-0.334229,0.015381,0.930908,512
66381098,9987,-0.335693,0.013916,0.925537,506
66391100,10002,-0.332642,0.017090,0.925171,512
66401092,9992,-0.332642,0.019409,0.928223,513
66411089,9997,-0.332397,0.020508,0.928711,514
66421095,10006,-0.333374,0.019653,0.927856,510
66431109,10014,-0.333008,0.019287,0.928345,507
66441122,10013,-0.336182,0.017090,0.926392,506
66451090,9968,-0.334106,0.015625,0.926025,504
66461113,10023,-0.332153,0.017578,0.930298,508
66471089,9976,-0.331665,0.018555,0.932007,510
66481097,10008,-0.333130,0.016602,0.926880,512
66491090,9993,-0.334717,0.014160,0.922485,510
66501098,10008,-0.333496,0.020020,0.927612,510
66511090,9992,-0.332153,0.020264,0.928223,510
66521087,9997,-0.332153,0.018066,0.929932,511
66531093,10006,-0.332642,0.019409,0.932983,508
66541106,10013,-0.336182,0.020020,0.932129,510
66551113,10007,-0.337158,0.016479,0.923584,510
66561106,9993,-0.332275,0.016968,0.925537,510
66571106,10000,-0.329346,0.019287,0.930176,510
66581091,9985,-0.329224,0.020142,0.929932,512
66591125,10034,-0.333374,0.018555,0.926758,510
66601089,9964,-0.336548,0.016113,0.926270,505
66611090,10001,-0.339600,0.013062,0.927612,512
66621098,10008,-0.337402,0.013062,0.932983,511
66631111,10013,-0.335205,0.016357,0.933472,513
66641091,9980,-0.334717,0.016235,0.930298,510
66651089,9998,-0.334473,0.015137,0.927612,511
66661088,9999,-0.331909,0.015259,0.926636,507
66671112,10024,-0.330933,0.015747,0.928345,506
66681106,9994,-0.331543,0.016602,0.927246,513
66691092,9986,-0.333618,0.017578,0.926147,508
66701090,9998,-0.335693,0.017212,0.925171,518
66711098,10008,-0.336548,0.015625,0.926025,511
66721086,9988,-0.333618,0.015137,0.930054,514
66731135,10049,-0.333862,0.015747,0.930542,514
66741088,9953,-0.332764,0.015625,0.931030,518
66751096,10008,-0.334717,0.016602,0.930542,513
66761086,9990,-0.334839,0.016357,0.929321,516
66771094,10008,-0.334839,0.015625,0.925415,516
66781131,10037,-0.335449,0.016846,0.923584,518
66791093,9962,-0.332764,0.017090,0.924927,517
66801093,10000,-0.332764,0.017822,0.927979,515
66811113,10020,-0.333740,0.018188,0.931030,515
66821094,9981,-0.335449,0.014893,0.928467,511
66831106,10012,-0.338623,0.014404,0.927246,509
66841107,10001,-0.335571,0.016602,0.928101,516
66851111,10004,-0.333740,0.018066,0.927979,513
66861104,9993,-0.331299,0.019897,0.928345,516
66871099,9995,-0.332520,0.020020,0.927979,511
66881110,10011,-0.336914,0.016724,0.925293,514
66891086,9976,-0.336914,0.014648,0.923584,511
66901101,10015,-0.338013,0.015015,0.927124,514
66911087,9986,-0.336060,0.015381,0.929199,509
66921091,10004,-0.336060,0.014160,0.927246,513
66931094,10003,-0.334351,0.013306,0.928345,510
66941100,10006,-0.333252,0.014404,0.929321,512
66951104,10004,-0.333374,0.014282,0.927002,507
66961096,9992,-0.333984,0.014282,0.925537,513
66971099,10003,-0.334229,0.015869,0.927734,511
66981085,9986,-0.335205,0.017578,0.927734,511
66991114,10029,-0.335449,0.016724,0.925903,513
67001099,9985,-0.335815,0.016724,0.927979,506
67011085,9986,-0.334106,0.017456,0.930542,512
67021108,10023,-0.334839,0.017944,0.929199,506
67031112,10004,-0.334717,0.017944,0.927368,511
67041112,10000,-0.332520,0.017578,0.929810,510
67051099,9987,-0.333496,0.017944,0.929443,514
67061100,10001,-0.334229,0.016846,0.927856,512
67071110,10010,-0.335938,0.015015,0.927124,512
67081090,9980,-0.336792,0.015503,0.926392,512
67091094,10004,-0.336060,0.016602,0.926636,512
67101111,10017,-0.334839,0.016602,0.927368,514
67111112,10001,-0.334839,0.015381,0.927002,510
67121112,10000,-0.333740,0.014771,0.926270,513
67131100,9988,-0.333496,0.014771,0.926514,512
67141098,9998,-0.335327,0.016724,0.925781,508
67151100,10002,-0.333984,0.017090,0.929077,507
67161104,10004,-0.336060,0.016357,0.928711,511
67171094,9990,-0.337036,0.016357,0.927124,508
67181093,9999,-0.336914,0.013672,0.928101,511
67191110,10017,-0.336548,0.014526,0.927368,507
67201113,10003,-0.336426,0.014648,0.927368,512
67211107,9994,-0.334595,0.014282,0.926880,512
67221090,9983,-0.333618,0.016113,0.927124,510
67231095,10005,-0.334229,0.018066,0.928589,504
67241094,9999,-0.334595,0.018066,0.927734,511
67251112,10018,-0.335571,0.017822,0.928711,511
67261106,9994,-0.336182,0.018066,0.928467,506
67271099,9993,-0.336548,0.017700,0.926636,511
67281112,10013,-0.338257,0.017090,0.927368,507
67291089,9977,-0.336304,0.016235,0.926392,506
67301114,10025,-0.336060,0.014038,0.925415,511
67311086,9972,-0.334961,0.014282,0.926147,513
67321121,10035,-0.336182,0.014038,0.928467,510
67331100,9979,-0.336548,0.014526,0.928345,508
67341092,9992,-0.336182,0.012329,0.927002,503
67353499,12407,-0.337036,0.014404,0.925659,512
67361096,7597,0.000000,0.000000,0.000000,511
67371115,10019,-0.334351,0.016357,0.929443,510
67381106,9991,-0.335083,0.016479,0.927856,513
67391112,10006,-0.336304,0.016479,0.927124,509
67401087,9975,-0.335938,0.015747,0.925659,506
67411094,10007,-0.335205,0.015625,0.927002,510
67421098,10004,-0.335327,0.018066,0.931641,513
67431114,10016,-0.334351,0.016968,0.932495,515
67441088,9974,-0.335205,0.016113,0.928955,514
67451112,10024,-0.336060,0.015381,0.926758,518
67461110,9998,-0.335449,0.014648,0.924805,513
67471111,10001,-0.334473,0.017944,0.928345,518
67481092,9981,-0.335083,0.018555,0.929321,515
67491484,10392,-0.336426,0.016724,0.924927,517
67501100,9616,-0.336670,0.016235,0.923340,517
67511089,9989,-0.337158,0.016113,0.925659,518
67521110,10021,-0.335205,0.015015,0.928711,515
67531105,9995,-0.334595,0.013672,0.929443,512
67541100,9995,-0.335693,0.015747,0.929810,517
67551098,9998,-0.335938,0.016357,0.930908,516
67561115,10017,-0.336426,0.016846,0.928223,513
67571114,9999,-0.336304,0.016846,0.927246,510
67581086,9972,-0.335327,0.017334,0.929932,516
67591087,10001,-0.337280,0.015503,0.924927,512
67601089,10002,-0.336914,0.014771,0.920776,515
67611091,10002,-0.337158,0.015991,0.921997,513
67621085,9994,-0.336548,0.016602,0.926147,507
67631099,10014,-0.336548,0.013306,0.926758,515
67641106,10007,-0.338257,0.011597,0.923950,512
67651092,9986,-0.337036,0.011108,0.925659,513
67661102,10010,-0.335083,0.013306,0.928223,512
67671121,10019,-0.335327,0.015991,0.930298,512
67681112,9991,-0.334229,0.016724,0.931030,512
67691096,9984,-0.336914,0.017456,0.927002,513
67701089,9993,-0.336182,0.018677,0.927612,514
67711107,10018,-0.336060,0.018555,0.926880,512
67721103,9996,-0.335327,0.019409,0.928955,507
67731093,9990,-0.334473,0.018188,0.929199,506
67741104,10011,-0.336060,0.016235,0.930908,509
67751114,10010,-0.336060,0.016846,0.929321,513
67761092,9978,-0.336304,0.016479,0.927612,511
67771112,10020,-0.336304,0.016724,0.926636,505
67781100,9988,-0.336548,0.016602,0.926147,512
67791102,10002,-0.333496,0.016602,0.924927,509
67801089,9987,-0.334351,0.016357,0.925537,513
67811090,10001,-0.333740,0.015869,0.926514,512
67821112,10022,-0.335083,0.014771,0.927124,511
67831090,9978,-0.334961,0.014160,0.927856,507
67847461,16371,-0.336548,0.015625,0.929443,511
67853301,5840,-0.337769,0.015015,0.928101,511
67861101,7800,-0.337158,0.015015,0.927002,514
67871112,10011,-0.336548,0.017334,0.929077,506
67881096,9984,-0.335815,0.018799,0.929321,512
67891114,10018,-0.335205,0.018921,0.929321,505
67901095,9981,-0.335938,0.017578,0.927246,511
67911094,9999,-0.335327,0.016724,0.927002,512
67921090,9996,-0.335938,0.015625,0.927612,511
67931095,10005,-0.335449,0.016479,0.927002,520
67941085,9990,-0.334717,0.014404,0.926758,510
67951101,10016,-0.336426,0.013916,0.927856,513
67961099,9998,-0.336914,0.015869,0.927124,512
67971091,9992,-0.336914,0.016357,0.927002,506
67981114,10023,-0.336304,0.015991,0.926758,512
67991089,9975,-0.336060,0.014771,0.927124,513
68001111,10022,-0.337036,0.015625,0.928467,511
68011100,9989,-0.336670,0.015991,0.927124,509
68021087,9987,-0.336426,0.015137,0.927246,509
68031086,9999,-0.334717,0.015259,0.924805,511
68041102,10016,-0.334106,0.014282,0.923950,507
68051093,9991,-0.333252,0.014282,0.924927,512
68061093,10000,-0.336304,0.016357,0.928711,505
68071104,10011,-0.337036,0.015747,0.927124,508
68081111,10007,-0.338989,0.013062,0.926392,513
68091108,9997,-0.339478,0.012939,0.926758,511
68101092,9984,-0.337646,0.014160,0.928101,509
68111087,9995,-0.335815,0.014771,0.928955,512
68121090,10003,-0.334351,0.018188,0.931519,512
68131097,10007,-0.334717,0.017334,0.928589,512
68141085,9988,-0.336914,0.015015,0.925537,513
68151095,10010,-0.336060,0.015869,0.926025,514
68161108,10013,-0.334839,0.017212,0.927246,510
68171107,9999,-0.335083,0.016724,0.929932,516
68181091,9984,-0.334839,0.014038,0.927490,517
68191091,10000,-0.335205,0.013916,0.925903,518
68201088,9997,-0.335571,0.014038,0.924805,516
68211103,10015,-0.336304,0.014038,0.927124,517
68221087,9984,-0.336304,0.014526,0.929810,520
68231085,9998,-0.337158,0.016479,0.928955,519
68241108,10023,-0.337402,0.016357,0.928223,516
68251101,9993,-0.337524,0.016724,0.926392,517
68261101,10000,-0.337402,0.015015,0.926025,515
68271113,10012,-0.336304,0.015015,0.927002,513
68281113,10000,-0.335205,0.015869,0.928955,514
68291095,9982,-0.335449,0.015259,0.929565,513
68301103,10008,-0.336182,0.013794,0.931274,513
68311106,10003,-0.337036,0.014282,0.928345,514
68321088,9982,-0.336670,0.014038,0.927002,514
68331110,10022,-0.336914,0.016724,0.928467,507
68341105,9995,-0.336182,0.016968,0.926636,517
68351102,9997,-0.335938,0.017700,0.923950,509
68361107,10005,-0.337036,0.015869,0.922363,514
68371109,10002,-0.335693,0.015503,0.929077,514
68381085,9976,-0.336670,0.015015,0.932129,508
68391098,10013,-0.339233,0.008545,0.921509,512
68401096,9998,-0.336060,0.010742,0.925537,514
68411107,10011,-0.332764,0.014648,0.933472,513
68421089,9982,-0.332520,0.016602,0.935547,506
68431087,9998,-0.333252,0.015503,0.933105,510
68441092,10005,-0.338745,0.016235,0.926392,512
68451097,10005,-0.337524,0.017456,0.927368,505
68461102,10005,-0.336426,0.019409,0.928955,510
68471113,10011,-0.336060,0.019165,0.930664,511
68481108,9995,-0.337769,0.015991,0.925659,505
68491107,9999,-0.338013,0.013672,0.926514,506
68501086,9979,-0.333862,0.015503,0.931641,512
68511109,10023,-0.334961,0.013916,0.928711,514
68521115,10006,-0.333740,0.012207,0.924683,511
68531119,10004,-0.332397,0.011475,0.923706,512
68541090,9971,-0.331787,0.014648,0.927612,510
68551098,10008,-0.332275,0.016235,0.930054,511
68561088,9990,-0.334473,0.015747,0.927246,513
68571100,10012,-0.337158,0.016846,0.924561,512
68581102,10002,-0.337769,0.017822,0.925415,508
68591121,10019,-0.339478,0.019287,0.928467,512
68601097,9976,-0.338257,0.016968,0.933228,512
68611099,10002,-0.339355,0.014038,0.931152,512
68621096,9997,-0.339233,0.011475,0.925171,513
68631103,10007,-0.338013,0.009766,0.924561,511
68641107,10004,-0.334839,0.011353,0.925659,512
68651108,10001,-0.333008,0.011963,0.927979,510
68661091,9983,-0.334229,0.010986,0.925659,512
68671113,10022,-0.336060,0.012451,0.925903,511
68681113,10000,-0.337646,0.013916,0.927124,511
68691120,10007,-0.340088,0.014893,0.930664,505
68701105,9985,-0.341431,0.014160,0.928345,508
68711097,9992,-0.338867,0.017700,0.927856,510
68721093,9996,-0.335449,0.018188,0.927612,511
68731097,10004,-0.331421,0.019531,0.926514,510
68741098,10001,-0.329712,0.018921,0.926758,504
68751109,10011,-0.328369,0.018188,0.927490,509
68761101,9992,-0.330078,0.018066,0.929443,510
68771090,9989,-0.339478,0.015991,0.926392,511
68781107,10017,-0.340576,0.014893,0.924561,505
68791096,9989,-0.340332,0.015991,0.926880,510
68801114,10018,-0.338379,0.016602,0.929443,509
68811098,9984,-0.336426,0.015259,0.930176,506
68821109,10011,-0.336182,0.011597,0.929321,510
68831095,9986,-0.336548,0.010010,0.927002,512
68841108,10013,-0.337036,0.009399,0.926636,508
68851098,9990,-0.336182,0.008423,0.925903,506
68861110,10012,-0.335083,0.011108,0.922974,513
68871089,9979,-0.333740,0.014893,0.926636,514
68881107,10018,-0.336792,0.014893,0.924316,516
68891097,9990,-0.337402,0.012329,0.925659,515
68901119,10022,-0.337524,0.012329,0.927734,514
68911087,9968,-0.338379,0.013062,0.931152,516
68921109,10022,-0.337524,0.012939,0.931396,517
68931098,9989,-0.336548,0.015259,0.930786,511
68941103,10005,-0.335693,0.015869,0.928589,511
68951103,10000,-0.334961,0.018188,0.927490,517
68961094,9991,-0.334229,0.018555,0.923096,517
68971087,9993,-0.333740,0.019775,0.925781,518
68981101,10014,-0.334717,0.015625,0.925171,511
68991101,10000,-0.336060,0.013794,0.927979,515
69001132,10031,-0.336914,0.012329,0.927368,510
69011104,9972,-0.336548,0.012085,0.927734,514
69021088,9984,-0.337158,0.011963,0.929077,515
69031100,10012,-0.337158,0.012207,0.930908,507
69041107,10007,-0.337646,0.015381,0.929565,510
69051087,9980,-0.337280,0.016724,0.927246,511
69061110,10023,-0.337158,0.017456,0.925659,507
69071111,10001,-0.335693,0.017700,0.927002,512
69081114,10003,-0.334717,0.017944,0.927246,509
69091104,9990,-0.334961,0.015137,0.928833,507
69101105,10001,-0.335449,0.014038,0.927368,510
69111094,9989,-0.337524,0.013428,0.927124,512
69121105,10011,-0.337891,0.012085,0.927490,508
69131111,10006,-0.338623,0.010620,0.926758,511
69141097,9986,-0.336304,0.012817,0.927612,511
69151112,10015,-0.336792,0.012817,0.927124,508
69161101,9989,-0.338013,0.014282,0.925659,512
69171089,9988,-0.336182,0.013550,0.926025,512
69181089,10000,-0.335205,0.014771,0.927490,512
69191097,10008,-0.334106,0.015747,0.928223,505
69201108,10011,-0.335815,0.015137,0.928589,512
69211098,9990,-0.336304,0.014771,0.928345,508
69221102,10004,-0.335938,0.015503,0.927856,513
69231100,9998,-0.336426,0.015015,0.926514,509
69241092,9992,-0.337280,0.014771,0.926392,510
69251088,9996,-0.335083,0.014526,0.927856,513
69261103,10015,-0.335083,0.013794,0.927124,509
69271094,9991,-0.336426,0.014404,0.927612,507
69281112,10018,-0.338013,0.012817,0.927246,513
69291100,9988,-0.336914,0.012695,0.927490,507
69301103,10003,-0.337646,0.012207,0.929321,508
69311108,10005,-0.336426,0.013916,0.928467,511
69321085,9977,-0.335815,0.013916,0.927002,506
69331087,10002,-0.335938,0.016846,0.928101,512
69341108,10021,-0.336304,0.018677,0.928955,512
69351098,9990,-0.336548,0.017700,0.929199,507
69361103,10005,-0.338135,0.015869,0.927856,511
69371104,10001,-0.338013,0.015747,0.926636,514
69381115,10011,-0.336304,0.014160,0.925781,510
69391114,9999,-0.336182,0.012939,0.926758,509
69401111,9997,-0.335938,0.012207,0.926270,504
69411103,9992,-0.337402,0.010620,0.923096,509
69421101,9998,-0.337646,0.010864,0.924683,510
69431099,9998,-0.339233,0.011230,0.925781,508
69441106,10007,-0.338623,0.012573,0.927612,511
69451095,9989,-0.338989,0.013550,0.929321,513
69461104,10009,-0.339966,0.012085,0.929687,510
69471095,9991,-0.337158,0.010864,0.928101,512
69481107,10012,-0.337769,0.013306,0.926636,511
69491112,10005,-0.335815,0.013916,0.925659,512
69501087,9975,-0.335327,0.013794,0.926758,511
69511102,10015,-0.334229,0.013794,0.927002,513
69521089,9987,-0.337646,0.011963,0.924316,513
69531104,10015,-0.338013,0.012817,0.925903,512
69541093,9989,-0.337158,0.011841,0.927856,508
69551087,9994,-0.336792,0.012817,0.929443,516
69564298,13211,-0.337158,0.013306,0.928467,515
69571110,6812,0.000000,0.000000,0.000000,510
69581103,9993,-0.337402,0.015015,0.926392,517
69591090,9987,-0.336426,0.015869,0.925781,513
69601113,10023,-0.336792,0.016113,0.926758,517
69611089,9976,-0.337402,0.015625,0.928223,516
69621090,10001,-0.337036,0.015381,0.927246,512
69631109,10019,-0.337158,0.012695,0.927002,515
69641110,10001,-0.336670,0.012451,0.927124,517
69651095,9985,-0.337402,0.012207,0.928589,510
69661110,10015,-0.337402,0.011963,0.927734,511
69671104,9994,-0.337769,0.011963,0.927734,514
69681091,9987,-0.337646,0.012939,0.926514,508
69691091,10000,-0.338135,0.013184,0.926636,513
69701088,9997,-0.338013,0.014526,0.926758,512
69711100,10012,-0.337402,0.014404,0.927002,512
69721112,10012,-0.338379,0.013916,0.927612,511
69731108,9996,-0.338989,0.013184,0.926636,506
69741104,9996,-0.337891,0.011719,0.926025,512
69751103,9999,-0.336426,0.013306,0.926880,511
69761096,9993,-0.336670,0.013062,0.927490,511
69774723,13627,-0.336548,0.013916,0.926514,511
69781107,6384,0.000000,0.000000,0.000000,514
69791109,10002,-0.336792,0.014893,0.929687,512
69801105,9996,-0.338623,0.014526,0.928467,511
69811103,9998,-0.339966,0.014771,0.927734,512
69821113,10010,-0.340576,0.013550,0.928101,505
69831108,9995,-0.340210,0.012207,0.926880,513
69841114,10006,-0.338379,0.013062,0.927612,512
69851094,9980,-0.338135,0.011963,0.926514,513
69861096,10002,-0.337036,0.010742,0.924072,512
69871113,10017,-0.334717,0.011353,0.925171,508
69881094,9981,-0.333252,0.012329,0.926880,512
69891130,10036,-0.333008,0.014282,0.927490,514
69901093,9963,-0.335571,0.015747,0.924683,507
69911085,9992,-0.336304,0.016113,0.926758,512
69921102,10017,-0.337646,0.016479,0.927124,507
69931099,9997,-0.339844,0.015625,0.930420,512
69941113,10014,-0.340820,0.014526,0.932861,510
69951120,10007,-0.343750,0.010864,0.929810,512
69961090,9970,-0.342773,0.008789,0.926270,512
69971110,10020,-0.338745,0.008423,0.926880,510
69981115,10005,-0.335083,0.009888,0.927979,511
69991085,9970,-0.333252,0.012085,0.926636,505
70001108,10023,-0.331543,0.013672,0.926880,504
70011088,9980,-0.336792,0.011108,0.924561,505
70021086,9998,-0.339233,0.010376,0.925537,510
70031103,10017,-0.341309,0.011719,0.927124,512
70041114,10011,-0.342163,0.012817,0.928467,509
70051088,9974,-0.341309,0.013428,0.928101,507
70061101,10013,-0.337402,0.014160,0.923340,511
70071112,10011,-0.335815,0.014771,0.924805,511
70081104,9992,-0.334717,0.014160,0.927002,512
70091106,10002,-0.336060,0.014526,0.928833,509
70101085,9979,-0.338379,0.014648,0.926147,510
70111109,10024,-0.338745,0.011963,0.926636,504
70121100,9991,-0.337280,0.013184,0.931274,505
70131110,10010,-0.337646,0.014160,0.931152,511
70141092,9982,-0.338623,0.011719,0.930176,504
70151115,10023,-0.337402,0.011475,0.928467,511
70161096,9981,-0.339111,0.011963,0.926880,512
70171096,10000,-0.336426,0.014160,0.926880,512
70181135,10039,-0.336792,0.015015,0.928833,507
70195580,14445,-0.335693,0.015259,0.928711,514
70201269,5689,0.000000,0.000000,0.000000,517
70211104,9835,-0.337891,0.013916,0.926514,516
70221089,9985,-0.337646,0.015137,0.927124,517
70231099,10010,-0.337646,0.013306,0.927979,519
70241116,10017,-0.338379,0.013306,0.928467,519
70251087,9971,-0.339111,0.013428,0.928101,518
70261102,10015,-0.338379,0.011108,0.928345,519
70271105,10003,-0.339722,0.009888,0.926636,517
70281090,9985,-0.337891,0.009644,0.927368,516
70291106,10016,-0.337280,0.010010,0.928955,514
70301099,9993,-0.336548,0.010498,0.927490,513
70311114,10015,-0.337769,0.010498,0.927734,516
70321087,9973,-0.337769,0.012939,0.927856,514
70331126,10039,-0.337158,0.013672,0.927124,514
70341101,9975,-0.336914,0.014038,0.924561,513
70351099,9998,-0.336548,0.015503,0.926147,512
70361114,10015,-0.337646,0.017090,0.927124,513
70371085,9971,-0.337891,0.016602,0.926880,509
70381097,10012,-0.339966,0.014893,0.922852,513
70391103,10006,-0.338379,0.012817,0.923218,514
70401110,10007,-0.337036,0.012939,0.930542,513
70411105,9995,-0.336182,0.012695,0.935059,514
70421088,9983,-0.337769,0.010254,0.934692,513
70431111,10023,-0.339478,0.007446,0.927734,511
70441086,9975,-0.341187,0.011108,0.926392,511
70451092,10006,-0.338135,0.013794,0.929321,513
70461114,10022,-0.335205,0.015381,0.931641,509
70471090,9976,-0.334595,0.015259,0.927734,507
70481114,10024,-0.336304,0.014526,0.924927,512
70491101,9987,-0.339722,0.014526,0.926392,511
70501098,9997,-0.339844,0.013428,0.928467,512
70511089,9991,-0.340088,0.012573,0.928101,508
70521099,10010,-0.340210,0.011841,0.926392,505
70531111,10012,-0.341064,0.011230,0.924438,512
70541103,9992,-0.341187,0.010010,0.927002,512
70551109,10006,-0.337036,0.009766,0.927490,514
70561098,9989,-0.336426,0.009888,0.928833,507
70571110,10012,-0.336670,0.010742,0.926880,514
70581106,9996,-0.336426,0.011841,0.926514,511
70591099,9993,-0.336792,0.013306,0.925903,512
70601106,10007,-0.337280,0.014282,0.927490,516
70611105,9999,-0.339355,0.014771,0.927368,512
70621101,9996,-0.342163,0.013916,0.927246,512
70631095,9994,-0.341187,0.012695,0.925537,511
70641097,10002,-0.341187,0.012085,0.925415,511
70651127,10030,-0.339233,0.013794,0.931763,512
70661111,9984,-0.339111,0.013794,0.930420,511
70671086,9975,-0.339111,0.012695,0.928955,514
70681111,10025,-0.339111,0.011963,0.927124,512
70691107,9996,-0.340210,0.011597,0.925781,505
70701098,9991,-0.339233,0.013428,0.927368,511
70711118,10020,-0.339111,0.013428,0.925049,506
70721108,9990,-0.337646,0.011475,0.924561,509
70731098,9990,-0.339233,0.011353,0.922607,509
70741093,9995,-0.341309,0.011353,0.921997,504
70751099,10006,-0.340088,0.011475,0.923706,505
70761088,9989,-0.339478,0.011719,0.930664,510
70771105,10017,-0.339844,0.011963,0.928345,510
70781112,10007,-0.339966,0.008667,0.926270,511
70791120,10008,-0.339722,0.008789,0.925293,506
70801105,9985,-0.338623,0.011108,0.926880,512
70811096,9991,-0.337891,0.012451,0.929199,513
70821109,10013,-0.339844,0.011108,0.926758,507
70831093,9984,-0.341431,0.010376,0.925415,515
70841099,10006,-0.342529,0.011353,0.925781,515
70851096,9997,-0.341431,0.010742,0.924438,519
70861106,10010,-0.340820,0.008667,0.927124,520
70871112,10006,-0.338379,0.009033,0.926270,517
70881104,9992,-0.337646,0.011230,0.926880,517
70891090,9986,-0.336914,0.012207,0.927002,517
70901093,10003,-0.337769,0.014160,0.927979,518
70911087,9994,-0.338623,0.014893,0.926880,518
70921102,10015,-0.339600,0.016479,0.926270,519
70931127,10025,-0.340332,0.015991,0.927856,512
70941115,9988,-0.342163,0.015991,0.927002,517
70951097,9982,-0.341797,0.013672,0.926147,514
70961087,9990,-0.342651,0.010498,0.927490,515
70971102,10015,-0.341797,0.007690,0.921265,517
70981106,10004,-0.340576,0.004272,0.915771,510
70993128,12022,-0.336060,0.005859,0.924683,515
71001108,7980,-0.330078,0.012207,0.937256,515
71011102,9994,-0.333130,0.010620,0.937378,515
71021093,9991,-0.340698,0.005249,0.925537,515
71031110,10017,-0.345337,0.009521,0.930908,512
71041091,9981,-0.345581,0.012939,0.931763,514
71051105,10014,-0.346436,0.011597,0.912842,514
71061103,9998,-0.340820,0.011475,0.911377,514
71071102,9999,-0.332764,0.017456,0.929687,513
71081092,9990,-0.335693,0.013428,0.939453,512
71092827,11735,-0.345581,0.001587,0.915283,512
71101091,8264,-0.347534,0.000000,0.910156,509
71111103,10012,-0.340332,0.010132,0.927124,515
71121104,10001,-0.333740,0.017700,0.939697,512
71131106,10002,-0.333252,0.019165,0.934814,509
71141115,10009,-0.339478,0.011353,0.919434,514
71151109,9994,-0.342041,0.009644,0.916870,512
71161087,9978,-0.336792,0.010986,0.926025,513
71171104,10017,-0.332764,0.012939,0.935425,513
71181089,9985,-0.336060,0.013672,0.936890,513
71191110,10021,-0.343262,0.009521,0.919556,507
71201102,9992,-0.343628,0.011963,0.926392,513
71211109,10007,-0.341309,0.013672,0.933960,512
71221091,9982,-0.343018,0.012817,0.931763,513
71231086,9995,-0.342896,0.010620,0.925171,514
71241104,10018,-0.341553,0.007690,0.918945,513
71251101,9997,-0.335815,0.008301,0.923096,512
71261108,10007,-0.331421,0.011230,0.929810,514
71271102,9994,-0.331177,0.011230,0.934570,514
71281113,10011,-0.337524,0.008423,0.930786,511
71291110,9997,-0.341553,0.008057,0.925537,512
71301104,9994,-0.340820,0.013916,0.923950,507
71312785,11681,-0.337158,0.016357,0.927490,510
71321086,8301,-0.335571,0.017822,0.925903,512
71331114,10028,-0.332764,0.019409,0.927124,510
71341088,9974,-0.332397,0.019897,0.934326,504
71351100,10012,-0.340698,0.010620,0.934448,513
71361090,9990,-0.347534,0.008057,0.927368,511
71371110,10020,-0.348267,0.009644,0.923340,510
71381109,9999,-0.344238,0.011719,0.921997,508
71391103,9994,-0.336670,0.011963,0.922363,507
71401099,9996,-0.332886,0.015625,0.928589,506
71411091,9992,-0.332520,0.012817,0.928345,512
71421096,10005,-0.335083,0.008667,0.926636,512
71431103,10007,-0.338379,0.005493,0.924194,510
71441093,9990,-0.338745,0.007935,0.924805,512
71451108,10015,-0.338745,0.015015,0.928955,506
71461095,9987,-0.339233,0.019043,0.940186,512
71471103,10008,-0.345581,0.015259,0.932739,508
71481092,9989,-0.349731,0.010498,0.925781,511
71491113,10021,-0.349121,0.007568,0.919800,511
71501129,10016,-0.345459,0.007690,0.918823,505
71511109,9980,-0.329468,0.012451,0.922485,511
71521114,10005,-0.325317,0.015259,0.928833,513
71531094,9980,-0.327637,0.009277,0.926880,514
71541103,10009,-0.334473,0.002930,0.922363,515
71551112,10009,-0.339600,0.000366,0.920288,514
71561110,9998,-0.341675,0.002930,0.926880,511
71571110,10000,-0.342651,0.012451,0.934937,518
71581087,9977,-0.342896,0.014648,0.930420,518
71591089,10002,-0.341309,0.015381,0.924927,520
71601289,10200,-0.340576,0.016846,0.922607,517
71611085,9796,-0.336792,0.019897,0.928955,518
71621106,10021,-0.335327,0.019287,0.935669,520
71631101,9995,-0.338135,0.015747,0.928345,518
71641091,9990,-0.340942,0.012573,0.924194,517
71651116,10025,-0.340088,0.012817,0.922974,518
71661101,9985,-0.339966,0.011230,0.924805,517
71671107,10006,-0.337524,0.013794,0.927002,515
71681101,9994,-0.338989,0.012329,0.927734,515
71691088,9987,-0.340454,0.011597,0.927368,512
71701098,10010,-0.342163,0.008667,0.927124,517
71711089,9991,-0.343628,0.005859,0.928345,516
71721087,9998,-0.344238,0.005737,0.929810,515
71731106,10019,-0.339233,0.009399,0.924683,510
71741099,9993,-0.336548,0.012573,0.922363,511
71751108,10009,-0.335205,0.013794,0.922485,513
71761092,9984,-0.333252,0.012573,0.921387,509
71771112,10020,-0.334106,0.012573,0.923706,512
71781085,9973,-0.338623,0.015869,0.926270,513
71791131,10046,-0.339722,0.015869,0.927490,515
71801112,9981,-0.339966,0.016357,0.929687,512
71811095,9983,-0.338257,0.016602,0.931885,512
71821102,10007,-0.338867,0.015137,0.931519,514
71831086,9984,-0.340820,0.013916,0.918945,513
71841105,10019,-0.332642,0.016113,0.928955,509
71851095,9990,-0.331421,0.020020,0.945557,514
71861087,9992,-0.338013,0.016724,0.943726,509
71871104,10017,-0.348022,0.007446,0.927856,511
71881100,9996,-0.352905,0.001709,0.918091,509
71891114,10014,-0.337646,0.014038,0.933472,510
71901089,9975,-0.331299,0.017578,0.934937,512
71911101,10012,-0.328857,0.016724,0.929443,509
71921102,10001,-0.329346,0.013550,0.921753,510
71931115,10013,-0.333008,0.011475,0.917847,513
71941106,9991,-0.332764,0.013062,0.927612,511
71951107,10001,-0.335938,0.015503,0.931641,513
71961088,9981,-0.338989,0.015747,0.932129,512
71971108,10020,-0.341431,0.015015,0.929443,510
71981094,9986,-0.343262,0.013794,0.926147,508
71991100,10006,-0.342651,0.013306,0.927002,513
72001106,10006,-0.337891,0.014648,0.932861,508
72011097,9991,-0.335693,0.013550,0.935425,513
72021087,9990,-0.337402,0.012451,0.929443,512
72031089,10002,-0.340454,0.008667,0.918701,509
72041101,10012,-0.335571,0.009521,0.916748,509
72051105,10004,-0.327148,0.018188,0.938354,512
72061091,9986,-0.330811,0.017212,0.938110,518
72071103,10012,-0.338867,0.015869,0.931885,511
72081095,9992,-0.344727,0.014404,0.921509,510
72091100,10005,-0.346436,0.014404,0.921265,511
72101111,10011,-0.342896,0.018555,0.934326,505
72111096,9985,-0.335205,0.017456,0.933228,512
72121100,10004,-0.335938,0.015259,0.926758,512
72131125,10025,-0.336060,0.014648,0.923340,512
72141114,9989,-0.333496,0.014160,0.930054,512
72151110,9996,-0.334106,0.012817,0.930176,505
72161107,9997,-0.337524,0.011108,0.922974,512
72171099,9992,-0.337891,0.014160,0.917969,512
72181102,10003,-0.335571,0.016357,0.923950,511
72191093,9991,-0.335083,0.016357,0.927856,511
72201106,10013,-0.336914,0.014404,0.929687,512
72211128,10022,-0.343872,0.005371,0.925171,507
72221092,9964,-0.342896,0.005493,0.928711,510
72231085,9993,-0.341797,0.010132,0.929565,512
72241112,10027,-0.338623,0.012329,0.932983,514
72251097,9985,-0.335938,0.011475,0.931763,515
72261089,9992,-0.334595,0.011963,0.932251,517
72271107,10018,-0.335938,0.013184,0.926514,517
72281113,10006,-0.336182,0.014404,0.926270,518
72291103,9990,-0.335693,0.014282,0.925659,516
72301086,9983,-0.336426,0.015137,0.925049,513
72311108,10022,-0.336182,0.015991,0.927979,515
72321095,9987,-0.338013,0.015747,0.930908,518
72331112,10017,-0.340332,0.013428,0.929565,519
72341092,9980,-0.342163,0.011353,0.925903,519
72351137,10045,-0.339966,0.010864,0.926880,520
72361114,9977,-0.337402,0.012207,0.927124,516
72371091,9977,-0.334961,0.011841,0.924072,520
72381085,9994,-0.336548,0.010986,0.922119,513
72391100,10015,-0.336548,0.012573,0.926636,515
72401096,9996,-0.335815,0.012451,0.933594,512
72411130,10034,-0.339111,0.009644,0.930908,511
72421089,9959,-0.341553,0.007935,0.926270,513
72431100,10011,-0.341187,0.010254,0.929077,514
72441114,10014,-0.339233,0.010864,0.929199,515
72451089,9975,-0.338623,0.011108,0.922119,516
72461104,10015,-0.336792,0.012329,0.918335,513
72471114,10010,-0.335449,0.014038,0.919678,510
72481096,9982,-0.333252,0.016357,0.932983,514
72491111,10015,-0.336670,0.013062,0.930054,514
72501095,9984,-0.339600,0.009766,0.926636,505
72511093,9998,-0.340820,0.011719,0.926636,509
72521114,10021,-0.338989,0.015747,0.929932,513
72531097,9983,-0.334595,0.019409,0.931152,508
72541095,9998,-0.336060,0.018433,0.927856,512
72551095,10000,-0.339966,0.016113,0.923462,511
72561093,9998,-0.340576,0.013672,0.924438,510
72571093,10000,-0.341431,0.012573,0.927490,513
72581108,10015,-0.340332,0.011475,0.927490,514
72591094,9986,-0.340576,0.007324,0.922119,514
72601114,10020,-0.337158,0.007935,0.921753,513
72611093,9979,-0.332642,0.010132,0.925537,512
72621086,9993,-0.331665,0.011230,0.926880,513
72631141,10055,-0.331421,0.011108,0.925781,513
72641107,9966,-0.334473,0.011108,0.924683,513
72651113,10006,-0.334351,0.013550,0.931152,514
72661112,9999,-0.336670,0.016235,0.936768,512
72671088,9976,-0.340088,0.015381,0.933472,497
72681100,10012,-0.343628,0.013916,0.927734,510
72691093,9993,-0.342529,0.013550,0.927368,513
72701088,9995,-0.336548,0.014160,0.932495,512
72711099,10011,-0.336060,0.011353,0.931152,513
72721092,9993,-0.336060,0.010376,0.926636,512
72731107,10015,-0.335327,0.009277,0.922607,510
72741111,10004,-0.333740,0.009399,0.924805,511
72751096,9985,-0.332031,0.014038,0.927979,513
72761100,10004,-0.333618,0.014404,0.928467,509
72771091,9991,-0.335327,0.015991,0.927979,511
72781086,9995,-0.336670,0.014526,0.931641,505
72791096,10010,-0.338501,0.013184,0.932129,512
72801111,10015,-0.340332,0.012573,0.924072,505
72811096,9985,-0.336670,0.014038,0.925415,510
72826133,15037,-0.333496,0.015625,0.925903,509
72832086,5953,0.000000,0.000000,0.000000,511
72841113,9027,-0.331787,0.014282,0.921021,511
72851085,9972,-0.332031,0.013916,0.922607,510
72861111,10026,-0.333984,0.012817,0.930054,510
72871096,9985,-0.335693,0.011597,0.928101,508
72881094,9998,-0.336792,0.011719,0.930908,510
72891089,9995,-0.336792,0.012695,0.935059,513
72901105,10016,-0.337402,0.011719,0.937134,512
72911096,9991,-0.336914,0.011108,0.926025,512
72921110,10014,-0.334839,0.012695,0.925049,513
72931618,10508,-0.330688,0.015869,0.927368,522
72941104,9486,-0.328369,0.017822,0.928589,514
72951114,10010,-0.328125,0.018188,0.928345,516
72961094,9980,-0.330444,0.016968,0.928589,512
72971101,10007,-0.334839,0.013672,0.934204,516
72981110,10009,-0.336304,0.014038,0.936157,516
72991092,9982,-0.339600,0.013184,0.933228,514
73001109,10017,-0.339478,0.014526,0.927246,517
73011089,9980,-0.336426,0.016357,0.925537,514
73021088,9999,-0.332031,0.017822,0.927368,517
73031098,10010,-0.329224,0.016357,0.926392,512
73041108,10010,-0.329468,0.013062,0.925659,516
73051093,9985,-0.330811,0.011108,0.925537,512
73061097,10004,-0.330933,0.010498,0.927979,515
73071110,10013,-0.332153,0.011230,0.933472,514
73081085,9975,-0.333374,0.015015,0.932251,512
73091093,10008,-0.333496,0.017212,0.932617,507
73101091,9998,-0.333496,0.020996,0.931030,508
73111090,9999,-0.332642,0.021606,0.930420,511
73121105,10015,-0.332397,0.021729,0.930054,505
73131094,9989,-0.333496,0.020630,0.929932,512
73141097,10003,-0.334229,0.017212,0.929199,512
73151112,10015,-0.335938,0.015625,0.928345,507
73161115,10003,-0.334961,0.014771,0.929810,513
73171100,9985,-0.333496,0.013184,0.931030,509
73181099,9999,-0.331787,0.011353,0.928467,511
73191087,9988,-0.331543,0.011108,0.927734,508
73201115,10028,-0.332397,0.013062,0.927734,510
73211110,9995,-0.331909,0.013184,0.929199,513
73221097,9987,-0.333496,0.013062,0.929565,509
73231702,10605,-0.334473,0.013794,0.927002,513
73241103,9401,-0.335693,0.013184,0.927246,510
73251113,10010,-0.335327,0.014893,0.927490,511
73261102,9989,-0.334473,0.015869,0.929077,511
73271085,9983,-0.333618,0.015625,0.929932,512
73281110,10025,-0.333374,0.017090,0.929321,512
73291109,9999,-0.333008,0.015503,0.929810,511
73301096,9987,-0.332764,0.015381,0.928955,506
73311096,10000,-0.333496,0.015381,0.928955,507
73321085,9989,-0.333984,0.014648,0.928955,509
73331114,10029,-0.333252,0.015747,0.928589,511
73341103,9989,-0.333008,0.015503,0.928589,511
73351104,10001,-0.334717,0.015381,0.928955,509
73361113,10009,-0.334717,0.014893,0.927856,512
73371101,9988,-0.333984,0.014160,0.929565,507
73381092,9991,-0.333496,0.015503,0.930176,509
73391086,9994,-0.332642,0.013916,0.931274,512
73401107,10021,-0.334473,0.013428,0.929077,511
73411095,9988,-0.334595,0.015991,0.927368,505
73421098,10003,-0.333984,0.016846,0.927734,512
73431103,10005,-0.333862,0.017700,0.928223,509
73441109,10006,-0.333740,0.016113,0.930542,505
73451090,9981,-0.335938,0.010864,0.928467,509
73461098,10008,-0.334839,0.009644,0.927734,508
73471090,9992,-0.334839,0.010376,0.928223,510
73481094,10004,-0.332886,0.011230,0.927734,507
73491107,10013,-0.332275,0.012207,0.926392,511
73501100,9993,-0.334717,0.013184,0.924927,508
73511095,9995,-0.335571,0.013794,0.926758,509
73521109,10014,-0.334351,0.014771,0.927979,510
73531095,9986,-0.336304,0.014404,0.928467,510
73541104,10009,-0.337158,0.014038,0.929321,503
73551107,10003,-0.336914,0.013672,0.929443,510
73561087,9980,-0.335205,0.013184,0.928345,511
73571111,10024,-0.332642,0.014160,0.929687,512
73581093,9982,-0.333374,0.015137,0.930176,512
73591094,10001,-0.333252,0.014648,0.929443,506
73601101,10007,-0.333496,0.013794,0.929199,508
73611109,10008,-0.335327,0.013428,0.929321,514
73621110,10001,-0.335815,0.013062,0.929687,514
73631105,9995,-0.336426,0.013184,0.928833,517
73641091,9986,-0.335938,0.013916,0.929321,516
73651105,10014,-0.337402,0.012939,0.928589,517
73661098,9993,-0.336792,0.011108,0.926880,516
73671104,10006,-0.335693,0.012207,0.927002,513
73681101,9997,-0.334961,0.012817,0.926758,516
73691098,9997,-0.334961,0.012573,0.926392,512
73701089,9991,-0.333374,0.011230,0.925537,515
73711099,10010,-0.335449,0.011108,0.924316,515
73721091,9992,-0.335327,0.011719,0.927124,512
73731115,10024,-0.335571,0.013306,0.927734,514
73741096,9981,-0.336914,0.013306,0.929565,513
73751099,10003,-0.336426,0.012207,0.927490,515
73761091,9992,-0.336426,0.012451,0.927124,512
73771135,10044,-0.336304,0.013062,0.927002,514
73781111,9976,-0.336426,0.013550,0.928711,520
73791110,9999,-0.336426,0.014404,0.929443,513
73801103,9993,-0.336060,0.013794,0.928345,511
73811111,10008,-0.335205,0.012817,0.927612,510
73821088,9977,-0.335938,0.012817,0.926392,512
73831095,10007,-0.333862,0.014160,0.927979,506
73841087,9992,-0.333618,0.015381,0.928833,512
73851096,10009,-0.334229,0.015137,0.929321,512
73861107,10011,-0.333740,0.013306,0.928833,513
73871086,9979,-0.336548,0.012451,0.929810,511
73881090,10004,-0.336548,0.013062,0.929687,510
73891114,10024,-0.338989,0.012939,0.928589,512
73901105,9991,-0.338135,0.013550,0.928833,512
73911134,10029,-0.337036,0.014160,0.929321,512
73921108,9974,-0.337036,0.013794,0.928223,510
73931100,9992,-0.333862,0.013062,0.927246,510
73941112,10012,-0.333496,0.011108,0.925537,510
73951097,9985,-0.333252,0.011353,0.925537,509
73961092,9995,-0.332520,0.012207,0.927002,509
73971102,10010,-0.333008,0.012695,0.929687,508
73981116,10014,-0.334473,0.011597,0.927734,511
73991097,9981,-0.335938,0.013184,0.929077,511
74001093,9996,-0.335693,0.013794,0.929199,510
74011109,10016,-0.336304,0.015503,0.930908,512
74021105,9996,-0.336060,0.016479,0.932373,510
74031093,9988,-0.336426,0.015625,0.930420,509
74041111,10018,-0.335449,0.013184,0.927368,505
74051113,10002,-0.334839,0.012939,0.927002,510
74061087,9974,-0.335205,0.013916,0.927490,509
74071109,10022,-0.334839,0.015747,0.927856,506
74081110,10001,-0.334717,0.014404,0.928223,496
74091089,9979,-0.335938,0.013428,0.927856,508
74101114,10025,-0.335205,0.012695,0.927979,507
74111087,9973,-0.334595,0.014282,0.928955,509
74121111,10024,-0.333130,0.015015,0.930664,510
74131088,9977,-0.332275,0.015259,0.932495,509
74141102,10014,-0.331299,0.015259,0.930664,509
74151097,9995,-0.334595,0.014893,0.926025,510
74161089,9992,-0.335693,0.015015,0.926392,506
74171103,10014,-0.335327,0.014893,0.929687,509
74181088,9985,-0.334595,0.012695,0.933228,505
74191105,10017,-0.333984,0.010498,0.934326,510
74201106,10001,-0.340698,0.003906,0.922485,510
74211114,10008,-0.340942,0.004639,0.927368,511
74221093,9979,-0.334839,0.006592,0.931763,510
74231097,10004,-0.333740,0.010254,0.934448,512
74241097,10000,-0.331787,0.010498,0.934082,511
74251102,10005,-0.327148,0.004639,0.910645,512
74261087,9985,-0.346558,0.008545,0.919312,509
74271105,10018,-0.336060,0.004028,0.927490,507
74281097,9992,-0.335083,0.007080,0.935303,512
74291108,10011,-0.335938,0.016479,0.937256,514
74301085,9977,-0.334473,0.018433,0.923828,515
74311105,10020,-0.335938,0.023315,0.922607,510
74321106,10001,-0.333374,0.023926,0.927734,516
74331107,10001,-0.333740,0.025269,0.929810,511
74341124,10017,-0.334839,0.025513,0.930054,501
74351115,9991,-0.334473,0.024292,0.929077,515
74361113,9998,-0.337646,0.019775,0.927002,512
74371097,9984,-0.337646,0.018066,0.927124,515
74381090,9993,-0.336182,0.012939,0.929443,512
74391092,10002,-0.335449,0.010864,0.928955,507
74401097,10005,-0.335083,0.007080,0.926514,514
74411122,10025,-0.335815,0.005615,0.922852,512
74421086,9964,-0.333496,0.004639,0.925659,507
74431087,10001,-0.334839,0.003784,0.928345,512
74441085,9998,-0.336060,0.005981,0.928711,513
74451100,10015,-0.336426,0.008301,0.928711,513
74461093,9993,-0.337769,0.010376,0.927490,511
74471095,10002,-0.337524,0.011963,0.928467,512
74481114,10019,-0.336182,0.015259,0.928955,513
74491109,9995,-0.336060,0.016357,0.928589,512
74501092,9983,-0.335205,0.015381,0.928833,508
74511088,9996,-0.336182,0.014893,0.927856,511
74521114,10026,-0.337524,0.014893,0.926147,513
74531099,9985,-0.336182,0.013428,0.928345,513
74541108,10009,-0.336670,0.012451,0.929199,513
74551113,10005,-0.337158,0.010132,0.927856,513
74561089,9976,-0.337646,0.009644,0.926636,511
74571085,9996,-0.335571,0.010376,0.927856,512
74581101,10016,-0.334717,0.009766,0.930054,511
74591105,10004,-0.336548,0.009399,0.928833,512
74601104,9999,-0.338135,0.010864,0.926270,510
74611114,10010,-0.338257,0.013184,0.924927,512
74621094,9980,-0.337036,0.014404,0.929199,513
74631097,10003,-0.335205,0.015137,0.932129,510
74641102,10005,-0.336182,0.014160,0.932617,513
74651101,9999,-0.337524,0.014038,0.931885,507
74661088,9987,-0.336792,0.014771,0.930420,509
74671101,10013,-0.336182,0.013916,0.931152,511
74681107,10006,-0.334839,0.015015,0.931274,513
74691088,9981,-0.335327,0.015015,0.929199,510
74701090,10002,-0.335327,0.013306,0.926636,512
74711101,10011,-0.334961,0.011230,0.924316,512
74721090,9989,-0.336670,0.010498,0.926025,509
74731086,9996,-0.337524,0.010254,0.926758,511
74741093,10007,-0.339478,0.008423,0.924561,506
74751098,10005,-0.339966,0.007324,0.924438,512
74761108,10010,-0.338501,0.009033,0.927002,508
74771106,9998,-0.336060,0.010986,0.928467,511
74781102,9996,-0.335693,0.012085,0.930664,512
74791118,10016,-0.335449,0.011719,0.930420,507
74801086,9968,-0.335449,0.012817,0.927734,511
74811108,10022,-0.336914,0.015015,0.927368,512
74821099,9991,-0.337891,0.016968,0.927490,510
74831113,10014,-0.337036,0.016479,0.929443,512
74841109,9996,-0.340088,0.013306,0.927490,510
74851109,10000,-0.341919,0.009399,0.924194,507
74861089,9980,-0.341553,0.008301,0.923828,508
74871090,10001,-0.340576,0.006714,0.924194,511
74881112,10022,-0.337891,0.006958,0.926147,512
74891106,9994,-0.336792,0.006104,0.927490,511
74901104,9998,-0.337280,0.005493,0.927734,512
74911103,9999,-0.337646,0.007324,0.927612,507
74921109,10006,-0.338379,0.008545,0.928589,508
74931113,10004,-0.337158,0.009766,0.929443,513
74941108,9995,-0.337402,0.011963,0.929199,515
74951112,10004,-0.337280,0.013672,0.930054,515
74966766,15654,-0.338257,0.015503,0.928223,513
74972317,5551,-0.339233,0.016724,0.928711,513
74981094,8777,-0.340820,0.017456,0.927246,513
74991094,10000,-0.341919,0.016357,0.926270,516
75001088,9994,-0.339722,0.014526,0.926270,514
75011092,10004,-0.337524,0.010620,0.930298,514
75021091,9999,-0.337402,0.008789,0.930786,515
75031089,9998,-0.338623,0.006958,0.927124,512
75041115,10026,-0.339233,0.004883,0.926880,516
75051096,9981,-0.339844,0.004395,0.927246,511
75061092,9996,-0.341431,0.005249,0.928711,514
75071111,10019,-0.339600,0.005859,0.926636,516
75081096,9985,-0.339478,0.007202,0.924927,515
75091085,9989,-0.341064,0.008423,0.922241,512
75101094,10009,-0.337402,0.009033,0.920898,508
75111111,10017,-0.338989,0.010254,0.921631,509
75121105,9994,-0.337769,0.013428,0.923340,513
75131098,9993,-0.339355,0.011475,0.922974,507
75141103,10005,-0.340820,0.009644,0.924194,512
75151107,10004,-0.339966,0.009644,0.924927,512
75161110,10003,-0.339722,0.008789,0.926636,514
75171092,9982,-0.338501,0.008667,0.929321,515
75181096,10004,-0.335449,0.008423,0.930664,508
75191091,9995,-0.336304,0.007935,0.930298,512
75201089,9998,-0.336792,0.008179,0.930054,512
75211101,10012,-0.337646,0.007690,0.930176,506
75221094,9993,-0.339722,0.007446,0.931274,512
75231113,10019,-0.342041,0.008057,0.928467,512
75241085,9972,-0.340576,0.007813,0.926880,513
75251087,10002,-0.338501,0.008789,0.926025,514
75261090,10003,-0.337280,0.009888,0.926147,512
75271107,10017,-0.335693,0.009644,0.926636,512
75281119,10012,-0.335327,0.012329,0.930908,509
75291101,9982,-0.338867,0.012817,0.931519,509
75301086,9985,-0.340332,0.013184,0.932129,512
75311094,10008,-0.340454,0.012085,0.931396,510
75321088,9994,-0.341064,0.012329,0.929932,512
75331099,10011,-0.337280,0.011230,0.926270,513
75341111,10012,-0.336670,0.008545,0.925049,511
75351090,9979,-0.335815,0.006714,0.922729,509
75361139,10049,-0.335205,0.004395,0.924561,514
75371100,9961,-0.337280,0.004028,0.926025,508
75381108,10008,-0.340454,0.002808,0.926758,505
75391107,9999,-0.341431,0.003662,0.929565,509
75401096,9989,-0.341187,0.004761,0.928711,511
75411103,10007,-0.338623,0.006348,0.927612,512
75421092,9989,-0.337280,0.008911,0.928223,504
75431097,10005,-0.336792,0.013306,0.927856,512
75441111,10014,-0.336670,0.010376,0.927612,511
75451109,9998,-0.339233,0.008179,0.928711,512
75461112,10003,-0.339478,0.007568,0.929443,511
75471088,9976,-0.341675,0.008423,0.929687,513
75481089,10001,-0.343140,0.009521,0.927979,511
75491096,10007,-0.341675,0.010132,0.926880,509
75501120,10024,-0.337036,0.011597,0.927246,511
75511088,9968,-0.335571,0.013794,0.926514,506
75521086,9998,-0.337402,0.015259,0.926758,509
75531109,10023,-0.338379,0.013550,0.927246,504
75541091,9982,-0.340332,0.010498,0.927124,511
75551085,9994,-0.340698,0.004883,0.927490,510
75561111,10026,-0.341187,0.004150,0.927490,509
75571118,10007,-0.343140,0.005615,0.926880,509
75581085,9967,-0.341064,0.006592,0.928589,507
75591102,10017,-0.341187,0.006470,0.925415,504
75601114,10012,-0.337036,0.006592,0.927002,511
75611090,9976,-0.339233,0.009766,0.927124,512
75621107,10017,-0.339233,0.009277,0.926880,513
75631108,10001,-0.341187,0.008301,0.926025,512
75641141,10033,-0.340942,0.007568,0.924683,510
75651101,9960,-0.339600,0.008057,0.927002,513
75661099,9998,-0.342285,0.006348,0.926758,513
75671109,10010,-0.342285,0.007202,0.925171,516
75681112,10003,-0.348022,0.010376,0.923218,513
75691104,9992,-0.343140,0.009155,0.926880,513
75701090,9986,-0.341309,0.008057,0.925659,515
75711131,10041,-0.339111,0.006104,0.926025,510
75721108,9977,-0.340332,0.003784,0.925537,514
75731099,9991,-0.340210,0.002563,0.926025,511
75741112,10013,-0.338623,-0.000610,0.926758,516
75751097,9985,-0.340332,-0.000488,0.929810,515
75761088,9991,-0.344482,0.002686,0.927612,514
75771096,10008,-0.343506,0.005127,0.927368,511
75781110,10014,-0.344482,0.005615,0.927612,513
75791097,9987,-0.343750,0.005493,0.926636,513
75801093,9996,-0.342041,0.007202,0.926758,508
75811093,10000,-0.343140,0.007690,0.926147,511
75821108,10015,-0.344849,0.008301,0.922974,511
75831103,9995,-0.344238,0.007202,0.924316,512
75841113,10010,-0.343750,0.005737,0.926025,512
75851091,9978,-0.344116,0.007446,0.926392,512
75861085,9994,-0.342773,0.006348,0.924927,512
75871814,10729,-0.341919,0.006470,0.926758,512
75881112,9298,-0.341553,0.006592,0.927246,513
75891109,9997,-0.341431,0.004761,0.926636,511
75901114,10005,-0.341675,0.005249,0.927368,510
75911114,10000,-0.343628,0.005493,0.929321,513
75921110,9996,-0.343384,0.002197,0.933105,512
75931136,10026,-0.344482,0.002319,0.934082,511
75941087,9951,-0.347046,0.003662,0.932983,512
75951102,10015,-0.348877,0.002808,0.930786,504
75961105,10003,-0.347046,0.001099,0.928955,512
75971085,9980,-0.346802,0.001831,0.925903,508
75981109,10024,-0.344116,0.004517,0.921265,509
75991085,9976,-0.343628,0.005615,0.918823,511
76001101,10016,-0.343872,0.006958,0.918335,511
76011113,10012,-0.343140,0.005371,0.916138,514
76021111,9998,-0.343628,0.004639,0.917725,513
76031088,9977,-0.343872,0.003052,0.919312,512
76041088,10000,-0.345947,0.002441,0.919800,507
76051099,10011,-0.345581,0.001221,0.920898,508
76061092,9993,-0.347778,0.002441,0.921875,513
76071123,10031,-0.348633,0.002075,0.923706,505
76081108,9985,-0.349121,0.000366,0.925171,512
76091110,10002,-0.349976,-0.002197,0.928589,511
76101104,9994,-0.350220,-0.003174,0.927979,508
76111098,9994,-0.350586,-0.005127,0.927246,512
76121090,9992,-0.350098,-0.007080,0.927002,510
76131098,10008,-0.348999,-0.006592,0.924438,508
76141087,9989,-0.348877,-0.003784,0.921387,506
76151100,10013,-0.347778,-0.003296,0.920410,512
76161088,9988,-0.347168,-0.003174,0.919800,507
76171085,9997,-0.346313,-0.000977,0.921875,511
76181096,10011,-0.348145,-0.000366,0.920410,509
76191104,10008,-0.347778,0.000000,0.921997,511
76201100,9996,-0.347534,0.001953,0.922729,514
76211093,9993,-0.348022,0.003540,0.923340,507
76221098,10005,-0.348267,0.004761,0.921265,505
76231106,10008,-0.346802,0.004639,0.922119,505
76241087,9981,-0.348389,0.001099,0.923828,512
76251087,10000,-0.351929,-0.001343,0.924438,503
76261092,10005,-0.350830,-0.001099,0.923218,511
76271101,10009,-0.350952,-0.004639,0.923706,510
76281101,10000,-0.348633,-0.005493,0.925659,509
76292558,11457,-0.346924,0.002563,0.926758,510
76301102,8544,0.000000,0.000000,0.000000,510
76311088,9986,-0.347046,0.004639,0.927246,511
76321110,10022,-0.344971,0.007690,0.928711,507
76331327,10217,-0.343994,0.009033,0.930542,511
76341091,9764,-0.344238,0.012695,0.931030,507
76351106,10015,-0.345337,0.012207,0.929565,513
76361091,9985,-0.344116,0.011719,0.928711,513
76371103,10012,-0.347290,0.011353,0.926270,507
76381108,10005,-0.348999,0.011353,0.924316,513
76391109,10001,-0.349243,0.008545,0.922241,516
76401085,9976,-0.347900,0.005249,0.920898,512
76411100,10015,-0.348999,-0.000854,0.919922,513
76421111,10011,-0.347656,-0.001221,0.922485,513
76431090,9979,-0.346558,-0.001221,0.923096,501
76441089,9999,-0.345947,-0.002319,0.923828,511
76451085,9996,-0.346680,-0.001953,0.924316,512
76461111,10026,-0.348389,0.000122,0.925293,509
76471114,10003,-0.347900,0.002808,0.923828,507
76481113,9999,-0.347900,0.005859,0.922119,506
76491465,10352,-0.347900,0.008911,0.921143,511
76501089,9624,-0.347534,0.009766,0.921021,509
76511086,9997,-0.347534,0.009521,0.921265,513
76521089,10003,-0.349365,0.004639,0.922729,511
76531087,9998,-0.350342,0.002441,0.922485,512
76541104,10017,-0.350098,0.000977,0.922485,512
76551109,10005,-0.347656,0.000610,0.924438,512
76561114,10005,-0.347412,0.000610,0.924072,514
76571087,9973,-0.345581,0.001953,0.925293,506
76581098,10011,-0.347290,0.001465,0.926758,511
76591088,9990,-0.347412,0.000854,0.926392,512
76601099,10011,-0.347534,0.002319,0.928589,510
76611093,9994,-0.347778,0.003540,0.927246,512
76621091,9998,-0.346558,0.005615,0.929443,510
76631085,9994,-0.344849,0.005615,0.927734,512
76641093,10008,-0.346313,0.005737,0.927979,512
76651094,10001,-0.344116,0.007080,0.927368,511
76661094,10000,-0.344971,0.009155,0.927002,508
76671110,10016,-0.345825,0.008911,0.927490,510
76681091,9981,-0.347656,0.004639,0.926636,508
76691127,10036,-0.348267,0.005371,0.926636,513
76701114,9987,-0.347656,0.005005,0.926392,511
76711102,9988,-0.346069,0.003906,0.925659,509
76721106,10004,-0.345215,0.002441,0.925659,506
76731106,10000,-0.345337,0.002686,0.925171,505
76741111,10005,-0.349243,0.002319,0.924194,509
76751089,9978,-0.348877,0.001831,0.922241,512
76761091,10002,-0.349976,0.000488,0.921875,504
76771112,10021,-0.350220,-0.000366,0.920166,504
76781111,9999,-0.349121,0.001343,0.920532,511
76791112,10001,-0.350342,0.001587,0.921021,508
76801108,9996,-0.349976,0.000000,0.920776,510
76811101,9993,-0.351074,-0.000366,0.922119,509
76821113,10012,-0.351685,-0.000488,0.925049,509
76831124,10011,-0.349854,-0.000122,0.925293,510
76841097,9973,-0.348145,0.003052,0.922607,510
76851110,10013,-0.347534,0.003052,0.921753,516
76861093,9983,-0.345703,0.005127,0.921753,505
76871097,10004,-0.345337,0.007813,0.922241,509
76881089,9992,-0.345459,0.010864,0.924194,506
76891096,10007,-0.348022,0.011597,0.926514,504
76901086,9990,-0.349731,0.006470,0.927246,510
76911087,10001,-0.352051,0.003174,0.930054,506
76921107,10020,-0.352661,0.001953,0.930298,509
76931092,9985,-0.352173,0.000000,0.930176,508
76941085,9993,-0.351563,-0.000244,0.928955,507
76951087,10002,-0.348145,-0.001587,0.926147,503
76961092,10005,-0.347900,-0.001709,0.924438,511
76971106,10014,-0.347656,-0.001221,0.922729,510
76981093,9987,-0.348633,0.000366,0.921387,504
76991108,10015,-0.350220,0.002441,0.921387,505
77001102,9994,-0.348877,0.005615,0.921021,513
77011094,9992,-0.348755,0.005737,0.919922,515
77021106,10012,-0.348999,0.006226,0.921143,507
77031090,9984,-0.349487,0.006348,0.922119,506
77041136,10046,-0.350098,0.004272,0.923828,515
77051101,9965,-0.352051,0.003052,0.923340,507
77061088,9987,-0.352783,-0.000488,0.923950,514
77071100,10012,-0.352905,-0.001831,0.924927,513
77081101,10001,-0.351685,-0.003296,0.926270,507
77091092,9991,-0.352661,-0.003906,0.923340,512
77101086,9994,-0.354370,-0.002563,0.923218,513
77111097,10011,-0.354980,-0.003662,0.919800,512
77121092,9995,-0.353882,-0.002319,0.919800,508
77131101,10009,-0.350586,-0.000610,0.921875,508
77141108,10007,-0.351074,-0.000122,0.921387,511
77151086,9978,-0.350952,0.001587,0.922485,512
77161089,10003,-0.350098,0.004028,0.923828,513
77171087,9998,-0.351196,0.005127,0.924561,511
77181109,10022,-0.352661,0.004883,0.924561,509
77191112,10003,-0.353271,0.002808,0.923340,513
77201099,9987,-0.352905,0.001953,0.922852,505
77211112,10013,-0.352051,0.001221,0.922119,513
77221101,9989,-0.351807,-0.000488,0.921753,506
77231110,10009,-0.351074,-0.000488,0.920166,510
77241092,9982,-0.351074,-0.002441,0.919922,508
77251107,10015,-0.352417,-0.001221,0.919556,509
77261098,9991,-0.351807,-0.001221,0.922241,510
77271109,10011,-0.353516,-0.002075,0.921021,510
77281098,9989,-0.354614,-0.001709,0.921387,510
77291091,9993,-0.353027,-0.000610,0.920654,510
77301087,9996,-0.352417,-0.000732,0.922974,510
77311098,10011,-0.351563,-0.000488,0.924194,505
77321096,9998,-0.350830,-0.000488,0.925049,509
77331136,10040,-0.351685,0.000854,0.925903,507
77341093,9957,-0.351807,0.000488,0.923950,512
77351111,10018,-0.352051,0.000244,0.923462,511
77361107,9996,-0.352051,0.001465,0.923462,510
77371100,9993,-0.353760,0.001343,0.923828,511
77381115,10015,-0.353394,-0.000488,0.921997,504
77391107,9992,-0.351196,-0.000610,0.921997,511
77401100,9993,-0.351440,-0.000610,0.922119,510
77411098,9998,-0.349731,-0.001099,0.922729,509
77421087,9989,-0.350342,-0.000732,0.924805,509
77431109,10022,-0.353027,0.000610,0.926147,509
77441111,10002,-0.354370,0.000854,0.924194,508
77451085,9974,-0.355103,0.000488,0.925537,507
77461104,10019,-0.354370,0.000000,0.924805,505
77471085,9981,-0.353394,-0.000244,0.924561,510
77481086,10001,-0.351440,-0.000366,0.920532,511
77491112,10026,-0.350464,-0.000854,0.918701,508
77501110,9998,-0.349976,-0.000122,0.917603,509
77511110,10000,-0.350708,0.000977,0.918701,511
77521089,9979,-0.349976,0.002197,0.919434,491
77531105,10016,-0.351440,0.000488,0.921753,493
77541100,9995,-0.353638,-0.000488,0.924316,510
77551125,10025,-0.354370,-0.000366,0.925415,509
77561093,9968,-0.353149,-0.000488,0.926636,504
77571115,10022,-0.352417,-0.000732,0.927124,512
77581092,9977,-0.352783,-0.001465,0.925537,512
77591094,10002,-0.352295,-0.000977,0.922729,507
77601107,10013,-0.351685,-0.000610,0.921387,510
77611106,9999,-0.351929,-0.000732,0.919556,510
77621086,9980,-0.351563,-0.001221,0.921143,505
77631117,10031,-0.351318,-0.000488,0.922241,509
77641102,9985,-0.350708,-0.000244,0.922241,512
77651098,9996,-0.351685,-0.000244,0.923584,506
77661093,9995,-0.352417,0.000732,0.925659,512
77671105,10012,-0.353271,0.000366,0.926636,513
77681095,9990,-0.352905,0.000610,0.926392,508
77691106,10011,-0.352905,0.000977,0.924194,514
77701112,10006,-0.352661,0.001831,0.922485,512
77711111,9999,-0.351440,0.001465,0.921631,513
77721110,9999,-0.349731,0.000122,0.922729,514
77731099,9989,-0.349609,0.000122,0.922852,510
77741114,10015,-0.351929,-0.000488,0.923096,513
77751111,9997,-0.351929,-0.000122,0.925049,512
77761110,9999,-0.352539,0.000488,0.924683,513
77771085,9975,-0.351318,-0.000244,0.924683,513
77781099,10014,-0.351318,0.000732,0.925537,514
77791101,10002,-0.352539,0.001953,0.926147,511
77801090,9989,-0.351807,0.002563,0.922607,511
77811101,10011,-0.351685,0.002075,0.921997,512
77821107,10006,-0.351929,0.000854,0.922485,506
77831104,9997,-0.352417,-0.000244,0.922119,511
77841115,10011,-0.353149,-0.000610,0.922729,511
77851114,9999,-0.352295,-0.000732,0.922485,509
77861100,9986,-0.351318,-0.001343,0.923584,512
77871108,10008,-0.352783,-0.001709,0.922974,510
77881105,9997,-0.352905,-0.001587,0.923462,511
77891110,10005,-0.352783,-0.001099,0.923218,510
77901113,10003,-0.354980,-0.000610,0.922729,512
77911100,9987,-0.352661,-0.000610,0.922729,509
77921106,10006,-0.352783,-0.000854,0.922241,512
77931089,9983,-0.351807,-0.000610,0.922485,512
77941115,10026,-0.351318,-0.000488,0.921997,515
77951111,9996,-0.352417,-0.000610,0.921387,512
77961106,9995,-0.353271,-0.000732,0.920898,507
77971092,9986,-0.354370,-0.000488,0.922485,512
77981101,10009,-0.352295,-0.000854,0.921997,513
77991110,10009,-0.353149,-0.000977,0.922974,510
78001114,10004,-0.351685,-0.001587,0.922852,506
78011107,9993,-0.352173,-0.000732,0.922974,510
78021085,9978,-0.352661,-0.000244,0.920654,512
78031091,10006,-0.353149,-0.000366,0.921265,507
78041096,10005,-0.353882,0.000244,0.921753,503
78051106,10010,-0.352661,0.000854,0.922729,505
78061097,9991,-0.352661,-0.000122,0.921753,509
78071114,10017,-0.354126,-0.000977,0.922485,512
78081099,9985,-0.351563,-0.001709,0.923584,511
78091107,10008,-0.352295,-0.001587,0.923828,512
78101113,10006,-0.352783,-0.002075,0.925537,508
78111087,9974,-0.353271,-0.001221,0.924072,512
78121095,10008,-0.354980,0.000244,0.926025,507
78131111,10016,-0.353638,-0.000122,0.924438,509
78141114,10003,-0.353149,0.000000,0.925171,512
78151087,9973,-0.354248,0.000610,0.924072,511
78161107,10020,-0.354004,0.000244,0.921143,512
78171113,10006,-0.354492,-0.000854,0.919922,513
78181107,9994,-0.353638,-0.000732,0.920044,511
78191106,9999,-0.351440,-0.000610,0.918701,511
78201105,9999,-0.351196,-0.000366,0.918823,505
78211095,9990,-0.352661,-0.000732,0.921997,509
78221087,9992,-0.353271,-0.000488,0.924072,505
78231095,10008,-0.354126,-0.000244,0.924927,510
78241114,10019,-0.355347,-0.001831,0.926025,509
78251114,10000,-0.355713,-0.000610,0.924438,504
78261093,9979,-0.354614,-0.000732,0.925781,504
78271104,10011,-0.353394,-0.001099,0.923340,510
78281112,10008,-0.353027,-0.000488,0.923462,510
78291087,9975,-0.352783,-0.000488,0.920898,511
78301106,10019,-0.352173,-0.000488,0.920288,512
78311114,10008,-0.352783,-0.000122,0.921631,514
78321104,9990,-0.352905,0.000244,0.922363,513
78331113,10009,-0.352905,0.000244,0.922485,510
78341096,9983,-0.354004,-0.000366,0.922852,514
78351090,9994,-0.354736,-0.000366,0.922119,513
78361090,10000,-0.354492,-0.000366,0.923340,511
78371106,10016,-0.353760,-0.000244,0.922607,515
78381101,9995,-0.354858,-0.000122,0.923218,515
78391103,10002,-0.354248,-0.000244,0.924316,511
78401113,10010,-0.354126,-0.000366,0.922363,509
78411092,9979,-0.352539,-0.000488,0.922241,508
78421098,10006,-0.353271,-0.001465,0.922974,506
78431107,10009,-0.353516,-0.001343,0.923828,514
78441085,9978,-0.356079,-0.001343,0.924316,514
78451094,10009,-0.358154,-0.001099,0.921997,508
78461087,9993,-0.356812,-0.000854,0.920532,507
78471114,10027,-0.355835,-0.001221,0.920044,512
78481110,9996,-0.354614,-0.000977,0.920410,513
78491097,9987,-0.353394,-0.000732,0.920166,514
78501114,10017,-0.353516,-0.000488,0.919189,512
78511108,9994,-0.352905,-0.000732,0.921631,512
78521100,9992,-0.353027,-0.000854,0.922974,511
78531110,10010,-0.353271,-0.000977,0.925659,506
78541111,10001,-0.353760,-0.000977,0.926392,511
78551091,9980,-0.353882,-0.001221,0.924683,505
78561089,9998,-0.354858,0.000366,0.923584,513
78571112,10023,-0.355591,0.001099,0.923462,508
78581124,10012,-0.355469,0.001221,0.921753,514
78591109,9985,-0.354614,0.002075,0.920288,513
78601090,9981,-0.354980,0.001221,0.919189,513
78611090,10000,-0.353638,0.001831,0.919312,513
78621095,10005,-0.355591,-0.001709,0.918945,516
78631112,10017,-0.354614,-0.004028,0.919800,513
78641108,9996,-0.355103,-0.006348,0.919067,509
78651120,10012,-0.354370,-0.006714,0.918945,512
78661096,9976,-0.354370,-0.006348,0.920044,510
78671098,10002,-0.354492,-0.003174,0.921997,512
78681106,10008,-0.355103,-0.002686,0.922119,512
78691106,10000,-0.354492,-0.001587,0.922852,510
78701102,9996,-0.353516,-0.001221,0.923218,513
78711087,9985,-0.353882,-0.000366,0.923462,513
78722390,11303,-0.354004,0.002319,0.923218,513
78731132,8742,-0.355469,0.003052,0.924683,512
78741112,9980,-0.353149,0.003174,0.923828,510
78751108,9996,-0.354004,0.003418,0.923706,514
78761098,9990,-0.352783,0.003174,0.922241,510
78771106,10008,-0.352539,0.001831,0.923828,511
78781101,9995,-0.352661,0.001343,0.921875,510
78791095,9994,-0.352539,0.000854,0.921387,513
78801108,10013,-0.352417,-0.000732,0.922119,507
78811129,10021,-0.353638,-0.000854,0.922363,512
78821161,10032,-0.351440,-0.001953,0.921143,512
78831109,9948,-0.354614,-0.000854,0.922974,509
78841096,9987,-0.351563,-0.000610,0.923218,506
78851089,9993,-0.352173,-0.000610,0.921387,512
78861095,10006,-0.352417,-0.000610,0.923096,500
78871090,9995,-0.353027,-0.000488,0.924927,512
78881096,10006,-0.353149,0.000488,0.925049,509
78891099,10003,-0.353638,0.004395,0.924927,507
78901095,9996,-0.353027,0.004639,0.924561,511
78911108,10013,-0.353516,0.004395,0.923828,509
78921098,9990,-0.352905,0.002686,0.922119,509
78931115,10017,-0.353271,0.000122,0.920532,511
78941090,9975,-0.351807,-0.000732,0.921265,519
78951087,9997,-0.351074,-0.001221,0.921997,510
78961099,10012,-0.351563,-0.000366,0.921631,510
78971093,9994,-0.351807,-0.000244,0.922607,511
78981093,10000,-0.351318,-0.000366,0.922729,508
78991111,10018,-0.350464,-0.000610,0.925415,511
79001109,9998,-0.350098,-0.000488,0.926147,508
79011103,9994,-0.350342,0.001343,0.926636,504
79021085,9982,-0.350586,0.000610,0.925659,509
79031115,10030,-0.349609,0.001953,0.925415,511
79041099,9984,-0.350098,0.001709,0.926025,511
79051088,9989,-0.352173,0.005859,0.925049,512
79061119,10031,-0.352661,0.005859,0.924561,509
79071104,9985,-0.353149,0.005005,0.923828,511
79081114,10010,-0.354248,0.003418,0.922485,514
79091107,9993,-0.353394,0.001709,0.921997,509
79101108,10001,-0.352051,-0.000366,0.921509,515
79111089,9981,-0.350098,-0.002563,0.922363,514
79121108,10019,-0.349976,-0.002075,0.922485,516
79131113,10005,-0.350952,-0.000732,0.922607,510
79141093,9980,-0.350830,-0.000610,0.923340,512
79151088,9995,-0.352051,-0.000366,0.923218,513
79161099,10011,-0.351807,0.000977,0.924194,514
79171089,9990,-0.352295,0.002319,0.922607,514
79181090,10001,-0.352783,0.002197,0.921509,511
79191106,10016,-0.352783,0.004272,0.920776,514
79201109,10003,-0.352051,0.004761,0.921509,508
79211098,9989,-0.352051,0.006104,0.923706,512
79221114,10016,-0.350952,0.004150,0.924316,512
79231128,10014,-0.350098,0.000244,0.924561,514
79241091,9963,-0.351563,-0.000854,0.924805,508
79251099,10008,-0.351318,-0.000366,0.926025,516
79261106,10007,-0.352539,0.000000,0.926025,508
79271108,10002,-0.354004,-0.000244,0.924316,512
79281093,9985,-0.354004,-0.000488,0.922729,515
79291106,10013,-0.353516,-0.000122,0.921753,514
79301093,9987,-0.354492,-0.000610,0.921265,511
79311087,9994,-0.352783,-0.000488,0.920410,513
79321093,10006,-0.351563,0.002930,0.922607,514
79331090,9997,-0.352539,0.004395,0.922607,507
79341085,9995,-0.352661,0.005859,0.922119,513
79351090,10005,-0.350830,0.005737,0.925659,513
79361095,10005,-0.351074,0.006836,0.925293,512
79371094,9999,-0.350830,0.006226,0.922852,512
79381128,10034,-0.350952,0.006348,0.922729,512
79391099,9971,-0.350708,0.005005,0.922485,513
79401094,9995,-0.351685,0.005371,0.921021,513
79411111,10017,-0.352661,0.003540,0.919678,509
79421112,10001,-0.352783,0.003906,0.919556,512
79431115,10003,-0.353027,-0.000488,0.920288,512
79441099,9984,-0.352783,-0.002319,0.921753,514
79451104,10005,-0.354858,-0.003540,0.921021,512
79461097,9993,-0.353638,-0.004272,0.921265,513
79471100,10003,-0.353516,-0.001953,0.922852,509
79481088,9988,-0.351318,-0.000488,0.925415,508
79491113,10025,-0.350708,0.001587,0.926758,507
79501096,9983,-0.350220,0.004517,0.926880,510
79511090,9994,-0.350952,0.004883,0.926514,516
79521098,10008,-0.351440,0.006592,0.925415,508
79531087,9989,-0.352295,0.008423,0.924683,513
79541085,9998,-0.353394,0.013428,0.921387,512
79551097,10012,-0.352661,0.012695,0.922363,507
79561101,10004,-0.351685,0.010742,0.920654,510
79571085,9984,-0.349976,0.009033,0.921631,510
79581111,10026,-0.348389,0.006104,0.922241,512
79591107,9996,-0.351318,0.001465,0.923096,511
79601111,10004,-0.351074,-0.000732,0.923218,511
79611085,9974,-0.351074,-0.002441,0.925293,510
79621100,10015,-0.351074,-0.003052,0.924561,511
79631105,10005,-0.350830,-0.002686,0.924683,511
79641096,9991,-0.351074,-0.001099,0.925903,511
79651108,10012,-0.351807,-0.000854,0.925293,511
79661095,9987,-0.352173,-0.000366,0.926880,512
79671097,10002,-0.353760,0.001099,0.926636,513
79681103,10006,-0.355713,0.004028,0.925293,510
79691086,9983,-0.354736,0.005493,0.924561,507
79701125,10039,-0.355225,0.006958,0.921143,513
79711092,9967,-0.352905,0.008423,0.917847,512
79721109,10017,-0.351807,0.011841,0.917603,511
79731096,9987,-0.351929,0.013428,0.916992,511
79742079,10983,-0.353027,0.014282,0.916626,513
79751092,9013,-0.352295,0.007690,0.915649,505
79761109,10017,-0.353516,0.005981,0.921265,510
79771099,9990,-0.351196,0.003662,0.923096,509
79781131,10032,-0.350708,-0.001099,0.926025,513
79791111,9980,-0.347778,-0.002197,0.929565,511
79801110,9999,-0.348267,-0.002808,0.928589,510
79811085,9975,-0.351074,-0.001587,0.930054,512
79821102,10017,-0.353149,0.001953,0.930054,512
79831091,9989,-0.353882,0.005493,0.927246,514
79842682,11591,-0.354614,0.008423,0.926514,511
79851099,8417,-0.355591,0.009644,0.926270,508
79861128,10029,-0.358765,0.011353,0.926270,515
79871115,9987,-0.358521,0.010864,0.927979,514
79881087,9972,-0.357178,0.009644,0.927490,517
79891098,10011,-0.355347,0.005859,0.927124,516
79901103,10005,-0.353394,0.003784,0.926392,518
79911101,9998,-0.353516,0.001953,0.924561,510
79921092,9991,-0.351074,0.002441,0.918945,514
79931089,9997,-0.351074,-0.000488,0.917480,514
79941091,10002,-0.350220,-0.000732,0.915405,516
79951115,10024,-0.351685,-0.000854,0.914062,514
79961088,9973,-0.353271,-0.000732,0.915405,515
79971103,10015,-0.355225,0.000488,0.918091,515
79981095,9992,-0.353882,-0.000366,0.918091,514
79991099,10004,-0.356934,-0.000122,0.918579,512
80001099,10000,-0.359375,0.003418,0.919434,512
80011093,9994,-0.356934,0.004639,0.921265,516
80021086,9993,-0.357788,0.006226,0.923218,512
80031120,10034,-0.355957,0.005859,0.925537,517
80041105,9985,-0.356689,0.004517,0.924316,518
80051105,10000,-0.359253,0.004150,0.925537,511
80061100,9995,-0.357544,0.004761,0.926025,512
80071090,9990,-0.358643,0.004517,0.924438,511
80081095,10005,-0.358521,0.004639,0.924072,514
80091091,9996,-0.356934,0.004395,0.923462,515
80101112,10021,-0.357300,0.003662,0.923218,510
80111114,10002,-0.358887,0.002808,0.922485,515
80121093,9979,-0.360229,0.000854,0.921143,508
80131093,10000,-0.360596,-0.000732,0.921143,516
80141094,10001,-0.360474,-0.000610,0.918701,516
80154022,12928,-0.358643,-0.000122,0.917358,513
80162118,8096,-0.357666,-0.000366,0.916260,513
80171110,8992,-0.356201,0.000366,0.916260,511
80181085,9975,-0.354126,0.002197,0.917969,513
80191139,10054,-0.358643,-0.000122,0.917114,511
80201107,9968,-0.360352,-0.000488,0.917114,512
80211100,9993,-0.363525,-0.000488,0.914429,510
80221094,9994,-0.367065,-0.000610,0.914917,513
80231098,10004,-0.366455,-0.000366,0.913940,510
80241088,9990,-0.363281,-0.000732,0.913940,517
80251098,10010,-0.360229,-0.000610,0.913696,514
80261110,10012,-0.359375,-0.000488,0.913330,511
80271087,9977,-0.358398,-0.001343,0.917114,513
80281100,10013,-0.358887,-0.001343,0.918945,515
80291093,9993,-0.361084,-0.000854,0.925415,509
80301110,10017,-0.359863,-0.002319,0.926880,514
80311095,9985,-0.363159,-0.002075,0.926025,514
80321101,10006,-0.362183,-0.001343,0.925415,511
80331110,10009,-0.362915,-0.000854,0.922119,511
80341109,9999,-0.359863,-0.001099,0.922119,516
80351108,9999,-0.356567,0.001709,0.921875,516
80361102,9994,-0.359131,0.003296,0.919678,516
80371089,9987,-0.359985,0.002563,0.918701,512
80381105,10016,-0.359253,0.000122,0.919678,515
80391101,9996,-0.359375,-0.000488,0.920532,514
80401086,9985,-0.360107,-0.000732,0.917847,509
80411097,10011,-0.358032,-0.002075,0.915894,512
80421105,10008,-0.359009,-0.002441,0.916138,512
80431097,9992,-0.359375,-0.000610,0.912964,514
80441099,10002,-0.360718,0.001465,0.915527,506
80451100,10001,-0.355225,-0.000732,0.917480,512
80461103,10003,-0.360107,-0.002075,0.921265,510
80471107,10004,-0.361816,-0.005859,0.922241,510
80481114,10007,-0.364136,-0.007202,0.924683,503
80491114,10000,-0.366089,-0.008057,0.919678,506
80501106,9992,-0.366699,-0.007813,0.923828,506
80511119,10013,-0.359009,-0.006348,0.923706,509
80521102,9983,-0.357544,-0.008179,0.922119,513
80531087,9985,-0.357788,-0.008911,0.919922,509
80541085,9998,-0.358276,-0.005859,0.919067,516
80551887,10802,-0.358154,-0.003174,0.919434,515
80561109,9222,-0.358765,0.030396,0.919678,508
80571104,9995,-0.361572,0.003418,0.919189,515
80581112,10008,-0.361572,0.003052,0.918091,511
80591111,9999,-0.360962,0.000732,0.915894,509
80601109,9998,-0.360596,0.000610,0.916016,518
80611115,10006,-0.359131,0.000000,0.918823,516
80621099,9984,-0.356567,0.000977,0.919556,516
80631101,10002,-0.356934,0.002930,0.918701,510
80641087,9986,-0.358643,0.004639,0.911133,517
80651088,10001,-0.360229,0.004639,0.921753,516
80661099,10011,-0.352661,-0.000610,0.924316,515
80671113,10014,-0.356201,-0.002441,0.926025,513
80681113,10000,-0.358398,-0.005615,0.925659,509
80691093,9980,-0.359741,-0.006592,0.924561,514
80701088,9995,-0.360474,-0.007080,0.922119,510
80711100,10012,-0.362061,-0.004028,0.922363,508
80721096,9996,-0.359619,-0.000610,0.920898,513
80731108,10012,-0.357666,-0.000610,0.918945,511
80741095,9987,-0.359497,-0.001099,0.918335,514
80751086,9991,-0.359863,-0.002686,0.916870,512
80761098,10012,-0.359497,-0.003906,0.920044,508
80771102,10004,-0.356812,-0.002808,0.924561,509
80781086,9984,-0.357300,-0.002319,0.923096,512
80791102,10016,-0.357178,-0.002441,0.922363,509
80801090,9988,-0.357422,-0.001831,0.920410,512
80811127,10037,-0.357788,-0.002686,0.921753,511
80821115,9988,-0.356323,-0.002319,0.920776,512
80831087,9972,-0.356201,-0.000732,0.920532,512
80841114,10027,-0.357422,-0.003052,0.919922,506
80851097,9983,-0.357666,-0.003052,0.919189,509
80861090,9993,-0.357422,-0.000366,0.921631,510
80871100,10010,-0.358765,-0.000244,0.922363,512
80881113,10013,-0.359253,-0.001221,0.921997,512
80891102,9989,-0.359009,-0.001953,0.922974,512
80901114,10012,-0.359131,-0.002319,0.923096,513
80911109,9995,-0.357788,-0.001343,0.922729,511
80921087,9978,-0.357666,-0.000732,0.922241,508
80931097,10010,-0.357422,0.000488,0.923462,512
80941096,9999,-0.357544,0.000244,0.922241,513
80951090,9994,-0.356689,0.000854,0.922119,510
80961094,10004,-0.357300,0.000854,0.922485,512
80971109,10015,-0.357300,0.000244,0.922119,511
80981098,9989,-0.357788,0.000488,0.921631,510
80991104,10006,-0.356812,-0.000488,0.920410,512
81001096,9992,-0.357056,-0.000854,0.918945,511
81011111,10015,-0.358521,-0.000488,0.920410,511
81021111,10000,-0.358643,-0.000732,0.919189,509
81031091,9980,-0.358032,-0.000610,0.918701,508
81041114,10023,-0.358276,-0.001953,0.920410,511
81051099,9985,-0.359497,-0.003540,0.922119,510
81061101,10002,-0.360596,-0.003784,0.922119,508
81071085,9984,-0.359741,-0.004883,0.918823,511
81081088,10003,-0.359985,-0.005371,0.918457,505
81091103,10015,-0.357300,-0.004517,0.918823,510
81101106,10003,-0.356934,-0.000610,0.915405,506
81111087,9981,-0.357422,-0.001099,0.916748,511
81121085,9998,-0.357788,-0.003296,0.915894,505
81131102,10017,-0.358887,-0.003052,0.919067,513
81141105,10003,-0.360962,-0.002563,0.922241,508
81151093,9988,-0.361816,-0.002441,0.921997,512
81161087,9994,-0.360107,-0.002441,0.922852,510
81171101,10014,-0.359131,-0.002441,0.923340,511
81181130,10029,-0.356445,-0.001709,0.924072,509
81191096,9966,-0.355835,-0.000854,0.923462,504
81201093,9997,-0.356079,-0.000366,0.922607,510
81211093,10000,-0.358887,-0.001221,0.920898,513
81221092,9999,-0.359375,-0.002441,0.920044,508
81231111,10019,-0.358398,-0.002075,0.919067,512
81241086,9975,-0.356934,-0.000732,0.921143,514
81251106,10020,-0.357178,-0.000732,0.920898,514
81261110,10004,-0.358276,-0.000854,0.919067,509
81271091,9981,-0.358765,-0.000854,0.918945,513
81281093,10002,-0.358765,-0.000732,0.919556,514
81291112,10019,-0.359009,-0.000732,0.920654,519
81301108,9996,-0.357910,-0.002197,0.922241,516
81311100,9992,-0.358887,-0.003662,0.922241,514
81321098,9998,-0.359375,-0.005737,0.922241,516
81331112,10014,-0.360229,-0.006592,0.922485,512
81341115,10003,-0.359497,-0.005249,0.921753,507
81351110,9995,-0.359497,-0.003906,0.920410,516
81361114,10004,-0.358643,-0.002319,0.919434,512
81371110,9996,-0.360596,0.000732,0.918213,512
81381091,9981,-0.359131,-0.000366,0.917114,514
81391085,9994,-0.358765,0.000366,0.918823,512
81401120,10035,-0.356812,-0.000244,0.920776,511
81411111,9991,-0.357788,-0.000488,0.923340,512
81421110,9999,-0.358276,-0.000732,0.923584,512
81431096,9986,-0.360229,-0.004395,0.921143,512
81441104,10008,-0.359375,-0.003906,0.922241,513
81451091,9987,-0.359619,-0.003296,0.923218,512
81461104,10013,-0.358643,-0.002686,0.922607,510
81471105,10001,-0.359131,-0.001709,0.921631,513
81481119,10014,-0.358154,-0.001709,0.919067,514
81491095,9976,-0.357056,-0.001953,0.919434,512
81501097,10002,-0.357544,-0.002075,0.921509,512
81511086,9989,-0.359009,-0.001831,0.920532,507
81521095,10009,-0.359619,-0.001709,0.918579,512
81531095,10000,-0.360229,-0.000732,0.919800,513
81541090,9995,-0.359863,-0.001465,0.920166,514
81551110,10020,-0.358765,-0.002319,0.920288,512
81561108,9998,-0.358154,-0.003296,0.919922,508
81571089,9981,-0.357788,-0.003174,0.921753,510
81581110,10021,-0.358032,-0.003052,0.921997,511
81591095,9985,-0.359131,-0.003174,0.921387,511
81601104,10009,-0.359741,-0.003296,0.921509,512
81611096,9992,-0.360596,-0.001953,0.920532,512
81621099,10003,-0.359619,-0.001099,0.919312,512
81631102,10003,-0.359985,-0.000610,0.918335,507
81641110,10008,-0.358765,-0.000610,0.917969,511
81651087,9977,-0.358521,-0.000977,0.918945,513
81661102,10015,-0.358643,-0.002197,0.919434,510
81671099,9997,-0.358154,-0.003174,0.920044,511
81681088,9989,-0.359741,-0.005737,0.921631,510
81691102,10014,-0.359375,-0.005615,0.922119,514
81701099,9997,-0.359619,-0.003784,0.922241,512
81711086,9987,-0.358643,-0.003418,0.921265,511
81721112,10026,-0.357910,-0.001587,0.922241,511
81731087,9975,-0.358032,-0.001831,0.922729,513
81741097,10010,-0.359497,-0.000610,0.920654,513
81751091,9994,-0.360596,-0.000732,0.916138,505
81761110,10019,-0.360352,-0.001221,0.917236,512
81771931,10821,-0.359619,-0.000610,0.918213,514
81781098,9167,-0.357544,-0.000610,0.918213,511
81791085,9987,-0.358521,-0.000488,0.917725,510
81801104,10019,-0.359009,-0.002930,0.922119,511
81811096,9992,-0.359253,-0.003296,0.922852,509
81821111,10015,-0.360596,-0.002930,0.923828,511
81831097,9986,-0.360596,-0.004761,0.923950,511
81841105,10008,-0.360229,-0.005127,0.923584,508
81851086,9981,-0.360107,-0.005249,0.922974,510
81861088,10002,-0.359009,-0.004028,0.920410,512
81871086,9998,-0.357422,-0.003418,0.920410,504
81881089,10003,-0.357178,-0.002563,0.919312,512
81891113,10024,-0.358276,-0.003296,0.919312,507
81901091,9978,-0.358643,-0.001587,0.919189,513
81911091,10000,-0.359131,-0.000610,0.918823,511
81921097,10006,-0.358887,-0.000244,0.920166,511
81931102,10005,-0.359375,0.001343,0.920776,515
81941115,10013,-0.358398,0.000977,0.919922,514
81951095,9980,-0.358521,0.001465,0.919922,515
81961103,10008,-0.359253,0.001831,0.922485,513
81971122,10019,-0.360229,0.000488,0.922852,514
81981085,9963,-0.359985,-0.002075,0.922974,514
81991108,10023,-0.359497,-0.004150,0.922852,515
82001097,9989,-0.359863,-0.007324,0.923218,513
82011096,9999,-0.360352,-0.008057,0.923096,516
82021105,10009,-0.361694,-0.005615,0.922729,509
82031105,10000,-0.360229,-0.006470,0.920532,515
82041114,10009,-0.359497,-0.006348,0.919922,509
82051085,9971,-0.359619,-0.003662,0.919434,513
82061108,10023,-0.359863,-0.001099,0.919189,515
82071103,9995,-0.359131,-0.000488,0.919556,513
82081109,10006,-0.359741,-0.000122,0.917969,513
82091107,9998,-0.358887,-0.000122,0.918579,514
82101094,9987,-0.358398,0.000244,0.919067,513
82111092,9998,-0.358032,-0.000610,0.920532,513
82121095,10003,-0.359253,-0.000854,0.921875,510
82131085,9990,-0.360718,-0.004883,0.921997,511
82141102,10017,-0.360596,-0.005615,0.922485,507
82151093,9991,-0.360107,-0.005859,0.923462,507
82161113,10020,-0.360474,-0.006714,0.921875,512
82171091,9978,-0.359253,-0.006226,0.920776,512
82181089,9998,-0.357910,-0.003662,0.920044,510
82191112,10023,-0.358032,-0.002319,0.921021,509
82201102,9990,-0.358276,-0.000488,0.920288,511
82211114,10012,-0.359375,0.000244,0.920166,513
82221090,9976,-0.360107,-0.000244,0.920532,515
82231103,10013,-0.360474,-0.000977,0.918823,509
82241108,10005,-0.361938,-0.006226,0.917969,511
82251100,9992,-0.362671,-0.005981,0.917725,511
82261098,9998,-0.362061,-0.004883,0.917725,513
82271108,10010,-0.360352,-0.004395,0.917236,512
82281133,10025,-0.360962,-0.003784,0.916748,512
82291114,9981,-0.360107,-0.002319,0.917725,514
82301085,9971,-0.359863,-0.001709,0.920532,512
82311107,10022,-0.360352,-0.000610,0.922241,512
82321096,9989,-0.360840,-0.000366,0.921509,511
82331106,10010,-0.360596,0.000732,0.921753,513
82341103,9997,-0.360596,-0.000488,0.920288,513
82351096,9993,-0.359497,-0.000732,0.921021,512
82361123,10027,-0.360352,-0.000610,0.920044,510
82371114,9991,-0.359863,-0.000977,0.919556,512
82381109,9995,-0.358643,-0.001099,0.921875,514
82391093,9984,-0.358643,-0.000610,0.921021,511
82401096,10003,-0.359985,-0.000732,0.922241,507
82411089,9993,-0.359009,0.000854,0.923828,511
82421098,10009,-0.358398,0.001831,0.923950,512
82431095,9997,-0.360474,0.002686,0.922241,513
82441108,10013,-0.362671,0.000610,0.920898,512
82451105,9997,-0.363647,-0.002441,0.916870,510
82461095,9990,-0.363159,-0.004272,0.917847,510
82471103,10008,-0.360962,-0.005127,0.916992,511
82481092,9989,-0.360596,-0.006470,0.916626,513
82491113,10021,-0.360718,-0.007568,0.915894,505
82501119,10006,-0.361450,-0.007690,0.919434,506
82511098,9979,-0.362549,-0.008179,0.921021,511
82521112,10014,-0.361206,-0.008423,0.919312,505
82531102,9990,-0.360840,-0.005981,0.918579,509
82541102,10000,-0.359619,-0.001465,0.918701,513
82551107,10005,-0.357666,-0.000366,0.919312,512
82561097,9990,-0.354614,0.002319,0.920654,512
82571099,10002,-0.356201,0.003052,0.921997,512
82581110,10011,-0.357666,0.001953,0.921387,511
82591095,9985,-0.359863,0.000244,0.920776,517
82601109,10014,-0.360596,-0.001099,0.922119,516
82611111,10002,-0.361450,-0.000977,0.925659,509
82621090,9979,-0.359131,-0.001465,0.923218,516
82631110,10020,-0.359131,-0.003296,0.921875,518
82641088,9978,-0.359131,-0.005127,0.919800,511
82651128,10040,-0.358765,-0.004395,0.919189,514
82661105,9977,-0.359375,-0.004761,0.920654,517
82671106,10001,-0.359985,-0.003784,0.919922,518
82681108,10002,-0.360596,-0.004517,0.917969,517
82691087,9979,-0.360718,-0.004517,0.919067,515
82701087,10000,-0.359863,-0.004028,0.918945,516
82711086,9999,-0.359009,-0.001953,0.919922,517
82721093,10007,-0.357910,0.000977,0.923950,514
82731108,10015,-0.357422,0.001953,0.921875,509
82741114,10006,-0.358154,0.001221,0.920410,514
82751105,9991,-0.356934,0.002319,0.921387,514
82761098,9993,-0.357056,0.003784,0.920776,514
82771105,10007,-0.358643,0.003174,0.920532,512
82781110,10005,-0.359375,0.001709,0.918579,513
82791098,9988,-0.360718,-0.000366,0.918457,513
82801099,10001,-0.361572,-0.000610,0.919067,510
82811096,9997,-0.361694,-0.001343,0.917847,511
82821094,9998,-0.359253,-0.003662,0.919922,508
82831085,9991,-0.358032,-0.006226,0.922363,508
82841087,10002,-0.357666,-0.007324,0.920898,511
82851090,10003,-0.359009,-0.009033,0.921631,507
82861100,10010,-0.358521,-0.006470,0.922485,513
82871091,9991,-0.358887,-0.005371,0.921753,513
82881108,10017,-0.358765,-0.000244,0.921753,510
82891108,10000,-0.359863,0.000854,0.920288,513
82901089,9981,-0.359253,0.002441,0.919067,512
82911089,10000,-0.359985,0.002930,0.917480,513
82921105,10016,-0.358521,0.002197,0.918091,513
82931092,9987,-0.358154,0.002075,0.921509,506
82941108,10016,-0.358154,0.001099,0.922241,509
82951114,10006,-0.357910,-0.000488,0.920654,515
82961086,9972,-0.356934,-0.000977,0.922729,512
82971112,10026,-0.356812,-0.001831,0.923950,512
82981088,9976,-0.357300,-0.001709,0.923096,514
82991110,10022,-0.359253,-0.000854,0.920776,506
83001100,9990,-0.359131,-0.000732,0.919922,513
83011086,9986,-0.359863,-0.000488,0.918457,507
83021108,10022,-0.359863,-0.001099,0.918579,507
83031114,10006,-0.358521,-0.000732,0.918457,509
83041086,9972,-0.357056,-0.000732,0.919800,514
83051110,10024,-0.357666,-0.000854,0.922241,512
83061103,9993,-0.357666,-0.000488,0.924072,514
83071115,10012,-0.358765,-0.000854,0.923340,513
83081114,9999,-0.357422,-0.001709,0.921753,512
83091089,9975,-0.357056,-0.003296,0.923096,513
83101086,9997,-0.358032,-0.001099,0.919434,511
83111113,10027,-0.357300,-0.000488,0.919067,513
83121091,9978,-0.357422,-0.000610,0.917358,509
83131096,10005,-0.356934,-0.000488,0.918457,511
83141101,10005,-0.357788,0.002441,0.919434,513
83151097,9996,-0.358643,0.000732,0.919922,509
83161101,10004,-0.357544,-0.000244,0.922119,512
83171096,9995,-0.358643,-0.000610,0.925903,512
83181108,10012,-0.359863,-0.000488,0.923828,514
83191102,9994,-0.360107,-0.001587,0.922241,512
83201109,10007,-0.355713,-0.001587,0.923462,510
83211098,9989,-0.355469,-0.000854,0.922974,524
83221112,10014,-0.356323,-0.000610,0.920776,513
83231104,9992,-0.358521,-0.000610,0.918701,512
83241114,10010,-0.358887,-0.000122,0.918335,510
83251104,9990,-0.358521,-0.000488,0.919189,513
83261088,9984,-0.356934,-0.000854,0.922729,511
83271108,10020,-0.356079,-0.000610,0.923096,510
83281092,9984,-0.357056,-0.000732,0.923828,510
83291098,10006,-0.358887,-0.000977,0.923218,509
83301093,9995,-0.357422,-0.000732,0.922485,509
83311090,9997,-0.356567,-0.001099,0.920898,507
83321109,10019,-0.355957,-0.000488,0.920288,512
83331096,9987,-0.356812,0.000488,0.919434,516
83341097,10001,-0.357178,-0.000244,0.918823,509
83351090,9993,-0.356445,0.000366,0.919434,517
83361103,10013,-0.355591,-0.000122,0.921143,512
83371095,9992,-0.356934,-0.000122,0.921997,512
83381099,10004,-0.357910,-0.000366,0.923096,513
83391105,10006,-0.359375,-0.000610,0.922852,512
83401097,9992,-0.358765,-0.000854,0.923462,518
83411097,10000,-0.358521,-0.001587,0.922363,518
83421114,10017,-0.357178,-0.001709,0.922607,517
83431088,9974,-0.357178,-0.001953,0.921631,511
83441101,10013,-0.358276,-0.001587,0.922729,511
83451088,9987,-0.357422,-0.000732,0.918823,513
83461086,9998,-0.358765,-0.000732,0.919067,510
83471088,10002,-0.359741,-0.000488,0.920898,515
83481112,10024,-0.359375,-0.000488,0.919800,512
83491096,9984,-0.358765,-0.000488,0.919434,516
83505307,14211,-0.358398,-0.000610,0.919189,516
83511091,5784,0.000000,0.000000,0.000000,513
83521102,10011,-0.359131,-0.001099,0.920044,514
83531091,9989,-0.358643,-0.001587,0.920166,506
83541089,9998,-0.356567,-0.001465,0.919800,512
83551104,10015,-0.356689,-0.000977,0.920044,509
83561095,9991,-0.356812,-0.000610,0.920288,511
83571107,10012,-0.357544,-0.000366,0.919434,513
83581099,9992,-0.357178,0.000488,0.921631,507
83591093,9994,-0.357788,0.000122,0.922363,515
83601104,10011,-0.358521,-0.000488,0.922363,511
83611096,9992,-0.359009,-0.001099,0.922729,514
83621097,10001,-0.360474,-0.000854,0.921997,515
83631098,10001,-0.359985,-0.001343,0.920166,508
83641097,9999,-0.358643,-0.002930,0.918945,515
83651102,10005,-0.357910,-0.002197,0.918823,516
83661087,9985,-0.357056,-0.001221,0.918823,513
83671092,10005,-0.357178,-0.001953,0.919800,514
83681110,10018,-0.355347,-0.001953,0.920166,516
83691089,9979,-0.357178,-0.002075,0.921997,509
83701111,10022,-0.357910,-0.001587,0.922852,514
83711088,9977,-0.358521,0.000000,0.921631,515
83721098,10010,-0.358398,-0.000122,0.923340,513
83731095,9997,-0.359497,0.001587,0.922119,510
83741094,9999,-0.359131,0.000366,0.920654,514
83751109,10015,-0.359131,0.000000,0.920654,512
83761095,9986,-0.359131,-0.000244,0.919800,511
83771086,9991,-0.358643,-0.000244,0.921265,512
83781105,10019,-0.358521,-0.000854,0.922852,516
83791109,10004,-0.359375,-0.001587,0.918945,507
83801093,9984,-0.359253,-0.006104,0.919556,509
83811098,10005,-0.359741,-0.006104,0.920776,512
83821113,10015,-0.360107,-0.006592,0.920288,508
83831090,9977,-0.359863,-0.006714,0.919189,514
83841092,10002,-0.359863,-0.006592,0.919434,513
83851118,10026,-0.359497,-0.004761,0.918701,505
83861111,9993,-0.357666,-0.002197,0.920044,514
83871105,9994,-0.357056,-0.000366,0.920776,512
83881103,9998,-0.358398,0.000366,0.920410,504
83891089,9986,-0.358765,0.002808,0.921387,506
83901097,10008,-0.358398,0.003906,0.922974,510
83911086,9989,-0.359009,0.003296,0.921265,512
83921107,10021,-0.359009,0.000122,0.920044,508
83931085,9978,-0.359619,-0.000854,0.920532,507
83941093,10008,-0.358398,-0.000854,0.921753,512
83951104,10011,-0.358887,-0.002686,0.919556,511
83961093,9989,-0.359009,-0.004761,0.919067,512
83971111,10018,-0.359375,-0.004272,0.918091,507
83981085,9974,-0.359131,-0.005371,0.918945,511
83991096,10011,-0.359497,-0.005249,0.920288,512
84001107,10011,-0.358154,-0.004883,0.921631,514
84011111,10004,-0.359985,-0.008057,0.919678,507
84021111,10000,-0.360107,-0.007446,0.919189,512
84031114,10003,-0.359863,-0.004761,0.919312,507
84041089,9975,-0.359619,-0.003540,0.919678,507
84051094,10005,-0.358032,-0.001587,0.919312,518
84061107,10013,-0.357178,0.000488,0.920898,512
84071103,9996,-0.358276,0.000366,0.922607,514
84081086,9983,-0.356934,0.001099,0.922974,509
84091093,10007,-0.357056,0.001221,0.923462,514
84101088,9995,-0.356934,0.001221,0.926147,515
84111101,10013,-0.358887,0.002075,0.926514,519
84121091,9990,-0.360718,0.001221,0.922241,518
84131112,10021,-0.360840,-0.000244,0.921143,519
84141133,10021,-0.359253,-0.000244,0.919189,514
84151100,9967,-0.358398,-0.000366,0.921021,517
84161089,9989,-0.358643,-0.001221,0.919678,519
84171104,10015,-0.356812,-0.003540,0.921875,518
84181093,9989,-0.358887,-0.003784,0.920166,516
84191104,10011,-0.359619,-0.005981,0.920532,512
84201091,9987,-0.360596,-0.005859,0.920654,515
84211091,10000,-0.359375,-0.005737,0.921997,516
84221095,10004,-0.360962,-0.002441,0.919556,515
84231104,10009,-0.359741,-0.000854,0.918945,509
84241093,9989,-0.360596,-0.000488,0.919678,509
84251105,10012,-0.359619,-0.000244,0.919189,515
84261096,9991,-0.359497,-0.000610,0.919800,509
84271102,10006,-0.359009,-0.002075,0.919189,513
84281105,10003,-0.360352,-0.003174,0.921997,509
84291090,9985,-0.360596,-0.002075,0.921631,509
84301113,10023,-0.359863,-0.002563,0.920288,512
84311109,9996,-0.358765,-0.003174,0.921753,515
84321112,10003,-0.359253,-0.002197,0.921753,509
84331099,9987,-0.359497,-0.001343,0.920776,513
84341092,9993,-0.358765,-0.002441,0.922363,515
84351114,10022,-0.360107,-0.003174,0.922241,513
84361090,9976,-0.360840,-0.003906,0.922607,509
84371093,10003,-0.361938,-0.004395,0.919556,515
84381089,9996,-0.361084,-0.004395,0.919189,516
84391100,10011,-0.359863,-0.002197,0.920898,507
84401113,10013,-0.358643,-0.001221,0.920044,511
84411106,9993,-0.357788,-0.002441,0.919678,508
84421095,9989,-0.358887,-0.002197,0.917847,502
84431086,9991,-0.359741,-0.002563,0.917358,513
84441110,10024,-0.359497,-0.000977,0.919922,509
84451092,9982,-0.360107,-0.001221,0.922485,514
84461114,10022,-0.360596,-0.002075,0.920654,513
84471085,9971,-0.360107,-0.003906,0.922119,514
84481088,10003,-0.361084,-0.003662,0.920776,511
84491090,10002,-0.361084,-0.004150,0.921143,508
84501095,10005,-0.359619,-0.001587,0.921143,509
84511086,9991,-0.358643,-0.001587,0.921143,511
84521086,10000,-0.359619,-0.001587,0.919434,507
84531098,10012,-0.360718,-0.002075,0.917725,509
84541103,10005,-0.360474,-0.002197,0.918213,511
84551089,9986,-0.359985,-0.003174,0.921753,512
84561085,9996,-0.360352,-0.003784,0.921875,512
84571111,10026,-0.362427,-0.005737,0.921631,506
84581111,10000,-0.363770,-0.005005,0.920044,506
84591112,10001,-0.361572,-0.004517,0.918213,507
84601100,9988,-0.357910,-0.002808,0.919312,513
84611099,9999,-0.357422,-0.000366,0.921143,508
84621100,10001,-0.357666,0.000122,0.922363,513
84631088,9988,-0.360352,-0.000977,0.920410,511
84641094,10006,-0.361572,-0.002075,0.918335,515
84651100,10006,-0.361206,-0.001709,0.920532,508
84661130,10030,-0.361450,-0.002197,0.921265,512
84674582,13452,-0.362183,-0.004395,0.920288,512
84682481,7899,-0.363647,-0.005859,0.917969,509
84691112,8631,-0.363525,-0.006226,0.915649,513
84701110,9998,-0.363159,-0.006348,0.911865,504
84711104,9994,-0.359009,-0.004517,0.918701,512
84721085,9981,-0.358276,-0.004761,0.920166,510
84731094,10009,-0.359985,-0.005005,0.921997,513
84741088,9994,-0.362305,-0.006958,0.920654,508
84751104,10016,-0.364624,-0.008545,0.918335,511
84761114,10010,-0.363525,-0.003784,0.921997,507
84771111,9997,-0.358521,-0.000732,0.922607,512
84781108,9997,-0.355835,-0.000732,0.925415,513
84791103,9995,-0.357666,-0.001587,0.923096,511
84801130,10027,-0.359131,-0.001709,0.919678,513
84811090,9960,-0.360840,-0.000854,0.918945,508
84821105,10015,-0.358765,0.001953,0.924194,508
84834949,13844,-0.358154,0.000854,0.925049,512
84841096,6147,-0.359131,-0.001099,0.922363,515
84851087,9991,-0.361450,-0.001831,0.920044,517
84861141,10054,-0.362549,-0.003784,0.916382,510
84871094,9953,-0.361816,-0.001831,0.920166,517
84881097,10003,-0.360352,-0.002563,0.923828,515
84891101,10004,-0.360962,-0.005249,0.922852,519
84901110,10009,-0.363403,-0.008301,0.919556,515
84911096,9986,-0.364502,-0.009277,0.915405,517
84921108,10012,-0.362915,-0.009277,0.919800,518
84931089,9981,-0.359131,-0.005371,0.923584,516
84941110,10021,-0.359985,-0.001709,0.924072,517
84951115,10005,-0.360962,-0.001099,0.922852,514
84961088,9973,-0.360718,-0.001465,0.918457,509
84971112,10024,-0.361206,-0.001587,0.917236,515
84981091,9979,-0.358398,0.000610,0.923706,515
84991114,10023,-0.357178,0.001465,0.925049,510
85001093,9979,-0.359009,0.001587,0.922729,513
85011100,10007,-0.363037,-0.000610,0.918701,514
85021093,9993,-0.363037,-0.003052,0.915649,507
85031105,10012,-0.360352,-0.003174,0.922607,513
85041097,9992,-0.359253,-0.002197,0.923828,515
85051096,9999,-0.360840,-0.002930,0.922241,516
85061090,9994,-0.362061,-0.003052,0.919800,513
85073703,12613,-0.362183,-0.006348,0.918457,515
85081118,7415,0.000000,0.000000,0.000000,514
85091118,10000,-0.359741,-0.006470,0.923340,508
85101109,9991,-0.360840,-0.005981,0.922852,509
85111110,10001,-0.360840,-0.005371,0.919312,506
85121111,10001,-0.363159,-0.003418,0.916992,511
85131095,9984,-0.363037,-0.003296,0.915649,514
85141098,10003,-0.360718,-0.001343,0.921875,508
85151110,10012,-0.360596,-0.000977,0.922119,509
85161095,9985,-0.361328,-0.000977,0.921997,510
85171091,9996,-0.363647,-0.002441,0.918945,513
85181098,10007,-0.361694,-0.005127,0.918945,506
85191105,10007,-0.360229,-0.002197,0.922729,511
85201095,9990,-0.359497,-0.002319,0.920532,512
85211105,10010,-0.361572,-0.003784,0.918213,509
85221106,10001,-0.363403,-0.005371,0.913574,511
85231086,9980,-0.363403,-0.005493,0.913574,510
85241085,9999,-0.363770,-0.003784,0.917480,513
85251088,10003,-0.362915,-0.003662,0.921753,507
85261098,10010,-0.363892,-0.004639,0.921631,509
85271097,9999,-0.365234,-0.005859,0.919434,512
85281096,9999,-0.364502,-0.005005,0.919189,506
85291124,10028,-0.363525,-0.006104,0.919067,514
85301104,9980,-0.359985,-0.005859,0.921387,512
85311087,9983,-0.359985,-0.007080,0.919678,510
85321094,10007,-0.361938,-0.007202,0.916260,507
85331085,9991,-0.360596,-0.004883,0.916748,508
85341100,10015,-0.362427,-0.001953,0.918091,511
85351090,9990,-0.362915,-0.000854,0.919434,504
85361096,10006,-0.365234,-0.001831,0.922729,510
85371092,9996,-0.364990,-0.004639,0.921021,506
85381115,10023,-0.365723,-0.007324,0.918579,509
85391106,9991,-0.364990,-0.009644,0.914917,509
85401108,10002,-0.361816,-0.008667,0.914551,504
85411087,9979,-0.359131,-0.000977,0.915283,514
85421086,9999,-0.358032,-0.000732,0.914551,512
85431111,10025,-0.360474,-0.003052,0.913696,512
85441085,9974,-0.363159,-0.005005,0.916382,508
85451110,10025,-0.363281,-0.009155,0.919922,511
85461090,9980,-0.362793,-0.006348,0.925537,510
85471108,10018,-0.362671,-0.006226,0.924561,512
85481107,9999,-0.360718,-0.004517,0.922607,506
85491106,9999,-0.358398,-0.003662,0.919678,512
85501110,10004,-0.358154,-0.001709,0.919922,511
85511097,9987,-0.356445,-0.000488,0.920044,505
85521087,9990,-0.361084,-0.000488,0.920410,512
85531111,10024,-0.363770,-0.002686,0.919800,507
85541108,9997,-0.366821,-0.004639,0.920166,511
85551095,9987,-0.366821,-0.007446,0.919678,518
85561086,9991,-0.365723,-0.008667,0.918823,513
85571107,10021,-0.359131,-0.005493,0.919556,513
85581090,9983,-0.356567,-0.004272,0.919067,515
85591090,10000,-0.356567,-0.003418,0.918579,515
85601104,10014,-0.356323,-0.003540,0.918945,513
85611093,9989,-0.357666,-0.003784,0.919312,511
85621094,10001,-0.360107,-0.004028,0.920654,516
85631112,10018,-0.363281,-0.004272,0.921021,517
85641103,9991,-0.363647,-0.003540,0.922363,516
85651104,10001,-0.362915,-0.002686,0.921265,516
85661101,9997,-0.362671,-0.003296,0.920166,508
85671108,10007,-0.361328,-0.003906,0.919067,510
85681086,9978,-0.362671,-0.000854,0.920898,515
85691094,10008,-0.363892,-0.001099,0.922363,515
85701108,10014,-0.361816,-0.002197,0.922363,508
85715384,14276,-0.360962,-0.006958,0.919678,507
85722135,6751,0.000000,0.000000,0.000000,512
85731110,8975,-0.358765,-0.002563,0.919678,512
85741104,9994,-0.358154,-0.000610,0.919067,507
85751096,9992,-0.358398,0.000000,0.917725,511
85761097,10001,-0.359253,-0.000732,0.919556,503
85771111,10014,-0.360107,-0.001587,0.918945,509
85781104,9993,-0.361572,-0.002563,0.917847,506
85791106,10002,-0.360474,-0.001221,0.920776,511
85801095,9989,-0.359497,-0.000977,0.922485,511
85811101,10006,-0.358887,-0.001831,0.921143,512
85821114,10013,-0.356323,-0.004272,0.919434,513
85831096,9982,-0.357056,-0.005127,0.920410,515
85841090,9994,-0.359497,-0.000610,0.923584,508
85851107,10017,-0.359863,-0.000610,0.924072,511
85861107,10000,-0.363159,-0.002075,0.923462,506
85871089,9982,-0.363281,-0.003418,0.923584,513
85881087,9998,-0.363525,-0.003418,0.922363,511
85891094,10007,-0.362793,-0.002808,0.919189,513
85901096,10002,-0.360718,-0.001343,0.916626,513
85911115,10019,-0.359863,-0.002441,0.915894,512
85921103,9988,-0.358765,-0.002686,0.915161,513
85931087,9984,-0.359619,-0.004150,0.915649,512
85945786,14699,-0.359131,-0.004395,0.918335,512
85952170,6384,-0.359009,-0.003052,0.918091,509
85961956,9786,-0.357544,-0.003174,0.918945,512
85971104,9148,-0.357300,-0.001465,0.922119,506
85981108,10004,-0.357056,-0.000366,0.923096,511
85991140,10032,-0.358032,0.000732,0.923462,503
86001106,9966,-0.360962,0.002197,0.925293,511
86011107,10001,-0.360718,0.002808,0.924927,508
86021111,10004,-0.360352,0.001831,0.926514,511
86031112,10001,-0.360718,0.001465,0.925293,511
86041091,9979,-0.358643,0.000610,0.926270,510
86051091,10000,-0.358765,-0.000732,0.917480,509
86061093,10002,-0.357300,-0.000854,0.914673,510
86071087,9994,-0.356689,-0.001221,0.914551,509
86081118,10031,-0.354370,-0.000244,0.914917,510
86091094,9976,-0.354126,0.001343,0.915527,512
86101112,10018,-0.357056,0.000977,0.917603,511
86111106,9994,-0.362549,-0.000854,0.918701,509
86121105,9999,-0.360596,0.005005,0.926270,510
86131113,10008,-0.364990,0.001831,0.922974,504
86141119,10006,-0.356079,-0.007446,0.920166,510
86151094,9975,-0.355103,0.000244,0.923340,510
86161096,10002,-0.352417,-0.000854,0.923706,509
86171101,10005,-0.351685,-0.008423,0.921387,510
86181114,10013,-0.353394,-0.006836,0.923096,512
86191098,9984,-0.355713,-0.001099,0.924194,511
86201097,9999,-0.357300,-0.000610,0.923340,511
86211110,10013,-0.359009,-0.004639,0.925049,514
86221104,9994,-0.363525,-0.000610,0.921265,515
86231090,9986,-0.362061,-0.000610,0.918457,513
86241107,10017,-0.359863,-0.000610,0.917725,516
86251111,10004,-0.358154,-0.000244,0.918945,511
86261092,9981,-0.356201,0.000854,0.920898,513
86271113,10021,-0.355591,-0.000977,0.922119,518
86281088,9975,-0.355957,-0.000732,0.922852,516
86291105,10017,-0.357178,-0.000732,0.922974,513
86301102,9997,-0.356201,-0.000366,0.922363,518
86311095,9993,-0.357666,0.000122,0.923462,515
86321113,10018,-0.358276,0.001953,0.923218,514
86331094,9981,-0.358887,0.001221,0.920532,510
86341100,10006,-0.360474,0.000366,0.918335,514
86351100,10000,-0.359619,-0.000854,0.918579,512
86361085,9985,-0.359253,-0.001587,0.918823,513
86371101,10016,-0.358643,-0.002197,0.920898,514
86381092,9991,-0.357300,-0.002441,0.921387,514
86391105,10013,-0.357056,-0.001343,0.920288,509
86401113,10008,-0.355957,-0.000732,0.920898,512
86411107,9994,-0.353760,0.000000,0.920776,513
86421100,9993,-0.353271,0.002808,0.922852,515
86431097,9997,-0.354858,0.005371,0.924194,509
86441097,10000,-0.357056,0.005127,0.922852,507
86451093,9996,-0.359131,0.002930,0.920898,509
86461107,10014,-0.361328,0.000122,0.920776,513
86471114,10007,-0.360352,-0.000488,0.924072,511
86481107,9993,-0.360718,-0.000488,0.925415,507
86491103,9996,-0.359253,-0.002808,0.921753,510
86501100,9997,-0.359131,-0.001221,0.921021,514
86511114,10014,-0.357178,-0.000488,0.921875,513
86521122,10008,-0.355957,0.000366,0.921387,510
86531088,9966,-0.354980,0.000000,0.921021,513
86541102,10014,-0.356323,0.003784,0.923218,511
86551093,9991,-0.357178,0.003174,0.919922,515
86561112,10019,-0.360596,0.001343,0.919189,513
86571106,9994,-0.359741,0.000366,0.921265,512
86581127,10021,-0.359497,-0.000488,0.921021,516
86591113,9986,-0.355713,-0.003418,0.922485,514
86601100,9987,-0.357056,-0.004028,0.920898,513
86611101,10001,-0.357300,-0.003174,0.919189,507
86621110,10009,-0.358032,-0.002075,0.920654,515
86631099,9989,-0.359009,-0.000488,0.919067,507
86641103,10004,-0.359375,0.000610,0.918823,510
86651113,10010,-0.359497,0.002197,0.922241,512
86661114,10001,-0.360596,0.001465,0.920044,511
86671085,9971,-0.359863,0.000732,0.918701,507
86681090,10005,-0.359131,0.000854,0.918945,505
86691097,10007,-0.356934,0.002197,0.922363,512
86701091,9994,-0.355469,0.003296,0.925415,510
86711108,10017,-0.356079,0.001221,0.923218,512
86721114,10006,-0.357056,-0.000488,0.922363,512
86731090,9976,-0.359619,-0.000610,0.922729,515
86741096,10006,-0.361694,-0.001587,0.922363,512
86751099,10003,-0.362915,-0.001099,0.919312,511
86761109,10010,-0.357666,-0.000977,0.919189,506
86771085,9976,-0.357300,-0.001465,0.917847,504
86781086,10001,-0.356689,-0.000610,0.916016,512
86791096,10010,-0.357056,0.000244,0.915894,507
86801106,10010,-0.358887,-0.000488,0.918457,511
86811098,9992,-0.358398,-0.000610,0.925415,513
86821095,9997,-0.359863,-0.000977,0.926392,512
86831115,10020,-0.361694,-0.002686,0.923828,511
86841095,9980,-0.361694,-0.003296,0.921387,510
86851115,10020,-0.359619,-0.000977,0.919312,512
86861088,9973,-0.355591,-0.000122,0.919434,512
86871111,10023,-0.355713,0.001465,0.920654,513
86881099,9988,-0.356323,-0.000244,0.919067,514
86891087,9988,-0.360107,-0.001343,0.918213,510
86901087,10000,-0.363403,-0.003296,0.917725,513
86911085,9998,-0.363403,-0.003540,0.918945,509
86921113,10028,-0.360229,-0.002441,0.923218,515
86931096,9983,-0.359497,-0.001587,0.923340,515
86941095,9999,-0.358398,-0.000732,0.921875,510
86951112,10017,-0.358765,-0.000488,0.919312,516
86961088,9976,-0.359985,-0.000366,0.918091,520
86971101,10013,-0.359497,0.000000,0.917847,517
86981095,9994,-0.360229,-0.000366,0.918457,517
86991099,10004,-0.359253,0.000244,0.919189,509
87001122,10023,-0.359619,-0.000854,0.920654,511
87011100,9978,-0.359741,-0.004028,0.921753,515
87021113,10013,-0.360962,-0.002808,0.918945,511
87031095,9982,-0.360352,-0.001831,0.919678,511
87041113,10018,-0.358154,0.000000,0.921143,513
87051102,9989,-0.358643,0.003174,0.921387,513
87061112,10010,-0.360474,0.005249,0.921509,517
87071093,9981,-0.361206,0.002808,0.921509,509
87081109,10016,-0.361694,-0.000244,0.918457,511
87091088,9979,-0.360474,0.000732,0.919922,513
87101106,10018,-0.358276,0.003418,0.925049,510
87111095,9989,-0.357178,0.001831,0.924683,513
87121085,9990,-0.357910,0.000244,0.922852,514
87131103,10018,-0.359619,-0.004272,0.918335,514
87141102,9999,-0.357422,-0.004395,0.919189,512
87151091,9989,-0.357422,-0.004395,0.919067,514
87161093,10002,-0.355835,-0.005859,0.924438,513
87171114,10021,-0.355347,-0.007690,0.928101,513
87181086,9972,-0.360596,-0.005859,0.916382,532
87191103,10017,-0.365356,-0.004028,0.912964,509
87201095,9992,-0.363525,-0.000244,0.916870,512
87211111,10016,-0.355957,0.003906,0.922607,512
87221093,9982,-0.354492,0.006470,0.925415,512
87231105,10012,-0.354614,0.006226,0.921875,512
87241112,10007,-0.359985,-0.000732,0.915039,508
87251094,9982,-0.360474,-0.002930,0.917725,508
87261094,10000,-0.358032,-0.001587,0.922119,506
87271109,10015,-0.357544,-0.000488,0.925781,514
87281106,9997,-0.358521,-0.000488,0.924072,515
87291107,10001,-0.360474,-0.003662,0.913696,506
87301108,10001,-0.358765,-0.001953,0.914795,514
87311087,9979,-0.355835,0.000000,0.919434,512
87321103,10016,-0.354736,0.002075,0.923706,512
87331103,10000,-0.355103,0.002197,0.927612,512
87341092,9989,-0.357300,0.001831,0.926636,508
87351097,10005,-0.361328,-0.003540,0.922363,512
87361092,9995,-0.360107,-0.004150,0.920532,512
87371091,9999,-0.360107,-0.003540,0.922485,507
87381117,10026,-0.359009,-0.001953,0.924194,507
87391094,9977,-0.359741,-0.000732,0.921875,512
87401105,10011,-0.361206,-0.002075,0.917603,513
87411090,9985,-0.361328,-0.000610,0.916016,509
87421113,10023,-0.363403,0.009155,0.924683,512
87431096,9983,-0.363159,0.011353,0.922485,511
87441130,10034,-0.355835,0.001465,0.921997,511
87451105,9975,-0.357910,0.005249,0.919922,512
87461109,10004,-0.359497,0.000244,0.917358,514
87471110,10001,-0.357910,-0.005859,0.917969,507
87481095,9985,-0.354736,-0.004639,0.919312,511
87491104,10009,-0.353516,-0.001465,0.920654,513
87501114,10010,-0.355591,-0.000732,0.919556,512
87511086,9972,-0.358765,-0.005737,0.918579,512
87521101,10015,-0.360840,-0.004272,0.921143,514
87531105,10004,-0.361450,-0.001221,0.923706,512
87541087,9982,-0.360229,-0.000488,0.923462,513
87551092,10005,-0.359741,0.003174,0.923584,512
87561085,9993,-0.357300,0.006470,0.922119,512
87571102,10017,-0.355347,0.006226,0.922241,507
87581134,10032,-0.352905,0.003906,0.921875,512
87591100,9966,-0.352905,0.002441,0.920288,515
87601098,9998,-0.352173,0.000488,0.923096,512
87611112,10014,-0.356567,-0.000366,0.922974,513
87621093,9981,-0.359131,-0.002197,0.919434,518
87631108,10015,-0.359375,-0.002686,0.920410,511
87641110,10002,-0.359131,-0.001953,0.920776,512
87651091,9981,-0.356689,-0.000732,0.921509,516
87661104,10013,-0.356323,0.000488,0.922241,517
87671127,10023,-0.357056,0.000122,0.923828,517
87681095,9968,-0.358521,-0.000122,0.922607,515
87691113,10018,-0.359253,-0.000366,0.921509,516
87701090,9977,-0.358521,-0.000122,0.921875,518
87711110,10020,-0.357056,0.000854,0.924072,517
87721107,9997,-0.356567,0.001709,0.922607,510
87731088,9981,-0.357544,0.000122,0.920532,514
87741095,10007,-0.358276,0.001099,0.920654,515
87751108,10013,-0.357056,0.001587,0.919922,514
87761093,9985,-0.356079,0.001587,0.919800,509
87771114,10021,-0.356201,0.001343,0.921875,514
87781093,9979,-0.358765,-0.000610,0.921143,509
87791097,10004,-0.360107,-0.001953,0.921753,513
87801098,10001,-0.359741,-0.003418,0.921509,508
87811091,9993,-0.359253,-0.004639,0.920898,515
87821092,10001,-0.357056,-0.004639,0.922119,510
87831093,10001,-0.356445,-0.002075,0.921387,515
87841107,10014,-0.357788,-0.000610,0.921265,508
87851093,9986,-0.358887,-0.000610,0.920532,513
87861087,9994,-0.359497,-0.000366,0.921509,511
87871108,10021,-0.359375,0.001343,0.921875,508
87881086,9978,-0.358887,-0.000488,0.922119,514
87891089,10003,-0.358276,0.000488,0.922974,509
87901104,10015,-0.357544,0.000000,0.922852,513
87911088,9984,-0.356812,0.001343,0.922607,511
87921089,10001,-0.357056,0.001587,0.921875,513
87931111,10022,-0.356812,0.002319,0.920044,515
87941113,10002,-0.356201,0.002563,0.921387,515
87951100,9987,-0.357910,0.001831,0.920288,512
87961102,10002,-0.359741,0.000122,0.920044,513
87971100,9998,-0.360962,-0.002075,0.919678,512
87981093,9993,-0.362183,-0.003662,0.919189,515
87991086,9993,-0.361084,-0.002930,0.919922,506
88001086,10000,-0.359619,-0.002197,0.921387,510
88011112,10026,-0.359497,-0.001343,0.921997,513
88021094,9982,-0.359009,-0.002075,0.920410,513
88031130,10036,-0.359741,-0.001343,0.920288,512
88041101,9971,-0.360596,-0.000610,0.919189,511
88051100,9999,-0.361084,-0.000488,0.918701,512
88061099,9999,-0.362305,-0.000244,0.919556,513
88071097,9998,-0.362915,-0.001465,0.919067,513
88081096,9999,-0.364014,-0.004272,0.918579,512
88091086,9990,-0.362061,-0.005981,0.915771,508
88101092,10006,-0.357422,-0.004639,0.918823,510
88111091,9999,-0.357056,-0.002686,0.919678,511
88121128,10037,-0.357544,-0.000610,0.917969,504
88131089,9961,-0.356445,0.000977,0.917480,512
88141103,10014,-0.357544,0.003662,0.919312,511
88151114,10011,-0.358032,0.005005,0.919434,511
88161112,9998,-0.359497,0.005615,0.919678,507
88171086,9974,-0.360474,0.004639,0.919922,512
88181122,10036,-0.360718,0.000488,0.918335,511
88191089,9967,-0.360352,-0.002319,0.917358,510
88201101,10012,-0.358765,-0.003784,0.918335,511
88211090,9989,-0.359741,-0.004395,0.920044,513
88221088,9998,-0.359131,-0.005859,0.921021,512
88231095,10007,-0.359497,-0.006836,0.922363,511
88241092,9997,-0.361816,-0.007813,0.922363,507
88251099,10007,-0.363159,-0.007813,0.920898,512
88261103,10004,-0.361694,-0.006348,0.917847,512
88271125,10022,-0.359741,-0.002563,0.917603,511
88281090,9965,-0.357910,-0.001221,0.917725,512
88291095,10005,-0.357422,-0.000244,0.917236,508
88301085,9990,-0.355225,0.001343,0.915894,515
88311112,10027,-0.354736,0.000244,0.918701,508
88321112,10000,-0.353638,0.002563,0.924927,513
88331101,9989,-0.354004,0.002686,0.928101,515
88341100,9999,-0.353394,0.000122,0.929199,516
88351085,9985,-0.356079,-0.000488,0.928833,517
88361100,10015,-0.357056,-0.000977,0.928223,517
88371106,10006,-0.358398,0.001343,0.924194,518
88381093,9987,-0.359009,0.002197,0.922485,516
88391092,9999,-0.359863,0.002686,0.921753,516
88401105,10013,-0.358521,0.003418,0.920654,514
88411090,9985,-0.359131,0.004517,0.919434,516
88421085,9995,-0.359375,0.000244,0.919556,508
88431114,10029,-0.360962,-0.001587,0.919800,515
88441101,9987,-0.359131,-0.004028,0.922363,516
88451112,10011,-0.359497,-0.004150,0.922485,513
88461091,9979,-0.357788,-0.003784,0.919434,515
88471111,10020,-0.357666,-0.002808,0.917358,508
88481109,9998,-0.353638,0.000000,0.915527,516
88491100,9991,-0.352783,0.002319,0.917480,514
88501103,10003,-0.351807,0.005005,0.920288,514
