t_us,dt_us,ax,ay,az,ppg
37402337,10013,0.933350,-0.332397,0.317627,505
37412353,10016,0.988281,-0.237793,0.327515,520
37422348,9995,1.019897,-0.238281,0.313477,531
37432350,10002,1.033447,-0.301025,0.304321,536
37442347,9997,1.053101,-0.347046,0.321167,544
37452324,9977,1.041504,-0.385864,0.315063,543
37462336,10012,1.023193,-0.400635,0.295898,541
37472347,10011,1.019409,-0.437012,0.282593,541
37482365,10018,0.965576,-0.285156,0.266235,536
37492330,9965,0.937866,-0.262939,0.261719,537
37502341,10011,0.923706,-0.283447,0.266235,533
37512350,10009,0.905762,-0.296387,0.267212,524
37522352,10002,0.886475,-0.291992,0.265747,516
37532347,9995,0.870361,-0.270996,0.258667,510
37542342,9995,0.844849,-0.270630,0.253296,507
37552350,10008,0.838013,-0.263794,0.244629,502
37562372,10022,0.828369,-0.242432,0.237427,502
37572342,9970,0.821045,-0.219604,0.234375,498
37582325,9983,0.821289,-0.215698,0.233643,498
37592335,10010,0.817871,-0.238037,0.245728,492
37602337,10002,0.816284,-0.251953,0.249390,496
37612345,10008,0.812256,-0.255615,0.253052,499
37622351,10006,0.812134,-0.258667,0.259277,496
37632337,9986,0.810181,-0.273315,0.262085,495
37642350,10013,0.806274,-0.284424,0.267212,494
37652343,9993,0.811401,-0.287354,0.270386,496
37662332,9989,0.816772,-0.292603,0.270752,495
37672324,9992,0.812988,-0.300659,0.272095,495
37682345,10021,0.815552,-0.305786,0.275757,500
37692349,10004,0.828613,-0.311523,0.281250,501
37702348,9999,0.834595,-0.313721,0.286499,495
37712348,10000,0.829834,-0.315308,0.286377,503
37722349,10001,0.826416,-0.316162,0.287720,503
37732342,9993,0.821899,-0.315796,0.291626,507
37742354,10012,0.825806,-0.316162,0.309082,508
37752344,9990,0.879028,-0.335449,0.329346,509
37762348,10004,0.951294,-0.356812,0.339478,511
37772344,9996,1.011475,-0.377441,0.339722,518
37782324,9980,1.056763,-0.398193,0.353760,515
37792331,10007,1.049561,-0.386108,0.343994,521
37802339,10008,1.071899,-0.391724,0.333130,525
37812346,10007,1.023560,-0.394165,0.344482,520
37822326,9980,1.011841,-0.398682,0.358276,523
37832339,10013,0.992920,-0.394653,0.377319,524
37842353,10014,0.957520,-0.380005,0.395142,520
37852334,9981,0.914307,-0.370361,0.407837,519
37862334,10000,0.837646,-0.353882,0.421021,509
37872343,10009,0.813354,-0.341431,0.429687,512
37882353,10010,0.802246,-0.333374,0.422485,506
37892333,9980,0.794434,-0.333740,0.407593,505
37902348,10015,0.800537,-0.332886,0.395142,504
37912346,9998,0.823853,-0.324951,0.385986,501
37922344,9998,0.894653,-0.314697,0.393433,508
37932341,9997,0.929443,-0.318604,0.405518,519
37942334,9993,0.956421,-0.330688,0.408203,525
37952345,10011,0.963257,-0.346924,0.404663,532
37962330,9985,0.961914,-0.362061,0.397705,546
37972347,10017,0.927734,-0.377319,0.386353,556
37982347,10000,0.910278,-0.375977,0.391846,557
37992337,9990,0.904297,-0.376709,0.395508,561
38002332,9995,0.900757,-0.379761,0.405640,557
38012349,10017,0.912964,-0.388428,0.428223,559
38022344,9995,0.920044,-0.398438,0.430908,548
38032351,10007,0.883545,-0.387451,0.414551,553
38042331,9980,0.870850,-0.364746,0.407593,549
38052367,10036,0.857178,-0.343994,0.403320,545
38062324,9957,0.842773,-0.336914,0.400269,541
38072332,10008,0.836304,-0.330566,0.402222,534
38082349,10017,0.828491,-0.317749,0.408813,532
38092350,10001,0.823242,-0.323486,0.412354,530
38102347,9997,0.804077,-0.337158,0.401733,522
38112353,10006,0.781372,-0.356323,0.397827,524
38122328,9975,0.763672,-0.374878,0.390869,524
38132353,10025,0.755005,-0.382446,0.384277,527
38142328,9975,0.759399,-0.368774,0.370728,522
38152338,10010,0.768188,-0.358398,0.367065,529
38162340,10002,0.777344,-0.351929,0.365479,519
38172335,9995,0.786133,-0.355103,0.370239,528
38182340,10005,0.802124,-0.369263,0.371338,526
38192333,9993,0.817505,-0.391602,0.366821,524
38202327,9994,0.818359,-0.394775,0.363647,525
38212364,10037,0.819458,-0.395020,0.361206,522
38222352,9988,0.823608,-0.392334,0.360352,517
38232344,9992,0.831787,-0.388550,0.362305,516
38242345,10001,0.840576,-0.387329,0.370972,513
38252351,10006,0.840576,-0.370728,0.368774,506
38262324,9973,0.837524,-0.352051,0.367554,501
38272336,10012,0.872314,-0.356689,0.363281,495
38282349,10013,0.906860,-0.349731,0.369141,495
38292334,9985,0.941772,-0.327393,0.379517,489
38302350,10016,1.001099,-0.298706,0.394897,492
38312329,9979,1.004028,-0.304565,0.406616,497
38322353,10024,1.002319,-0.306763,0.412354,503
38332337,9984,1.000610,-0.316284,0.402832,502
38342332,9995,0.979980,-0.338989,0.380493,509
38352345,10013,0.946045,-0.357788,0.332031,510
38362348,10003,0.888306,-0.362183,0.317627,513
38372336,9988,0.887817,-0.347778,0.307861,512
38382353,10017,0.897827,-0.335693,0.307251,508
38392333,9980,0.910889,-0.338867,0.306396,502
38402331,9998,0.934937,-0.323364,0.310303,489
38412349,10018,1.011108,-0.301147,0.312134,488
38422345,9996,1.018677,-0.301392,0.305664,474
38432354,10009,1.028442,-0.286865,0.303345,467
38442352,9998,1.037231,-0.272217,0.301147,461
38452324,9972,1.044678,-0.263062,0.294800,462
38462341,10017,1.050781,-0.248779,0.301880,460
38472350,10009,1.058105,-0.250732,0.327881,459
38482343,9993,1.069458,-0.277466,0.330444,459
38492344,10001,1.066650,-0.302612,0.319092,457
38502335,9991,1.055664,-0.313477,0.303345,470
38512343,10008,1.041870,-0.319458,0.291992,475
38523865,11522,1.005371,-0.312988,0.281372,486
38532345,8480,0.987793,-0.289795,0.283447,489
38542343,9998,0.965454,-0.265747,0.286255,500
38552333,9990,0.942871,-0.250610,0.290283,502
38562340,10007,0.922485,-0.241821,0.295044,506
38572335,9995,0.885742,-0.232056,0.305054,510
38582348,10013,0.870728,-0.238892,0.312500,511
38592340,9992,0.863159,-0.249634,0.325806,517
38602368,10028,0.871094,-0.259033,0.322266,517
38612329,9961,0.867798,-0.259399,0.311523,519
38622348,10019,0.858765,-0.264282,0.301392,524
38632329,9981,0.838989,-0.284668,0.276855,523
38642339,10010,0.831543,-0.284424,0.271973,525
38652334,9995,0.825439,-0.281250,0.268799,526
38662369,10035,0.821533,-0.277954,0.270020,519
38672341,9972,0.821289,-0.270508,0.272705,522
38682328,9987,0.826050,-0.265625,0.298950,519
38692346,10018,0.837158,-0.286987,0.300659,514
38702329,9983,0.839111,-0.305786,0.281128,514
38712351,10022,0.831909,-0.332031,0.290283,516
38722346,9995,0.810669,-0.319458,0.275024,514
38732332,9986,0.825928,-0.318604,0.270996,508
38742344,10012,0.831543,-0.289429,0.276001,518
38752335,9991,0.842041,-0.285889,0.282959,518
38762336,10001,0.855347,-0.287720,0.286011,513
38772346,10010,0.867310,-0.292847,0.291138,517
38782338,9992,0.881714,-0.303101,0.295044,523
38792340,10002,0.893188,-0.311523,0.303101,526
38802352,10012,0.914795,-0.322754,0.296509,528
38812349,9997,0.937134,-0.342529,0.286865,528
38822353,10004,1.001709,-0.361450,0.282959,525
38832339,9986,1.043579,-0.369995,0.288574,528
38842328,9989,1.039795,-0.368652,0.292725,538
38852352,10024,0.993652,-0.379761,0.272339,537
38862328,9976,0.988770,-0.388306,0.266724,539
38872344,10016,0.989868,-0.384399,0.274170,541
38882329,9985,0.990723,-0.376099,0.303955,539
38892353,10024,0.979736,-0.369751,0.337524,539
38902339,9986,0.964844,-0.406982,0.369873,541
38912328,9989,0.942261,-0.414673,0.349487,545
38922339,10011,0.903198,-0.421997,0.329468,540
38932332,9993,0.866943,-0.410889,0.321655,541
38942342,10010,0.839600,-0.365601,0.327148,539
38952347,10005,0.811646,-0.300659,0.343872,534
38962330,9983,0.797119,-0.281982,0.367188,521
38972338,10008,0.808472,-0.248535,0.400024,520
38982338,10000,0.836304,-0.250488,0.405640,516
38992348,10010,0.846802,-0.290649,0.406372,513
39002343,9995,0.855957,-0.331299,0.407593,515
39012332,9989,0.851929,-0.331055,0.410278,512
39022332,10000,0.849487,-0.313843,0.418335,517
39032332,10000,0.854126,-0.291016,0.426636,519
39042352,10020,0.860840,-0.269287,0.430664,520
39052331,9979,0.873413,-0.262329,0.432495,528
39062362,10031,0.885864,-0.291504,0.439087,529
39072337,9975,0.907227,-0.315186,0.440308,536
39082342,10005,0.901611,-0.325684,0.442261,532
39092331,9989,0.890259,-0.318970,0.436890,537
39102348,10017,0.873535,-0.318848,0.437500,543
39112348,10000,0.855591,-0.320313,0.437378,537
39122350,10002,0.841675,-0.288940,0.437256,530
39132334,9984,0.843262,-0.268188,0.439941,530
39142339,10005,0.848999,-0.252563,0.441895,523
39152333,9994,0.848755,-0.251465,0.441772,527
39162343,10010,0.841675,-0.263184,0.446533,524
39172329,9986,0.828491,-0.318237,0.436279,521
39182337,10008,0.811279,-0.338379,0.424316,515
39192333,9996,0.799805,-0.341919,0.412720,514
39202370,10037,0.791138,-0.333618,0.404785,513
39212336,9966,0.786743,-0.322266,0.399658,512
39222343,10007,0.784058,-0.316040,0.398560,508
39232346,10003,0.785278,-0.324219,0.394897,501
39242349,10003,0.785645,-0.330933,0.390015,500
39252326,9977,0.786011,-0.335938,0.385742,499
39262371,10045,0.788940,-0.342529,0.382690,500
39272348,9977,0.790161,-0.347656,0.378052,500
39282324,9976,0.793945,-0.345581,0.372437,498
39292334,10010,0.793457,-0.344971,0.370117,490
39302351,10017,0.794189,-0.343994,0.368530,495
39312324,9973,0.793579,-0.340942,0.365845,494
39322342,10018,0.792847,-0.334473,0.364868,498
39332753,10411,0.793213,-0.328857,0.357666,491
39342349,9596,0.841187,-0.327393,0.365479,495
39352334,9985,0.883667,-0.325806,0.385132,502
39362334,10000,0.927124,-0.344482,0.407715,508
39372345,10011,0.966919,-0.384888,0.427368,513
39382328,9983,0.986572,-0.408691,0.425049,518
39392332,10004,0.964478,-0.464111,0.401001,524
39402365,10033,0.936890,-0.470093,0.388672,526
39412329,9964,0.908813,-0.452759,0.382568,530
39422343,10014,0.887085,-0.421265,0.381226,528
39432334,9991,0.873779,-0.386597,0.380859,527
39442338,10004,0.867920,-0.350708,0.378174,523
39452348,10010,0.883911,-0.316895,0.377808,521
39462364,10016,0.904175,-0.320557,0.379517,517
39472333,9969,0.929199,-0.326050,0.379517,513
39482328,9995,0.954712,-0.321655,0.377686,507
39492333,10005,0.980469,-0.308472,0.374634,511
39502329,9996,1.000854,-0.268555,0.368774,508
39512348,10019,1.009644,-0.247437,0.364868,501
39522351,10003,1.011230,-0.232910,0.373413,504
39534554,12203,0.999023,-0.235229,0.394531,501
39542336,7782,0.990356,-0.269653,0.411011,504
39552352,10016,0.980713,-0.297363,0.382446,497
39564206,11854,0.933960,-0.320923,0.355103,507
39572350,8144,0.911743,-0.343750,0.333984,513
39582341,9991,0.898560,-0.348999,0.320923,513
39592346,10005,0.901733,-0.337402,0.318115,515
39602336,9990,0.926270,-0.322144,0.319336,515
39612343,10007,0.999512,-0.281250,0.321655,517
39622337,9994,1.033447,-0.272095,0.315186,511
39632337,10000,1.062012,-0.279053,0.302979,514
39642825,10488,1.074341,-0.289185,0.292358,512
39652335,9510,1.067139,-0.296143,0.284058,511
39662351,10016,1.069092,-0.307129,0.276978,498
39672341,9990,1.049072,-0.296753,0.279297,494
39682335,9994,1.021362,-0.278320,0.285522,497
39692344,10009,1.000854,-0.255737,0.292603,487
39702339,9995,0.980957,-0.238037,0.298340,492
39712331,9992,0.953735,-0.224609,0.305908,489
39722351,10020,0.903320,-0.205566,0.297363,496
39732338,9987,0.877319,-0.195923,0.289551,504
39742349,10011,0.852051,-0.186768,0.281982,507
39752337,9988,0.828247,-0.179443,0.275269,512
39762351,10014,0.807007,-0.171509,0.274170,521
39772345,9994,0.774292,-0.185791,0.267944,527
39782327,9982,0.767212,-0.209839,0.267822,529
39792333,10006,0.767334,-0.238037,0.268066,531
39802352,10019,0.770508,-0.266968,0.272095,533
39812351,9999,0.779907,-0.290405,0.272705,530
39822343,9992,0.789062,-0.304565,0.273804,527
39832333,9990,0.816895,-0.302734,0.273926,526
39842336,10003,0.826538,-0.291748,0.275269,522
39852330,9994,0.816406,-0.301758,0.334106,515
39862345,10015,0.847290,-0.274902,0.290527,511
39872337,9992,0.876343,-0.276123,0.289917,505
39882346,10009,1.010254,-0.351685,0.277588,501
39892341,9995,1.054199,-0.350464,0.282471,495
39902337,9996,1.059692,-0.343384,0.297852,494
39912351,10014,1.041626,-0.342896,0.313965,496
39922339,9988,0.999023,-0.346680,0.328125,493
39932332,9993,0.956055,-0.351074,0.333496,503
39942337,10005,0.864502,-0.311890,0.337524,505
39952334,9997,0.857788,-0.282349,0.345947,511
39962324,9990,0.825317,-0.265015,0.349243,512
39972348,10024,0.808105,-0.256836,0.356201,516
39982340,9992,0.798096,-0.252197,0.368042,517
39992326,9986,0.803101,-0.246094,0.371826,519
40002348,10022,0.811646,-0.247559,0.365234,530
40012336,9988,0.818848,-0.253418,0.366455,529
40022351,10015,0.828613,-0.257813,0.374878,529
40032341,9990,0.840576,-0.266357,0.389282,534
40042344,10003,0.855713,-0.300903,0.407593,539
40052346,10002,0.879639,-0.338257,0.409302,535
40062343,9997,0.888550,-0.368774,0.413208,533
40072340,9997,0.896484,-0.382202,0.427368,539
40082331,9991,0.906982,-0.379272,0.446045,533
40092332,10001,0.911743,-0.372192,0.458008,531
40102331,9999,0.928589,-0.312988,0.475464,528
40112325,9994,0.925415,-0.288208,0.465820,524
40122344,10019,0.911133,-0.277710,0.461670,521
40132340,9996,0.899658,-0.267944,0.462036,520
40142340,10000,0.892090,-0.249756,0.468750,514
40152365,10025,0.876221,-0.250610,0.467407,516
40162349,9984,0.866333,-0.257324,0.467407,510
40172332,9983,0.858887,-0.265625,0.464233,511
40182329,9997,0.849976,-0.270020,0.463379,519
40192334,10005,0.840454,-0.277588,0.463989,514
40202326,9992,0.835327,-0.293945,0.462280,522
40212337,10011,0.838013,-0.315796,0.452759,527
40222336,9999,0.839478,-0.324219,0.446167,527
40232351,10015,0.838867,-0.330322,0.446167,528
40242342,9991,0.841919,-0.334961,0.445557,532
40252332,9990,0.843018,-0.344849,0.449341,539
40262351,10019,0.845581,-0.360474,0.452148,544
40272330,9979,0.847046,-0.363159,0.454834,539
40282349,10019,0.839478,-0.356689,0.448120,547
40292333,9984,0.832031,-0.359253,0.449341,546
40302348,10015,0.836548,-0.358765,0.438965,547
40312351,10003,0.826416,-0.361938,0.441772,537
40322352,10001,0.816406,-0.368164,0.433960,544
40332337,9985,0.813354,-0.374146,0.426880,538
40342326,9989,0.808594,-0.375000,0.417969,534
40352333,10007,0.799072,-0.372070,0.408325,531
40362352,10019,0.798340,-0.373047,0.398560,528
40372350,9998,0.793579,-0.373657,0.383301,527
40382349,9999,0.793213,-0.366211,0.377441,523
40392366,10017,0.796631,-0.359619,0.372192,517
40402333,9967,0.806152,-0.356812,0.364624,514
40412345,10012,0.827026,-0.364014,0.362549,510
40422342,9997,0.859619,-0.371338,0.352173,508
40432350,10008,0.997925,-0.365112,0.368164,506
40442336,9986,1.085693,-0.350098,0.397095,507
40452337,10001,1.130981,-0.336792,0.424316,501
40462334,9997,1.124756,-0.351196,0.431396,508
40472328,9994,1.080933,-0.377441,0.420288,512
40482336,10008,0.969727,-0.387207,0.359985,512
40492331,9995,0.930054,-0.363525,0.330200,513
40502345,10014,0.901367,-0.334717,0.310547,511
40512340,9995,0.876099,-0.319092,0.297241,500
40522353,10013,0.872925,-0.303589,0.289673,502
40532347,9994,0.885742,-0.300293,0.284180,498
40542349,10002,0.913330,-0.298584,0.288574,494
40552340,9991,0.935547,-0.290405,0.297607,493
40562333,9993,0.964233,-0.290649,0.302002,486
40572328,9995,0.983276,-0.299561,0.299805,484
40582344,10016,0.996338,-0.310913,0.294800,480
40592340,9996,1.004883,-0.315552,0.281494,480
40602334,9994,1.004395,-0.311401,0.277588,478
40612349,10015,1.000122,-0.304077,0.273926,477
40622335,9986,0.991699,-0.296875,0.270630,476
40632342,10007,0.989380,-0.293579,0.270630,478
40642327,9985,1.000854,-0.285645,0.283813,480
40652353,10026,1.012451,-0.284424,0.289551,481
40662333,9980,1.025269,-0.286011,0.292847,485
40672335,10002,1.036499,-0.287842,0.292847,492
40682334,9999,1.041870,-0.293457,0.291626,498
40692346,10012,1.040527,-0.301392,0.291016,504
40702342,9996,1.027710,-0.324341,0.291992,510
40712332,9990,1.019653,-0.335449,0.293457,511
40722354,10022,1.002808,-0.331665,0.289185,517
40732351,9997,0.979858,-0.317017,0.281372,522
40742337,9986,0.952881,-0.321289,0.273438,527
40752330,9993,0.898804,-0.334595,0.266479,550
40762338,10008,0.870239,-0.324219,0.265381,532
40772352,10014,0.844238,-0.306152,0.265259,534
40783674,11322,0.819336,-0.280151,0.265137,526
40792346,8672,0.800049,-0.248047,0.265259,529
40802330,9984,0.784912,-0.226929,0.266968,527
40812324,9994,0.770264,-0.234619,0.269409,513
40822335,10011,0.770752,-0.244019,0.276855,512
40832329,9994,0.775146,-0.254639,0.281860,510
40842334,10005,0.781128,-0.273315,0.283447,502
40852328,9994,0.784546,-0.293579,0.286377,498
40862347,10019,0.793213,-0.318115,0.291748,491
40872345,9998,0.796021,-0.322021,0.291992,483
40882344,9999,0.806274,-0.330200,0.305176,475
40892324,9980,0.805054,-0.318481,0.294312,473
40902331,10007,0.824951,-0.319824,0.289795,468
40912358,10027,0.831177,-0.319336,0.296631,464
40922329,9971,0.856934,-0.310059,0.307983,457
40932341,10012,0.863770,-0.300049,0.314575,448
40942341,10000,0.880127,-0.303467,0.331055,461
40952339,9998,0.907959,-0.312134,0.352783,464
40962349,10010,0.913330,-0.312622,0.366211,468
40972331,9982,0.909668,-0.301880,0.386108,469
40982346,10015,0.947266,-0.315674,0.375732,476
40992339,9993,1.030518,-0.338745,0.362793,487
41002336,9997,1.124268,-0.360107,0.376709,497
41012336,10000,1.174438,-0.366821,0.399048,507
41022350,10014,1.093628,-0.388550,0.431152,509
41032345,9995,0.998047,-0.399292,0.432251,524
41042347,10002,0.907349,-0.394165,0.426270,530
41052336,9989,0.830566,-0.375000,0.426147,529
41062351,10015,0.775513,-0.350586,0.428711,525
41072348,9997,0.741699,-0.319214,0.437134,528
41082324,9976,0.709961,-0.258179,0.443115,520
41092331,10007,0.700928,-0.240601,0.434692,521
41102341,10010,0.702515,-0.240601,0.427490,520
41112349,10008,0.711304,-0.246094,0.416260,512
41122346,9997,0.729370,-0.256836,0.411133,515
41132352,10006,0.787476,-0.308350,0.407959,523
41142333,9981,0.819580,-0.342163,0.407715,521
41152349,10016,0.847534,-0.367188,0.415527,526
41162373,10024,0.881104,-0.379639,0.427368,528
41172351,9978,0.907959,-0.384888,0.436646,530
41182332,9981,0.921387,-0.393799,0.437866,536
41192328,9996,0.912842,-0.410034,0.429687,537
41202328,10000,0.903198,-0.392212,0.422119,539
41212338,10010,0.892822,-0.363647,0.416748,544
41222348,10010,0.881958,-0.342163,0.412598,546
41232327,9979,0.871948,-0.337280,0.409912,546
41242336,10009,0.859619,-0.318359,0.409180,545
41252328,9992,0.849365,-0.307007,0.410156,544
41262324,9996,0.842163,-0.311035,0.407349,542
41272342,10018,0.844238,-0.318848,0.408447,544
41283831,11489,0.845215,-0.323242,0.401367,538
41292353,8522,0.844482,-0.333374,0.395264,539
41302355,10002,0.838501,-0.342041,0.385742,539
41312347,9992,0.836548,-0.343750,0.383789,540
41322329,9982,0.835205,-0.348022,0.382813,542
41332330,10001,0.834839,-0.354614,0.384644,542
41342351,10021,0.837769,-0.362061,0.388184,532
41352333,9982,0.830078,-0.370972,0.393555,537
41362324,9991,0.826538,-0.373291,0.393677,534
41372350,10026,0.818481,-0.377686,0.393677,535
41382345,9995,0.811279,-0.380615,0.390991,535
41397421,15076,0.800049,-0.378906,0.386719,529
41403179,5758,0.000000,0.000000,0.000000,532
41412330,9151,0.797119,-0.372070,0.385986,530
41422333,10003,0.797974,-0.365234,0.386353,525
41432324,9991,0.796143,-0.368408,0.386597,501
41442335,10011,0.806152,-0.366943,0.385010,517
41452343,10008,0.820190,-0.361572,0.386719,520
41462336,9993,0.835815,-0.352295,0.386230,517
41472350,10014,0.839233,-0.347046,0.384155,515
41482327,9977,0.842651,-0.343628,0.384277,517
41492340,10013,0.841675,-0.343994,0.388428,515
41502345,10005,0.851807,-0.348633,0.391113,516
41512326,9981,0.861084,-0.317383,0.397827,507
41522353,10027,0.904541,-0.311401,0.394043,512
41532352,9999,0.975586,-0.317505,0.404419,503
41542325,9973,1.062500,-0.306641,0.436646,503
41552330,10005,1.101563,-0.313110,0.470825,502
41562330,10000,1.114136,-0.300659,0.500366,496
41572339,10009,1.015747,-0.328735,0.492187,493
41582342,10003,0.966431,-0.337646,0.467529,498
41592342,10000,0.911987,-0.330078,0.437134,490
41602342,10000,0.869385,-0.328125,0.430298,479
41612331,9989,0.847900,-0.326416,0.424561,472
41622335,10004,0.838135,-0.338135,0.419678,464
41632330,9995,0.845337,-0.318726,0.414429,453
41642334,10004,0.847534,-0.308716,0.399048,449
41652331,9997,0.844238,-0.302246,0.390259,447
41662340,10009,0.870972,-0.312256,0.377930,441
41672325,9985,0.889893,-0.278809,0.364868,457
41682339,10014,0.914307,-0.300293,0.356201,473
41692333,9994,0.924072,-0.341187,0.347778,472
41702344,10011,0.946289,-0.390625,0.328003,470
41712339,9995,0.916382,-0.400391,0.333130,494
41722335,9996,0.948853,-0.315918,0.354126,502
41732345,10010,0.997192,-0.215210,0.342529,502
41742333,9988,0.985107,-0.264893,0.326782,508
41752343,10010,1.004761,-0.328735,0.325562,511
41762348,10005,1.019409,-0.349854,0.325073,514
41772324,9976,1.007813,-0.347534,0.314331,508
41782325,10001,1.014648,-0.339966,0.308960,512
41793208,10883,1.013916,-0.317505,0.303955,510
41802338,9130,1.000000,-0.343506,0.295288,511
41812332,9994,0.987915,-0.373291,0.287964,512
41822342,10010,0.967773,-0.385010,0.280762,505
41832349,10007,0.943848,-0.373291,0.271729,510
41842332,9983,0.898315,-0.320801,0.263306,506
41852340,10008,0.877075,-0.300171,0.260742,510
41862348,10008,0.857300,-0.300171,0.259155,512
41872351,10003,0.844116,-0.298218,0.260010,510
41882340,9989,0.831909,-0.281494,0.258911,507
41892351,10011,0.822876,-0.262085,0.256592,511
41902326,9975,0.806396,-0.249268,0.249756,511
41912332,10006,0.802856,-0.252197,0.248291,510
41922343,10011,0.799194,-0.254883,0.248413,506
41932336,9993,0.797852,-0.254395,0.250366,503
41942340,10004,0.795776,-0.253296,0.253906,497
41952333,9993,0.790771,-0.276733,0.260010,495
41962359,10026,0.787842,-0.304077,0.263916,484
41972346,9987,0.786255,-0.330078,0.266602,482
41983851,11505,0.785156,-0.345581,0.267944,480
41992338,8487,0.785889,-0.351318,0.269775,468
42002338,10000,0.787109,-0.351196,0.265503,470
42012352,10014,0.795044,-0.336182,0.262939,471
42022341,9989,0.798584,-0.330444,0.259521,471
42032324,9983,0.806641,-0.327515,0.259521,466
42042332,10008,0.817627,-0.328003,0.261963,466
42052329,9997,0.829590,-0.330811,0.266724,473
42062348,10019,0.848633,-0.334351,0.275879,471
42072330,9982,0.872314,-0.341309,0.280151,480
42082332,10002,0.927002,-0.354736,0.276123,479
42092337,10005,0.991089,-0.365723,0.278931,493
42102337,10000,1.048828,-0.374146,0.295410,486
42112333,9996,1.089111,-0.383179,0.314941,493
42122349,10016,1.072510,-0.386475,0.321167,507
42132336,9987,1.030762,-0.384644,0.319946,514
42142340,10004,1.000488,-0.376221,0.322266,517
42152334,9994,0.972412,-0.366333,0.333130,531
42162326,9992,0.951660,-0.354370,0.357666,536
42172337,10011,0.923584,-0.324829,0.413818,539
42182328,9991,0.906372,-0.331055,0.440186,543
42192351,10023,0.890991,-0.350952,0.443115,542
42202332,9981,0.857910,-0.356934,0.433594,543
42212341,10009,0.817749,-0.355835,0.421387,541
42222351,10010,0.756470,-0.337891,0.405884,538
42232339,9988,0.740601,-0.300171,0.411987,529
42242347,10008,0.739746,-0.258911,0.422607,533
42252328,9981,0.747925,-0.239868,0.432007,531
42262352,10024,0.760620,-0.244629,0.438843,529
42272340,9988,0.779785,-0.266113,0.452881,528
42282348,10008,0.820312,-0.320190,0.466309,526
42292325,9977,0.831543,-0.329834,0.466431,520
42302338,10013,0.840576,-0.327026,0.468384,527
42312344,10006,0.854858,-0.321167,0.471069,530
42322330,9986,0.865723,-0.320313,0.470215,530
42332367,10037,0.893799,-0.328857,0.476318,534
42342342,9975,0.916016,-0.334106,0.489258,535
42352340,9998,0.927368,-0.340332,0.505981,534
42362346,10006,0.932617,-0.345825,0.518921,536
42372345,9999,0.926392,-0.351318,0.515259,536
42383394,11049,0.882812,-0.349487,0.491211,530
42392335,8941,0.873047,-0.322266,0.474854,527
42402334,9999,0.860474,-0.286255,0.459717,529
42412353,10019,0.848145,-0.266113,0.447998,532
42422351,9998,0.842896,-0.268555,0.438599,532
42432349,9998,0.840088,-0.282959,0.432617,533
42442332,9983,0.830322,-0.289307,0.433228,535
42452324,9992,0.823364,-0.289795,0.433228,532
42462341,10017,0.817871,-0.293823,0.430054,528
42472339,9998,0.818359,-0.300171,0.423706,518
42482331,9992,0.809570,-0.309937,0.413940,522
42492324,9993,0.797974,-0.316284,0.399170,520
42502351,10027,0.789673,-0.329346,0.393921,518
42512350,9999,0.788696,-0.337158,0.386475,509
42522331,9981,0.787598,-0.344971,0.384033,514
42532332,10001,0.791870,-0.350342,0.382568,509
42542366,10034,0.798828,-0.355103,0.382568,513
42552353,9987,0.812866,-0.375244,0.373169,513
42562336,9983,0.810303,-0.398438,0.363647,511
42572353,10017,0.816284,-0.419556,0.349121,511
42582347,9994,0.815552,-0.428589,0.338135,511
42592422,10075,0.815796,-0.425049,0.330566,510
42602336,9914,0.822144,-0.400879,0.325317,505
42612328,9992,0.827759,-0.392700,0.321167,506
42622329,10001,0.829224,-0.387817,0.322510,504
42632331,10002,0.834717,-0.383423,0.323364,500
42642353,10022,0.833374,-0.379028,0.321045,499
42652347,9994,0.838501,-0.378296,0.319214,497
42662335,9988,0.881226,-0.381226,0.307617,489
42672329,9994,0.947510,-0.382813,0.303345,487
42682347,10018,1.040039,-0.381104,0.318970,493
42692325,9978,1.112061,-0.374268,0.350708,495
42702337,10012,1.125488,-0.369629,0.377441,500
42712332,9995,1.017456,-0.397217,0.359375,499
42722324,9992,0.930786,-0.403076,0.326050,503
42732338,10014,0.874634,-0.386719,0.295532,501
42742342,10004,0.824829,-0.356323,0.275879,493
42752327,9985,0.798218,-0.333618,0.271240,490
42762379,10052,0.795166,-0.321045,0.274658,490
42772345,9966,0.838379,-0.320557,0.289429,487
42782335,9990,0.866455,-0.325073,0.294678,486
42792341,10006,0.890991,-0.323120,0.296509,481
42802324,9983,0.916016,-0.322754,0.297729,490
42812351,10027,0.938721,-0.325806,0.296387,487
42822324,9973,0.970825,-0.345703,0.286987,496
42832347,10023,0.988770,-0.358765,0.279297,500
42842346,9999,1.005371,-0.367920,0.275757,505
42852343,9997,1.026733,-0.374023,0.277466,508
42862338,9995,1.045776,-0.377319,0.282471,511
42872331,9993,1.058960,-0.387207,0.294312,516
42882336,10005,1.064941,-0.409302,0.308105,519
42892342,10006,1.054810,-0.412354,0.306885,524
42902343,10001,1.039795,-0.403809,0.299805,526
42912335,9992,1.023682,-0.388794,0.290039,523
42922361,10026,1.004761,-0.366699,0.280762,526
42932326,9965,0.965942,-0.329468,0.274170,524
42942348,10022,0.947266,-0.315063,0.272339,526
42952331,9983,0.929810,-0.299927,0.274536,528
42962345,10014,0.916626,-0.287720,0.279053,529
42972361,10016,0.907593,-0.280029,0.284790,525
42982343,9982,0.897827,-0.271851,0.290649,518
42992329,9986,0.879028,-0.253052,0.300537,517
43002348,10019,0.869629,-0.248657,0.308594,517
43012350,10002,0.860718,-0.249634,0.315918,509
43022327,9977,0.852905,-0.254517,0.318970,508
43032329,10002,0.840088,-0.248413,0.320557,514
43042343,10014,0.817871,-0.257446,0.317871,510
43052328,9985,0.811279,-0.264771,0.318726,511
43062353,10025,0.804199,-0.270386,0.318970,513
43072343,9990,0.798340,-0.276855,0.321411,515
43082338,9995,0.795044,-0.288574,0.321777,513
43092340,10002,0.792480,-0.298096,0.323242,508
43102344,10004,0.790405,-0.310425,0.321899,511
43112339,9995,0.791504,-0.317505,0.320679,511
43122365,10026,0.793213,-0.322144,0.317627,507
43132329,9964,0.792969,-0.324097,0.314941,509
43142337,10008,0.796997,-0.319702,0.314819,505
43152340,10003,0.805176,-0.296753,0.317139,503
43162334,9994,0.808228,-0.289917,0.319580,494
43172374,10040,0.813599,-0.288818,0.320557,497
43182336,9962,0.826416,-0.291870,0.314209,492
43192334,9998,0.873169,-0.304932,0.303345,494
43202341,10007,0.960083,-0.323853,0.316895,486
43212339,9998,1.111694,-0.343018,0.333008,483
43222345,10006,1.124878,-0.350342,0.350708,493
43232340,9995,1.096802,-0.366943,0.361450,493
43242327,9987,1.044189,-0.390747,0.359985,495
43252330,10003,0.986572,-0.404297,0.350220,503
43262337,10007,0.880371,-0.376343,0.353271,507
43272344,10007,0.844116,-0.358032,0.387817,509
43282327,9983,0.824463,-0.342651,0.405762,512
43292332,10005,0.801392,-0.326782,0.408569,511
43302347,10015,0.771606,-0.307251,0.397339,510
43312342,9995,0.747559,-0.276733,0.366577,509
43322334,9992,0.723877,-0.277344,0.359741,507
43332367,10033,0.734863,-0.268311,0.361938,507
43342328,9961,0.755737,-0.253906,0.366211,500
43352339,10011,0.786865,-0.247437,0.377686,507
43362345,10006,0.828735,-0.259033,0.392944,506
43372326,9981,0.912354,-0.360840,0.405273,507
43382335,10009,0.947632,-0.404053,0.411499,505
43392343,10008,0.971558,-0.412231,0.417725,509
43402352,10009,0.977905,-0.422729,0.419189,507
43412327,9975,0.976685,-0.428711,0.421753,508
43422340,10013,0.959473,-0.373779,0.431641,506
43432328,9988,0.948486,-0.343140,0.447021,504
43442339,10011,0.933716,-0.324097,0.455200,513
43452332,9993,0.905029,-0.324707,0.474731,514
43462332,10000,0.884888,-0.335571,0.477295,514
43472337,10005,0.858643,-0.342041,0.470825,512
43482348,10011,0.807251,-0.309937,0.455688,515
43492324,9976,0.786865,-0.281250,0.448364,515
43502347,10023,0.770386,-0.259399,0.441650,519
43512343,9996,0.769775,-0.252075,0.437134,514
43522332,9989,0.785767,-0.256226,0.435669,520
43532335,10003,0.803467,-0.266357,0.430298,527
43542348,10013,0.813232,-0.272217,0.429443,531
43552355,10007,0.827026,-0.283325,0.429810,529
43562352,9997,0.833618,-0.296387,0.427612,531
43572344,9992,0.836914,-0.315063,0.428955,537
43582331,9987,0.834229,-0.327393,0.427734,537
43592334,10003,0.825195,-0.332031,0.422119,539
43602371,10037,0.817139,-0.327271,0.415405,539
43612477,10106,0.807617,-0.321655,0.410156,537
43623041,10564,0.802368,-0.319458,0.405273,536
43632345,9304,0.797485,-0.321411,0.400635,535
43642332,9987,0.793701,-0.322754,0.395264,531
43652330,9998,0.794922,-0.325684,0.391602,530
43662334,10004,0.797485,-0.330566,0.387329,528
43672346,10012,0.802246,-0.339722,0.382202,520
43682330,9984,0.808960,-0.347534,0.375000,525
43692344,10014,0.817017,-0.356689,0.367676,521
43702347,10003,0.826904,-0.371704,0.349854,523
43712337,9990,0.829346,-0.377319,0.339722,516
43722345,10008,0.837158,-0.382446,0.331909,515
43732328,9983,0.840332,-0.387939,0.323364,518
43742333,10005,0.839966,-0.384521,0.321411,514
43752355,10022,0.881592,-0.380249,0.304688,513
43762340,9985,0.950439,-0.380371,0.306030,503
43772324,9984,1.031982,-0.373657,0.327026,511
43782344,10020,1.097900,-0.363403,0.361084,511
43792347,10003,1.117188,-0.355347,0.387207,514
43802346,9999,1.098145,-0.352661,0.386230,516
43812344,9998,0.996338,-0.371094,0.356689,520
43822352,10008,0.938477,-0.369873,0.328979,518
43832335,9983,0.893433,-0.357788,0.314453,515
43842350,10015,0.864746,-0.344360,0.311523,509
43852344,9994,0.851074,-0.330688,0.314819,504
43862346,10002,0.850708,-0.315430,0.324341,498
43872352,10006,0.859253,-0.316650,0.326172,496
43882332,9980,0.867187,-0.318359,0.325806,487
43892351,10019,0.884644,-0.317749,0.326416,489
43902345,9994,0.893433,-0.318359,0.326660,486
43912347,10002,0.900269,-0.321777,0.333496,486
43922328,9981,0.907593,-0.316406,0.338257,488
43932331,10003,0.904297,-0.310547,0.344116,491
43942353,10022,0.900513,-0.310303,0.349365,494
43952327,9974,0.896606,-0.312378,0.354004,498
43962332,10005,0.901001,-0.310303,0.357910,502
43972347,10015,0.928589,-0.297852,0.370361,507
43982352,10005,0.944580,-0.289673,0.375732,512
43992370,10018,0.954224,-0.288208,0.372925,513
44002347,9977,0.961182,-0.291992,0.366211,524
44012340,9993,0.969604,-0.298828,0.358765,522
44022344,10004,0.983765,-0.295410,0.355835,531
44032350,10006,0.984497,-0.295776,0.359985,535
44042334,9984,0.977539,-0.298096,0.361450,535
44052328,9994,0.966187,-0.300781,0.364502,533
44062336,10008,0.950195,-0.304688,0.364746,531
44072336,10000,0.932495,-0.308960,0.362915,531
44082333,9997,0.887085,-0.307251,0.352661,527
44092329,9996,0.863892,-0.300903,0.344482,522
44102350,10021,0.843872,-0.287964,0.338257,514
44112350,10000,0.825195,-0.264526,0.332886,513
44122341,9991,0.809448,-0.235229,0.328369,510
44132338,9997,0.785645,-0.221558,0.314941,507
44142329,9991,0.783569,-0.230469,0.317383,503
44152369,10040,0.790161,-0.227783,0.320068,500
44162337,9968,0.793335,-0.231079,0.318604,499
44172346,10009,0.795654,-0.255371,0.318604,492
44182354,10008,0.800293,-0.285156,0.318726,495
44192326,9972,0.801880,-0.319946,0.319092,486
44202352,10026,0.800415,-0.326172,0.319824,492
44212332,9980,0.802002,-0.324951,0.320923,489
44222328,9996,0.805298,-0.319214,0.324829,487
44232353,10025,0.813599,-0.310547,0.323120,487
44242330,9977,0.829834,-0.299438,0.321899,483
44252349,10019,0.833740,-0.296387,0.314697,485
44262339,9990,0.846680,-0.301025,0.321411,476
44272330,9991,0.842529,-0.308350,0.318848,485
44282345,10015,0.862793,-0.315186,0.315063,482
44292339,9994,0.866333,-0.323486,0.322998,486
44302335,9996,0.888672,-0.316162,0.335571,490
44312335,10000,0.890991,-0.317749,0.343994,495
44322348,10013,0.905762,-0.325195,0.351563,503
44332325,9977,0.915283,-0.339111,0.342529,510
44342342,10017,0.959961,-0.358643,0.335327,515
44352365,10023,1.099121,-0.380737,0.351074,517
44362331,9966,1.117432,-0.380005,0.362915,528
44372337,10006,1.099243,-0.383057,0.368042,527
44382352,10015,1.061157,-0.386230,0.368530,544
44392336,9984,1.011230,-0.385132,0.365967,541
44402379,10043,0.958252,-0.375854,0.368652,546
44412330,9951,0.854980,-0.350098,0.372437,542
44422348,10018,0.821655,-0.338257,0.375977,538
44432346,9998,0.800171,-0.327271,0.383423,536
44442342,9996,0.783813,-0.315308,0.389648,534
44452345,10003,0.769165,-0.302490,0.393311,530
44462346,10001,0.753540,-0.278687,0.390015,528
44472337,9991,0.758423,-0.271851,0.383911,524
44482336,9999,0.767822,-0.274292,0.376221,517
44492351,10015,0.777100,-0.294556,0.368408,527
44502333,9982,0.788818,-0.332275,0.368530,525
44512337,10004,0.811890,-0.404907,0.372559,523
44522340,10003,0.861084,-0.398682,0.365967,527
44532353,10013,0.884766,-0.420532,0.370483,524
44542350,9997,0.907959,-0.433350,0.377197,523
44552341,9991,0.920288,-0.422485,0.386719,520
44562345,10004,0.925293,-0.382080,0.397217,519
44572328,9983,0.912109,-0.317993,0.393677,515
44582336,10008,0.913696,-0.318359,0.400391,515
44592333,9997,0.907593,-0.306152,0.408569,510
44602343,10010,0.893555,-0.289429,0.420410,515
44612333,9990,0.873047,-0.282104,0.424805,515
44622350,10017,0.818726,-0.287476,0.418579,513
44632334,9984,0.808105,-0.288086,0.415161,515
44642348,10014,0.796875,-0.292358,0.415161,518
44652327,9979,0.790649,-0.299316,0.416504,520
44662347,10020,0.788696,-0.307861,0.412720,523
44672342,9995,0.791138,-0.319824,0.408081,523
44682336,9994,0.812378,-0.344727,0.395752,525
44692333,9997,0.821655,-0.353516,0.392822,526
44702354,10021,0.833252,-0.362427,0.394531,522
44712349,9995,0.843262,-0.368652,0.395630,524
44722336,9987,0.850220,-0.370972,0.398926,527
44732332,9996,0.850098,-0.365967,0.403442,523
44742340,10008,0.844727,-0.358276,0.404907,521
44752336,9996,0.836304,-0.348755,0.406128,520
44762340,10004,0.827759,-0.341797,0.407227,511
44772339,9999,0.819946,-0.336548,0.406006,515
44782340,10001,0.813599,-0.334839,0.404419,511
44792326,9986,0.806641,-0.342896,0.399780,508
44802340,10014,0.802002,-0.352173,0.392090,510
44812341,10001,0.796143,-0.357788,0.387939,511
44822324,9983,0.797241,-0.361938,0.382446,510
44832336,10012,0.799194,-0.362915,0.378906,512
44842335,9999,0.818115,-0.355835,0.370972,511
44852331,9996,0.843750,-0.358765,0.370728,513
44862335,10004,0.884521,-0.364258,0.369385,509
44872325,9990,0.950806,-0.379639,0.371338,511
44882338,10013,1.055420,-0.387085,0.390503,516
44892336,9998,1.140747,-0.373535,0.427124,520
44902331,9995,1.106812,-0.378662,0.453125,517
44912334,10003,1.032349,-0.394653,0.428467,518
44922336,10002,0.966187,-0.393555,0.389160,526
44932344,10008,0.909180,-0.385376,0.360352,514
44942330,9986,0.872070,-0.371826,0.347656,516
44952352,10022,0.850830,-0.332520,0.339478,510
44962336,9984,0.855225,-0.310791,0.341797,498
44972339,10003,0.862671,-0.297485,0.346802,492
44982327,9988,0.868652,-0.296753,0.352783,489
44992356,10029,0.877808,-0.300415,0.355835,482
45002350,9994,0.888428,-0.315796,0.350830,474
45012328,9978,0.909668,-0.316528,0.332886,475
45022354,10026,0.913086,-0.325928,0.318848,471
45032354,10000,0.918823,-0.345093,0.308960,479
45042351,9997,0.921509,-0.359497,0.303223,480
45052349,9998,0.922974,-0.362793,0.305786,478
45062349,10000,0.930054,-0.353271,0.314209,482
45072345,9996,0.928101,-0.349609,0.311646,493
45082343,9998,0.929321,-0.340210,0.306763,491
45092334,9991,0.928833,-0.327881,0.297852,501
45102335,10001,0.929687,-0.315308,0.290039,509
45112328,9993,0.926514,-0.310059,0.277222,514
45122343,10015,0.915039,-0.319824,0.271362,522
45132347,10004,0.908325,-0.325562,0.266968,531
45142327,9980,0.902954,-0.334595,0.260376,535
45152343,10016,0.896118,-0.344727,0.247314,546
45162345,10002,0.894775,-0.350220,0.237671,547
45172350,10005,0.921997,-0.340576,0.233398,550
45182348,9998,0.948975,-0.332642,0.241943,546
45192350,10002,0.975342,-0.332031,0.252563,541
45202330,9980,0.993896,-0.328979,0.263550,546
45212364,10034,0.999146,-0.320435,0.272583,540
45222347,9983,0.997314,-0.315552,0.271729,542
45232350,10003,0.967407,-0.333984,0.261475,533
45242326,9976,0.945435,-0.341797,0.250122,534
45252331,10005,0.923462,-0.341187,0.243408,528
45262355,10024,0.905518,-0.336426,0.241089,523
45272333,9978,0.888184,-0.329590,0.243164,520
45282331,9998,0.858643,-0.312988,0.242310,511
45292327,9996,0.845825,-0.310059,0.242554,506
45302325,9998,0.835815,-0.308350,0.242187,505
45312347,10022,0.828247,-0.307495,0.241333,493
45322344,9997,0.820435,-0.304565,0.243652,493
45332327,9983,0.817871,-0.317871,0.249023,490
45342338,10011,0.824097,-0.331909,0.244019,482
45352328,9990,0.801514,-0.330078,0.235962,485
45362334,10006,0.817871,-0.311890,0.240845,480
45372328,9994,0.820557,-0.301880,0.244995,479
45382332,10004,0.814209,-0.298706,0.247681,473
45392349,10017,0.820190,-0.275391,0.267212,471
45402343,9994,0.825806,-0.284668,0.279297,469
45412336,9993,0.834961,-0.299927,0.297119,470
45422325,9989,0.861694,-0.308838,0.306885,467
45432338,10013,0.904785,-0.317505,0.307495,467
45442333,9995,1.008667,-0.344360,0.319458,478
45452342,10009,1.037476,-0.356201,0.330566,481
45462349,10007,1.033203,-0.369507,0.321167,488
45472327,9978,1.029663,-0.387939,0.318970,489
45482328,10001,0.995728,-0.388916,0.320435,496
45492339,10011,0.939697,-0.370850,0.325928,507
45502332,9993,0.835449,-0.334717,0.344238,505
45512332,10000,0.799194,-0.326294,0.343872,518
45522345,10013,0.767456,-0.305542,0.344604,522
45532324,9979,0.743652,-0.273804,0.343018,521
45544763,12439,0.698120,-0.225220,0.351318,523
45552395,7632,0.000000,0.000000,0.000000,516
45562332,9937,0.678467,-0.232544,0.355713,526
45572340,10008,0.703735,-0.252686,0.354858,519
45582337,9997,0.753418,-0.279297,0.360596,528
45592350,10013,0.810425,-0.317871,0.376709,530
45602331,9981,0.865112,-0.347656,0.408081,525
45612341,10010,0.967773,-0.362427,0.448975,528
45622339,9998,0.988037,-0.391113,0.448120,527
45632333,9994,0.998047,-0.421753,0.444580,533
45642351,10018,0.991577,-0.431030,0.446533,532
45652325,9974,0.976318,-0.421753,0.454834,536
45662379,10054,0.936279,-0.362305,0.474243,545
45672358,9979,0.921021,-0.320068,0.478149,543
45682340,9982,0.905884,-0.299927,0.476562,544
45692334,9994,0.881592,-0.284180,0.477173,543
45702341,10007,0.863647,-0.280273,0.480469,539
45712327,9986,0.851440,-0.282593,0.519775,540
45722341,10014,0.842163,-0.293457,0.503906,530
45732348,10007,0.847168,-0.307007,0.505249,530
45742343,9995,0.848755,-0.322510,0.505859,529
45752347,10004,0.849854,-0.317383,0.503052,530
45762329,9982,0.845337,-0.321533,0.495361,528
45772340,10011,0.854004,-0.329224,0.492310,531
45782338,9998,0.848145,-0.342041,0.487915,531
45792330,9992,0.838135,-0.356079,0.482666,529
45802345,10015,0.841431,-0.364502,0.479980,529
45812336,9991,0.838989,-0.363892,0.477295,530
45822348,10012,0.832031,-0.353760,0.470459,523
45832333,9985,0.828491,-0.353638,0.465088,514
45842338,10005,0.825073,-0.352051,0.454956,516
45852337,9999,0.820801,-0.348633,0.446777,510
45862345,10008,0.817871,-0.338867,0.433960,510
45872380,10035,0.813843,-0.331299,0.423584,502
45882340,9960,0.813721,-0.337891,0.404419,500
45892325,9985,0.817139,-0.339600,0.398071,490
45902341,10016,0.822998,-0.335815,0.392090,495
45912327,9986,0.826782,-0.329712,0.383057,495
45922342,10015,0.831421,-0.331055,0.373535,488
45932330,9988,0.852173,-0.344360,0.358765,493
45942324,9994,0.946045,-0.344238,0.367554,491
45952337,10013,0.968262,-0.344482,0.375244,500
45964555,12218,0.975098,-0.354736,0.381104,505
45974310,9755,0.967407,-0.363892,0.346191,506
45982348,8038,0.955078,-0.377930,0.364380,513
45992326,9978,0.938599,-0.374756,0.352295,515
46002330,10004,0.921631,-0.361084,0.354492,522
46012342,10012,0.909058,-0.356812,0.347778,522
46022338,9996,0.898926,-0.360596,0.333130,520
46032348,10010,0.887817,-0.362671,0.318237,525
46042328,9980,0.882935,-0.354736,0.302124,516
46052345,10017,0.890137,-0.340576,0.299683,519
46062348,10003,0.898926,-0.324097,0.297119,517
46072324,9976,0.912842,-0.310059,0.292725,510
46082331,10007,0.927002,-0.302368,0.287354,506
46092331,10000,0.935913,-0.299438,0.284790,509
46102330,9999,0.940430,-0.296509,0.297485,499
46112342,10012,0.938721,-0.304810,0.302612,501
46122347,10005,0.932129,-0.308594,0.303955,499
46132343,9996,0.916260,-0.305298,0.306519,489
46142350,10007,0.901978,-0.298462,0.309692,495
46152342,9992,0.869019,-0.282104,0.302368,495
46162352,10010,0.852295,-0.267334,0.296997,494
46172333,9981,0.849365,-0.258179,0.292603,491
46182342,10009,0.843262,-0.244873,0.288696,501
46192325,9983,0.866089,-0.232788,0.291626,502
46202324,9999,0.883911,-0.237671,0.293213,504
46212347,10023,0.910889,-0.267456,0.309082,507
46222335,9988,0.931519,-0.281982,0.318726,504
46232340,10005,0.947876,-0.303955,0.327148,511
46242333,9993,0.960205,-0.328735,0.330322,512
46252351,10018,0.968140,-0.342163,0.328125,513
46262326,9975,0.968140,-0.333740,0.314209,521
46272328,10002,0.966309,-0.331787,0.307373,519
46282330,10002,0.965698,-0.329956,0.304443,524
46292349,10019,0.965088,-0.327759,0.304810,528
46302346,9997,0.955444,-0.325317,0.311401,527
46312338,9992,0.937378,-0.324341,0.317505,526
46322354,10016,0.900513,-0.326904,0.311035,520
46332337,9983,0.877563,-0.320190,0.303833,524
46342345,10008,0.858765,-0.307495,0.301147,522
46352348,10003,0.840820,-0.293457,0.299805,516
46362347,9999,0.819214,-0.276001,0.299194,521
46372333,9986,0.797363,-0.258667,0.304443,523
46382346,10013,0.796631,-0.268677,0.308228,519
46392353,10007,0.815063,-0.291870,0.312744,519
46402331,9978,0.809570,-0.286743,0.312622,515
46412324,9993,0.801636,-0.275879,0.318726,517
46422331,10007,0.811523,-0.289063,0.314209,510
46432334,10003,0.817261,-0.323486,0.315308,511
46442339,10005,0.823608,-0.326660,0.317505,508
46452349,10010,0.835571,-0.329468,0.316650,504
46462333,9984,0.841431,-0.325439,0.317505,499
46472336,10003,0.848389,-0.322021,0.319336,492
46482324,9988,0.847290,-0.322266,0.322144,492
46492352,10028,0.833984,-0.321289,0.323242,488
46502352,10000,0.845947,-0.323486,0.315186,481
46512337,9985,0.912354,-0.332397,0.309082,480
46522353,10016,1.006348,-0.343262,0.320679,482
46532352,9999,1.074097,-0.368652,0.330078,483
46542331,9979,1.081177,-0.383667,0.320435,487
46552341,10010,1.036987,-0.388062,0.306030,491
46562335,9994,0.982666,-0.378296,0.297607,493
46572343,10008,0.929321,-0.352173,0.303833,503
46585391,13048,0.864502,-0.299927,0.329590,507
46592350,6959,0.854126,-0.288208,0.336060,510
46602352,10002,0.846802,-0.284790,0.340332,514
46612338,9986,0.830200,-0.290039,0.344360,517
46622327,9989,0.819214,-0.294678,0.348267,522
46632325,9998,0.805542,-0.290894,0.342896,527
46642348,10023,0.784790,-0.267456,0.339966,532
46652340,9992,0.781738,-0.260864,0.342285,530
46662335,9995,0.781006,-0.267212,0.359497,536
46672333,9998,0.791870,-0.302124,0.379883,535
46682357,10024,0.808350,-0.344482,0.391724,528
46692343,9986,0.824341,-0.361938,0.393799,521
46702338,9995,0.855835,-0.400513,0.388306,528
46712348,10010,0.872925,-0.409668,0.395752,520
46722349,10001,0.891113,-0.395630,0.409546,522
46732339,9990,0.900269,-0.358398,0.425903,518
46742333,9994,0.906006,-0.321045,0.440674,515
46752326,9993,0.898804,-0.306641,0.445801,523
46762327,10001,0.888306,-0.318237,0.449341,520
46772331,10004,0.877319,-0.326416,0.456055,528
46782344,10013,0.864014,-0.335938,0.461914,533
46792329,9985,0.849487,-0.343994,0.465942,535
46802343,10014,0.835083,-0.341431,0.465576,534
46812341,9998,0.820557,-0.315674,0.458862,541
46822339,9998,0.822266,-0.304932,0.453125,541
46832326,9987,0.823730,-0.299316,0.446411,553
46842348,10022,0.830078,-0.307129,0.437256,552
46852352,10004,0.836060,-0.321777,0.432251,556
46862347,9995,0.857788,-0.367554,0.432739,557
46872348,10001,0.863770,-0.387939,0.423584,560
46882355,10007,0.863403,-0.394897,0.418701,559
46892325,9970,0.859131,-0.380615,0.418457,557
46902336,10011,0.854980,-0.366089,0.419189,551
46912327,9991,0.846680,-0.365601,0.419434,550
46922328,10001,0.836914,-0.359009,0.428833,545
46932324,9996,0.830444,-0.344360,0.428833,540
46942344,10020,0.826660,-0.339966,0.427490,534
46952351,10007,0.821045,-0.341797,0.425415,521
46962336,9985,0.817017,-0.343262,0.418701,522
46972342,10006,0.808838,-0.348633,0.407715,514
46982328,9986,0.809082,-0.354126,0.402466,514
46992348,10020,0.809326,-0.366333,0.394653,511
47002343,9995,0.812134,-0.385498,0.390259,508
47012346,10003,0.816162,-0.401001,0.387573,502
47022346,10000,0.821533,-0.411987,0.375854,509
47032368,10022,0.835571,-0.406616,0.370728,504
47042332,9964,0.853760,-0.403931,0.368286,506
47052344,10012,0.881714,-0.406860,0.365112,508
47062346,10002,0.927490,-0.410034,0.364868,507
47072329,9983,0.989746,-0.411377,0.380249,508
47082352,10023,1.069214,-0.410156,0.422852,511
47092345,9993,1.058594,-0.418579,0.431519,508
47102340,9995,1.021973,-0.429932,0.418945,512
47112340,10000,0.981323,-0.437378,0.395752,513
47122325,9985,0.939331,-0.425171,0.375732,509
47132342,10017,0.883423,-0.384888,0.369873,509
47142335,9993,0.890259,-0.385132,0.372192,512
47152349,10014,0.889648,-0.379150,0.368408,503
47162325,9976,0.886963,-0.377075,0.362305,506
47172333,10008,0.888916,-0.380371,0.357544,505
47182351,10018,0.893433,-0.377075,0.355591,501
47192348,9997,0.899536,-0.334106,0.351563,499
47202333,9985,0.901245,-0.312988,0.349609,499
47212326,9993,0.901855,-0.300171,0.345581,500
47222331,10005,0.892822,-0.296265,0.342529,498
47232364,10033,0.885132,-0.298584,0.344604,500
47242326,9962,0.865601,-0.310547,0.346313,499
47252338,10012,0.856079,-0.313110,0.347656,499
47262327,9989,0.857300,-0.312744,0.343384,499
47272334,10007,0.860107,-0.310791,0.337769,493
47282358,10024,0.869263,-0.308350,0.332031,495
47292351,9993,0.887329,-0.305908,0.327026,502
47302325,9974,0.933472,-0.321289,0.322021,497
47312342,10017,0.957397,-0.336182,0.317017,503
47322330,9988,0.978516,-0.348267,0.313843,504
47332339,10009,0.997070,-0.355225,0.308838,499
47342345,10006,1.001953,-0.356201,0.303101,501
47352333,9988,0.992310,-0.351318,0.295044,501
47362345,10012,0.975952,-0.345215,0.293823,501
47373091,10746,0.956299,-0.335693,0.297119,500
47382350,9259,0.933350,-0.322266,0.301392,498
47392346,9996,0.911011,-0.306274,0.301880,497
47404844,12498,0.865356,-0.278076,0.301392,497
47412325,7481,0.845215,-0.270264,0.296753,496
47422339,10014,0.826416,-0.266846,0.287598,500
47432331,9992,0.809937,-0.265747,0.278198,503
47442345,10014,0.795532,-0.264526,0.271362,499
47452328,9983,0.786133,-0.264648,0.270874,508
47462336,10008,0.784058,-0.271973,0.273804,512
47472381,10045,0.787964,-0.283325,0.277100,511
47482326,9945,0.793701,-0.297363,0.279175,516
47492343,10017,0.797119,-0.309448,0.279053,514
47502324,9981,0.800537,-0.321167,0.280151,512
47512351,10027,0.799194,-0.327515,0.279297,506
47522330,9979,0.803223,-0.325806,0.278198,510
47532341,10011,0.811035,-0.324829,0.276733,508
47542351,10010,0.822754,-0.314941,0.271118,505
47552329,9978,0.816650,-0.316772,0.278076,507
47562324,9995,0.852295,-0.313843,0.274170,503
47572350,10026,0.862671,-0.304077,0.278442,500
47582327,9977,0.874390,-0.309082,0.293701,501
47592348,10021,0.888794,-0.316528,0.307495,504
47602348,10000,0.899048,-0.325195,0.325806,498
47612352,10004,0.908813,-0.334229,0.341431,506
47622337,9985,0.919434,-0.356567,0.330933,508
47632356,10019,1.008179,-0.369629,0.316040,511
47642354,9998,1.061768,-0.371826,0.314575,524
47652328,9974,1.079224,-0.365723,0.330811,533
47662334,10006,1.073242,-0.367676,0.348999,531
47672342,10008,1.056885,-0.385132,0.358765,547
47682330,9988,1.004028,-0.431152,0.380005,543
47692350,10020,0.960327,-0.432373,0.388184,552
47703623,11273,0.917725,-0.420532,0.395996,553
47712339,8716,0.867554,-0.408569,0.394531,554
47722343,10004,0.820190,-0.383301,0.388184,550
47732328,9985,0.751221,-0.313110,0.391357,542
47742354,10026,0.729736,-0.294800,0.408447,539
47752337,9983,0.721191,-0.280273,0.429932,538
47762345,10008,0.723877,-0.268799,0.444214,533
47772338,9993,0.730713,-0.269287,0.456421,532
47782324,9986,0.738037,-0.292236,0.461792,528
47792334,10010,0.748901,-0.371582,0.449219,528
47802342,10008,0.748413,-0.391235,0.443604,528
47812327,9985,0.753174,-0.391846,0.441284,527
47822345,10018,0.760620,-0.384766,0.443359,522
47832347,10002,0.779663,-0.374146,0.453857,523
47842343,9996,0.835693,-0.350830,0.485718,523
47852325,9982,0.859131,-0.358032,0.500854,522
47862334,10009,0.873413,-0.376709,0.506226,521
47872327,9993,0.879883,-0.398682,0.506836,522
47882357,10030,0.884277,-0.413452,0.505859,519
47892353,9996,0.879639,-0.415649,0.498535,523
47902330,9977,0.870361,-0.418823,0.491333,515
47912324,9994,0.869019,-0.406128,0.488770,517
47922348,10024,0.867920,-0.386353,0.485107,521
47932341,9993,0.865112,-0.369995,0.480347,519
47942348,10007,0.857788,-0.358643,0.472290,518
47952336,9988,0.843872,-0.358276,0.446655,517
47962335,9999,0.836914,-0.358887,0.436646,515
47972345,10010,0.828125,-0.358521,0.430420,513
47982328,9983,0.820801,-0.363037,0.431152,511
47992352,10024,0.817017,-0.367188,0.432617,507
48002336,9984,0.811768,-0.361450,0.432983,506
48012331,9995,0.803101,-0.343262,0.429077,489
48022340,10009,0.802368,-0.340088,0.422729,504
48032367,10027,0.803833,-0.340454,0.423218,501
48042343,9976,0.809814,-0.350220,0.423706,502
48052333,9990,0.811157,-0.363403,0.417969,500
48062352,10019,0.821167,-0.383179,0.412842,504
48072368,10016,0.825928,-0.380127,0.412598,501
48082342,9974,0.829590,-0.373413,0.414551,502
48092353,10011,0.833618,-0.364014,0.413452,499
48102344,9991,0.838867,-0.353271,0.410278,501
48112352,10008,0.844116,-0.312622,0.404907,503
48122331,9979,0.850830,-0.336182,0.404541,496
48132329,9998,0.852539,-0.333374,0.405396,498
48142332,10003,0.849731,-0.331177,0.405762,504
48152344,10012,0.845093,-0.330078,0.405762,504
48162344,10000,0.840332,-0.331055,0.403076,503
48172334,9990,0.820923,-0.331787,0.394165,505
48182350,10016,0.807251,-0.325317,0.388550,504
48192354,10004,0.799805,-0.319458,0.381836,506
48202326,9972,0.774170,-0.311157,0.373779,505
48212325,9999,0.772949,-0.292358,0.370361,506
48222370,10045,0.808105,-0.296021,0.349854,507
48232352,9982,0.884521,-0.298340,0.352905,509
48242341,9989,0.975952,-0.288208,0.378540,512
48252335,9994,1.022461,-0.282471,0.404541,510
48262361,10026,1.026978,-0.298584,0.418457,521
48272346,9985,1.015991,-0.331055,0.421997,527
48282328,9982,0.962158,-0.353271,0.399536,536
48292345,10017,0.917480,-0.345215,0.384766,536
48302344,9999,0.874023,-0.325684,0.370117,547
48312329,9985,0.836792,-0.303833,0.360596,551
48322351,10022,0.812500,-0.287354,0.357178,545
48332351,10000,0.797241,-0.270996,0.369263,548
48342330,9979,0.797241,-0.266602,0.374023,539
48352344,10014,0.799683,-0.267944,0.373047,537
48362328,9984,0.805420,-0.268921,0.363281,543
48372347,10019,0.817261,-0.264771,0.349487,541
48382346,9999,0.837280,-0.261108,0.335571,540
48392353,10007,0.908325,-0.272339,0.321777,540
48402352,9999,0.956909,-0.290039,0.320068,537
48412334,9982,1.006958,-0.310425,0.325806,538
48422367,10033,1.057983,-0.337036,0.329590,532
48432353,9986,1.091064,-0.369629,0.333252,530
48442348,9995,1.093994,-0.414185,0.340698,529
48452371,10023,1.067627,-0.411377,0.330933,528
48462342,9971,1.022583,-0.415649,0.310669,522
48472345,10003,0.978394,-0.421631,0.288940,524
48482337,9992,0.929810,-0.409912,0.273682,521
48492351,10014,0.894775,-0.377075,0.267334,518
48502334,9983,0.859009,-0.298096,0.266724,518
48512342,10008,0.856934,-0.290283,0.267456,514
48522344,10002,0.861572,-0.295288,0.270996,513
48532339,9995,0.867798,-0.286011,0.270874,509
48542324,9985,0.874023,-0.277222,0.267334,506
48552332,10008,0.877441,-0.274780,0.256104,507
48562339,10007,0.874268,-0.277954,0.256470,507
48572354,10015,0.867065,-0.275391,0.246460,502
48582338,9984,0.850220,-0.298584,0.250366,495
48592345,10007,0.853394,-0.318848,0.251953,494
48602351,10006,0.834106,-0.340210,0.259521,489
48612353,10002,0.820190,-0.347412,0.267090,483
48622360,10007,0.807739,-0.342651,0.272217,479
48632352,9992,0.801392,-0.340576,0.271118,470
48642334,9982,0.804321,-0.333130,0.269165,467
48652348,10014,0.805786,-0.323853,0.266602,467
48662330,9982,0.817993,-0.312378,0.261353,466
48672335,10005,0.831543,-0.321899,0.261353,474
48682330,9995,0.844849,-0.336182,0.265991,472
48692347,10017,0.855835,-0.346191,0.267578,474
48702342,9995,0.873169,-0.354126,0.272339,474
48712352,10010,0.885498,-0.367676,0.283325,478
48722343,9991,0.905518,-0.376343,0.286621,478
48732335,9992,0.912109,-0.383057,0.286377,474
48742352,10017,0.915039,-0.383667,0.286255,477
48752351,9999,0.914917,-0.381714,0.286987,486
48762336,9985,0.915649,-0.379761,0.287354,490
48772338,10002,0.921753,-0.390747,0.286743,494
48782339,10001,0.925049,-0.400513,0.279297,499
48792333,9994,0.919678,-0.406738,0.281494,498
48802346,10013,0.914307,-0.392822,0.288086,512
48812335,9989,0.904297,-0.365967,0.297729,522
48822336,10001,0.942383,-0.373291,0.325073,533
48832326,9990,1.009033,-0.412720,0.328613,545
48842345,10019,1.069458,-0.446045,0.346924,556
48852343,9998,1.069214,-0.453613,0.370972,567
48862354,10011,1.000488,-0.450073,0.382324,576
48872346,9992,0.921631,-0.449097,0.377319,580
48882347,10001,0.845459,-0.441895,0.366089,579
48892331,9984,0.851807,-0.435059,0.384033,576
48902334,10003,0.863159,-0.429565,0.403809,567
48912348,10014,0.860107,-0.424805,0.414062,564
48922329,9981,0.851807,-0.420044,0.411499,553
48932324,9995,0.847412,-0.405151,0.389526,545
48942335,10011,0.846680,-0.392944,0.378540,536
48952345,10010,0.846924,-0.382446,0.372070,522
48962331,9986,0.845459,-0.375244,0.367310,519
48972333,10002,0.842041,-0.372437,0.366577,510
48982343,10010,0.840942,-0.381958,0.378784,500
48992349,10006,0.827026,-0.424438,0.391357,491
49002350,10001,0.812622,-0.415894,0.387207,483
49012349,9999,0.806641,-0.383911,0.386475,478
49022366,10017,0.815430,-0.335205,0.390625,473
49032327,9961,0.831299,-0.285522,0.400146,472
49042341,10014,0.862427,-0.244873,0.424072,477
49052337,9996,0.867432,-0.264526,0.425781,479
49062343,10006,0.881836,-0.310303,0.433105,491
49072340,9997,0.886963,-0.320923,0.444824,495
49082339,9999,0.896240,-0.327026,0.458984,499
49092327,9988,0.888550,-0.317261,0.499634,507
49102324,9997,0.864380,-0.314941,0.477051,511
49112324,10000,0.843262,-0.325195,0.472900,521
49122352,10028,0.830322,-0.300659,0.467285,526
49132340,9988,0.810303,-0.309814,0.455200,530
49142330,9990,0.798706,-0.301270,0.442505,534
49152343,10013,0.796265,-0.279297,0.433716,531
49162342,9999,0.809937,-0.282349,0.432983,540
49172342,10000,0.823853,-0.291626,0.431152,538
49182345,10003,0.835571,-0.302246,0.425903,533
49192354,10009,0.846313,-0.305542,0.423950,537
49202344,9990,0.850464,-0.304321,0.417236,535
49212354,10010,0.856934,-0.296143,0.414551,525
49222330,9976,0.859985,-0.283936,0.408691,527
49232350,10020,0.860596,-0.273926,0.405273,526
49242336,9986,0.863770,-0.274536,0.399658,516
49252332,9996,0.863647,-0.281494,0.394775,512
49262330,9998,0.860352,-0.290527,0.387939,514
49272340,10010,0.858398,-0.294434,0.385376,507
49282325,9985,0.856934,-0.305176,0.383667,503
49292345,10020,0.851807,-0.312500,0.379883,502
49302327,9982,0.846313,-0.316284,0.372803,493
49312353,10026,0.840454,-0.304077,0.353394,497
49322347,9994,0.824097,-0.296509,0.346069,497
49332335,9988,0.815308,-0.294067,0.340210,491
49342335,10000,0.808960,-0.289185,0.336182,496
49352347,10012,0.803833,-0.286865,0.335449,494
49362336,9989,0.804687,-0.284668,0.332886,495
49372340,10004,0.816528,-0.297363,0.339233,494
49382330,9990,0.846558,-0.309814,0.331421,491
49392340,10010,0.925171,-0.327515,0.329346,495
49402325,9985,0.996216,-0.327271,0.355591,494
49412352,10027,1.000244,-0.320068,0.380737,504
49422353,10001,0.927856,-0.357422,0.358521,508
49432340,9987,0.940430,-0.366577,0.343872,516
49442333,9993,0.945679,-0.352051,0.339844,517
49452343,10010,0.937744,-0.318848,0.343018,519
49462331,9988,0.916748,-0.315186,0.348022,526
49472344,10013,0.902222,-0.312622,0.351440,533
49482343,9999,0.885132,-0.294434,0.333496,536
49492327,9984,0.875122,-0.277344,0.331421,538
49502328,10001,0.862915,-0.279663,0.338867,533
49512337,10009,0.854736,-0.291870,0.337646,535
49522338,10001,0.845215,-0.297729,0.337769,525
49532336,9998,0.826050,-0.294556,0.332886,525
49542342,10006,0.815552,-0.291382,0.332275,520
49552346,10004,0.803833,-0.286743,0.328491,516
49562349,10003,0.797485,-0.284302,0.323975,508
49572332,9983,0.798340,-0.286743,0.321045,507
49582343,10011,0.814209,-0.295044,0.321045,502
49592345,10002,0.873779,-0.323853,0.327515,502
49602336,9991,0.905884,-0.339844,0.327759,497
49612330,9994,0.931763,-0.358154,0.323364,492
49622327,9997,0.954956,-0.376343,0.317383,489
49632337,10010,0.977783,-0.391724,0.311157,495
49642341,10004,1.013550,-0.397583,0.304443,495
49652339,9998,1.029419,-0.398193,0.302612,496
49662339,10000,1.040161,-0.398682,0.302002,495
49672346,10007,1.046875,-0.400879,0.303101,496
49682351,10005,1.046265,-0.397095,0.304810,493
49692347,9996,1.036133,-0.385864,0.307007,499
49702331,9984,0.994507,-0.353638,0.298462,499
49712326,9995,0.967896,-0.334595,0.292480,504
49722336,10010,0.936768,-0.315674,0.284546,510
49732351,10015,0.907104,-0.299805,0.280029,512
49742344,9993,0.881592,-0.288818,0.279053,509
49752351,10007,0.839233,-0.292847,0.275146,516
49762329,9978,0.823120,-0.299927,0.273804,514
49772327,9998,0.813232,-0.305298,0.275269,517
49782348,10021,0.808472,-0.305786,0.276978,520
49792345,9997,0.806885,-0.305176,0.282104,516
49802349,10004,0.808838,-0.308228,0.284058,521
49812338,9989,0.810425,-0.326172,0.284668,513
49822351,10013,0.815063,-0.335815,0.284912,513
49832326,9975,0.819580,-0.344238,0.282227,517
49842332,10006,0.825317,-0.349365,0.280762,507
49852370,10038,0.832642,-0.354370,0.277832,511
49862349,9979,0.851807,-0.368408,0.278564,508
49872346,9997,0.864746,-0.374023,0.277710,508
49882332,9986,0.876343,-0.375977,0.275269,503
49892339,10007,0.887817,-0.380127,0.275024,501
49902332,9993,0.899658,-0.378540,0.274292,492
49912326,9994,0.909180,-0.344360,0.273926,500
49922324,9998,0.918823,-0.375854,0.275146,495
49932337,10013,0.916504,-0.373535,0.275146,493
49942347,10010,0.911255,-0.370728,0.278320,494
49952338,9991,0.917358,-0.370728,0.274170,493
49962349,10011,0.973633,-0.383057,0.270020,498
49972339,9990,1.080811,-0.395508,0.305908,502
49982342,10003,1.040894,-0.392578,0.321899,507
49992330,9988,0.977417,-0.408325,0.324707,511
50002344,10014,0.930542,-0.435425,0.318604,517
50012336,9992,0.907715,-0.442017,0.311279,521
50022345,10009,0.900391,-0.398682,0.338623,523
50032352,10007,0.897217,-0.389282,0.358765,524
50042343,9991,0.872559,-0.388184,0.377075,524
50052329,9986,0.859375,-0.398071,0.382446,528
50062343,10014,0.833496,-0.407471,0.384033,524
50072340,9997,0.804932,-0.412476,0.386963,529
50082354,10014,0.752441,-0.414917,0.381226,522
50092326,9972,0.740723,-0.410522,0.383911,522
50102368,10042,0.731689,-0.398560,0.399292,518
50112329,9961,0.725342,-0.387085,0.414429,515
50122330,10001,0.716675,-0.378784,0.427734,512
50132325,9995,0.722168,-0.358521,0.430786,509
50142331,10006,0.768799,-0.346191,0.430054,501
50152343,10012,0.814087,-0.333374,0.433716,506
50162346,10003,0.863281,-0.319458,0.441284,506
50172330,9984,0.908936,-0.310181,0.448486,506
50182347,10017,0.950073,-0.311279,0.456299,501
50192337,9990,0.995483,-0.304321,0.468506,510
50202342,10005,1.000854,-0.305298,0.472046,512
50212334,9992,0.997314,-0.304688,0.472412,520
50222349,10015,0.980225,-0.301758,0.470825,522
50232353,10004,0.959961,-0.300415,0.466309,528
50242345,9992,0.914307,-0.290771,0.448730,529
50252337,9992,0.892456,-0.287720,0.438232,524
50262367,10030,0.875610,-0.281250,0.430420,526
50272334,9967,0.865234,-0.273560,0.417480,523
50282326,9992,0.864502,-0.262573,0.408081,522
50292328,10002,0.869019,-0.254028,0.399536,521
50302340,10012,0.890015,-0.240234,0.386353,517
50312345,10005,0.899048,-0.240723,0.384521,515
50322339,9994,0.908325,-0.252563,0.385864,509
50332353,10014,0.906982,-0.271729,0.381104,507
50342350,9997,0.914307,-0.277954,0.369995,506
50352333,9983,0.916260,-0.287964,0.349976,502
50362344,10011,0.909302,-0.291626,0.338867,500
50372345,10001,0.901245,-0.292236,0.334839,494
50382349,10004,0.889038,-0.279419,0.330933,492
50392335,9986,0.880371,-0.264893,0.329468,480
50402332,9997,0.870850,-0.244873,0.330444,483
50412325,9993,0.853149,-0.218262,0.339966,477
50422345,10020,0.840820,-0.215698,0.342896,469
50432342,9997,0.822998,-0.217896,0.346191,466
50442337,9995,0.805542,-0.224731,0.348999,467
50452335,9998,0.791138,-0.229370,0.342529,465
50462352,10017,0.774536,-0.217529,0.329712,471
50472335,9983,0.805176,-0.221924,0.318481,474
50482341,10006,0.875122,-0.233032,0.326172,471
50492352,10011,0.930298,-0.229858,0.348145,479
50502347,9995,0.946167,-0.218140,0.374023,475
50512337,9990,0.947266,-0.222534,0.391846,485
50522338,10001,0.955811,-0.250610,0.391357,491
50532347,10009,0.944092,-0.277100,0.387939,491
50542341,9994,0.900024,-0.275269,0.373779,506
50554555,12214,0.880615,-0.303833,0.362793,514
50562350,7795,0.000000,0.000000,0.000000,521
50572343,9993,0.818604,-0.303467,0.347656,528
50582348,10005,0.813721,-0.295410,0.347290,529
50592353,10005,0.816528,-0.281006,0.348022,530
50602346,9993,0.820190,-0.264038,0.348633,541
50612353,10007,0.828857,-0.254150,0.353149,543
50622343,9990,0.850586,-0.252075,0.353760,547
50632348,10005,0.859863,-0.260132,0.346924,555
50642347,9999,0.857544,-0.276855,0.343750,552
50652333,9986,0.856323,-0.294189,0.342651,550
50662337,10004,0.858521,-0.303833,0.342407,553
50672378,10041,0.863281,-0.298096,0.344604,548
50682331,9953,0.864380,-0.278687,0.348267,552
50692345,10014,0.868896,-0.288452,0.349121,548
50702336,9991,0.881592,-0.292969,0.348511,545
50712327,9991,0.891602,-0.294189,0.345703,540
50722337,10010,0.910034,-0.297485,0.344360,531
50732335,9998,0.955078,-0.308838,0.339600,533
50742337,10002,0.973267,-0.312988,0.337891,531
50752331,9994,0.994507,-0.319214,0.334961,527
50762349,10018,1.009033,-0.336792,0.332642,527
50772333,9984,1.021851,-0.354858,0.329346,524
50782336,10003,1.031860,-0.372314,0.327393,529
50792328,9992,1.017334,-0.391602,0.321167,531
50802342,10014,1.005737,-0.393921,0.319946,530
50812349,10007,0.997681,-0.394287,0.319946,530
50822340,9991,0.983276,-0.398682,0.322021,529
50832334,9994,0.967896,-0.397705,0.323608,528
50842334,10000,0.937256,-0.359863,0.326904,528
50852327,9993,0.923706,-0.343872,0.326416,524
50862347,10020,0.915649,-0.332764,0.321289,523
50872345,9998,0.908569,-0.323242,0.316040,522
50882337,9992,0.899780,-0.318359,0.308594,520
50892335,9998,0.896973,-0.316650,0.293213,519
50902339,10004,0.903809,-0.325073,0.292725,518
50912334,9995,0.910034,-0.337280,0.292236,519
50922349,10015,0.913940,-0.351440,0.294189,521
50932324,9975,0.915161,-0.364990,0.294556,524
50942342,10018,0.919800,-0.381592,0.293335,518
50952350,10008,0.924927,-0.407593,0.290894,520
50962337,9987,0.927002,-0.410767,0.290283,520
50972336,9999,0.923706,-0.410767,0.286621,519
50982327,9991,0.918823,-0.408447,0.282959,515
50992334,10007,0.913574,-0.405518,0.280151,508
51002339,10005,0.905640,-0.400024,0.280151,505
51012340,10001,0.910889,-0.400513,0.268188,502
51022345,10005,0.986206,-0.406372,0.272705,498
51032330,9985,1.046753,-0.395630,0.312134,495
51042344,10014,1.050781,-0.371216,0.358765,499
51052332,9988,1.034302,-0.357788,0.380737,501
51062333,10001,0.999023,-0.389038,0.352539,501
51072324,9991,0.962036,-0.399048,0.341919,499
51082342,10018,0.921021,-0.391602,0.348511,505
51092336,9994,0.880371,-0.376343,0.369385,503
51102345,10009,0.831543,-0.361694,0.394653,499
51112334,9989,0.763428,-0.346436,0.428711,503
51122352,10018,0.743408,-0.337036,0.443848,498
51132337,9985,0.720459,-0.327393,0.457397,497
51142343,10006,0.703735,-0.317749,0.469360,496
51152341,9998,0.691650,-0.315063,0.471313,502
51162340,9999,0.687988,-0.320190,0.464233,495
51172354,10014,0.682007,-0.330078,0.429687,502
51182350,9996,0.684448,-0.339966,0.414551,502
51192335,9985,0.691162,-0.351074,0.403931,504
51202367,10032,0.702148,-0.357788,0.396729,500
51212331,9964,0.713013,-0.363037,0.392090,499
51222353,10022,0.727173,-0.371948,0.384033,494
51232324,9971,0.739136,-0.373169,0.379028,489
51242331,10007,0.758423,-0.370605,0.373657,476
51252345,10014,0.778809,-0.375244,0.367065,469
51262345,10000,0.811646,-0.363281,0.364624,459
51272354,10009,0.846680,-0.359863,0.369995,458
51282334,9980,0.908325,-0.369507,0.381348,453
51292325,9991,0.921021,-0.367676,0.388550,448
51302342,10017,0.926758,-0.368286,0.396484,448
51312343,10001,0.922607,-0.368896,0.408081,452
51322332,9989,0.915771,-0.365234,0.412720,451
51332338,10006,0.910889,-0.347168,0.406006,454
51342337,9999,0.911133,-0.338501,0.400757,464
51352338,10001,0.907959,-0.328003,0.395508,477
51362327,9989,0.905029,-0.317139,0.392700,481
51372341,10014,0.903687,-0.309448,0.395020,495
51382324,9983,0.902466,-0.303467,0.402344,504
51392326,10002,0.894409,-0.295898,0.405640,513
51402351,10025,0.895508,-0.292114,0.413208,521
51412349,9998,0.896484,-0.290039,0.421875,526
51422325,9976,0.898437,-0.283081,0.426758,530
51432352,10027,0.895874,-0.278198,0.430786,533
51442329,9977,0.890747,-0.284912,0.442871,536
51452337,10008,0.886597,-0.283813,0.448730,537
51462340,10003,0.880737,-0.284424,0.453979,541
51472340,10000,0.878418,-0.284180,0.461792,538
51482345,10005,0.875366,-0.279297,0.468262,533
51492333,9988,0.874390,-0.276123,0.485718,535
51502325,9992,0.869995,-0.280396,0.487549,536
51512334,10009,0.864380,-0.284546,0.482666,536
51522343,10009,0.867432,-0.286621,0.475708,531
51532338,9995,0.881226,-0.286621,0.471436,534
51542346,10008,0.901489,-0.279785,0.475220,526
51552339,9993,0.935059,-0.254272,0.489868,523
51562338,9999,0.953003,-0.236206,0.491089,530
51572325,9987,0.983276,-0.225098,0.487427,525
51582343,10018,1.024414,-0.223389,0.481689,519
51592344,10001,1.072388,-0.221436,0.481445,519
51602329,9985,1.092163,-0.223511,0.489502,515
51612348,10019,1.054810,-0.238770,0.482300,514
51622331,9983,1.003784,-0.260620,0.464844,512
51632366,10035,0.962280,-0.274048,0.445435,512
51642337,9971,0.923584,-0.277222,0.432983,513
51652334,9997,0.875854,-0.274048,0.423828,511
51662333,9999,0.802612,-0.276978,0.404297,510
51672350,10017,0.780396,-0.276001,0.391724,504
51682341,9991,0.764526,-0.275024,0.378784,505
51692348,10007,0.755371,-0.270874,0.367065,502
51702350,10002,0.754028,-0.264404,0.361572,509
51712335,9985,0.754639,-0.250488,0.353516,508
51722342,10007,0.761230,-0.250854,0.347534,502
51732330,9988,0.769165,-0.254517,0.341675,505
51742338,10008,0.775635,-0.261719,0.336182,502
51752328,9990,0.783813,-0.270874,0.329834,500
51762340,10012,0.790771,-0.274292,0.320923,499
51772334,9994,0.787476,-0.289063,0.320190,495
51782327,9993,0.796631,-0.294678,0.310669,492
51792339,10012,0.800049,-0.295410,0.306641,491
51802355,10016,0.800781,-0.299316,0.305176,490
51812336,9981,0.806641,-0.293945,0.306885,486
51822327,9991,0.829102,-0.279297,0.316040,485
51832362,10035,0.848022,-0.283691,0.319702,479
51842343,9981,0.870483,-0.292480,0.325806,486
51852329,9986,0.889771,-0.305420,0.330566,487
51862335,10006,0.908691,-0.328369,0.333740,491
51872349,10014,0.919434,-0.353027,0.337891,495
51882347,9998,0.920532,-0.370605,0.337891,498
51892336,9989,0.911011,-0.362549,0.341797,495
51902333,9997,0.911865,-0.344238,0.344727,496
51912329,9996,0.911255,-0.314819,0.346802,507
51922335,10006,0.903809,-0.285278,0.349609,508
51932343,10008,0.901123,-0.286865,0.364258,513
51942342,9999,0.902832,-0.287109,0.375000,514
51952328,9986,0.892822,-0.285645,0.382324,509
51962325,9997,0.883667,-0.292236,0.380615,514
51972333,10008,0.870239,-0.299561,0.364990,523
51982342,10009,0.853638,-0.304688,0.343750,521
51992346,10004,0.833008,-0.298340,0.347900,521
52002350,10004,0.832886,-0.297729,0.348511,525
52012335,9985,0.824341,-0.307739,0.345459,530
52022354,10019,0.825317,-0.324707,0.346558,526
52032350,9996,0.829956,-0.334717,0.351563,528
52042329,9979,0.838379,-0.360107,0.353027,525
52052329,10000,0.837891,-0.376343,0.349976,516
52062330,10001,0.840454,-0.392578,0.343384,520
52072342,10012,0.836670,-0.406738,0.331909,516
52084793,12451,0.826172,-0.398315,0.327637,521
52092350,7557,0.000000,0.000000,0.000000,521
52102352,10002,0.908936,-0.395630,0.325684,527
52112336,9984,1.005493,-0.410889,0.334229,529
52122346,10010,1.088257,-0.417969,0.359131,540
52132340,9994,1.129150,-0.419434,0.381104,547
52142339,9999,1.133179,-0.437378,0.386230,556
52152344,10005,1.078857,-0.506836,0.378174,557
52162330,9986,1.034790,-0.522217,0.383789,560
52172325,9995,0.995850,-0.528809,0.390503,554
52182329,10004,0.954224,-0.518066,0.400757,553
52192343,10014,0.916992,-0.487427,0.415283,535
52202335,9992,0.850830,-0.371826,0.437500,531
52212340,10005,0.823853,-0.339966,0.465332,520
52222363,10023,0.818115,-0.290283,0.500977,508
52232338,9975,0.808716,-0.236572,0.536011,499
52242349,10011,0.800049,-0.201050,0.557129,491
52252331,9982,0.792603,-0.196045,0.562500,478
52262359,10028,0.749634,-0.270508,0.515381,477
52272348,9989,0.736816,-0.287964,0.486572,478
52282326,9978,0.727051,-0.298218,0.473877,477
52292336,10010,0.730957,-0.305908,0.480103,476
52302326,9990,0.744385,-0.307617,0.493896,474
52312352,10026,0.785767,-0.288086,0.532959,477
52322348,9996,0.802979,-0.278076,0.544922,480
52332334,9986,0.815186,-0.276978,0.544189,482
52342351,10017,0.823120,-0.279907,0.533691,475
52352330,9979,0.827637,-0.278198,0.521729,481
52362353,10023,0.825195,-0.273438,0.515747,491
52372326,9973,0.820435,-0.254883,0.514282,499
52382328,10002,0.810547,-0.256592,0.517334,500
52392352,10024,0.808472,-0.270142,0.517822,496
52402354,10002,0.808960,-0.282959,0.513062,503
52412327,9973,0.808228,-0.285400,0.509033,506
52422331,10004,0.808716,-0.265869,0.491699,502
52432333,10002,0.807617,-0.263794,0.477173,498
52442344,10011,0.806519,-0.269531,0.461060,501
52452351,10007,0.803101,-0.279785,0.442627,501
52462352,10001,0.794312,-0.290405,0.423462,495
52472337,9985,0.783569,-0.298462,0.408081,492
52482356,10019,0.767090,-0.311890,0.378906,490
52492353,9997,0.761719,-0.317383,0.371216,494
52502327,9974,0.755859,-0.320923,0.363892,483
52512334,10007,0.750366,-0.326172,0.358765,480
52522344,10010,0.743652,-0.329590,0.355469,480
52532335,9991,0.732178,-0.335693,0.345703,476
52542342,10007,0.727661,-0.338623,0.339355,473
52552348,10006,0.724854,-0.342773,0.331421,467
52562327,9979,0.721802,-0.348755,0.321045,465
52572349,10022,0.720581,-0.352173,0.312500,460
52582342,9993,0.724609,-0.353760,0.306030,464
52592350,10008,0.736450,-0.356567,0.304321,454
52602340,9990,0.739746,-0.358276,0.306152,458
52612335,9995,0.751343,-0.364258,0.306152,462
52622332,9997,0.758301,-0.366089,0.301025,464
52632340,10008,0.781006,-0.376831,0.297607,462
52642346,10006,0.833496,-0.389526,0.298340,468
52652340,9994,0.884521,-0.396851,0.298218,470
52662345,10005,0.963745,-0.403198,0.306885,476
52672356,10011,1.060547,-0.408936,0.335938,484
52682350,9994,1.140747,-0.407959,0.383789,494
52695756,13406,1.108643,-0.411621,0.421265,503
52703339,7583,1.025024,-0.420288,0.398193,516
52712352,9013,0.966553,-0.410278,0.358765,517
52722349,9997,0.906128,-0.404785,0.322998,522
52732335,9986,0.872437,-0.392944,0.302856,527
52742330,9995,0.859863,-0.368774,0.299438,525
52752336,10006,0.873047,-0.332886,0.310669,520
52762339,10003,0.895752,-0.332764,0.320313,512
52772341,10002,0.933472,-0.337769,0.330811,511
52782348,10007,0.969971,-0.337646,0.340820,505
52792331,9983,1.001709,-0.328613,0.360474,504
52802351,10020,1.018188,-0.307129,0.363647,504
52812348,9997,1.044922,-0.308228,0.363770,501
52822336,9988,1.037964,-0.316162,0.365723,507
52832352,10016,1.023315,-0.319214,0.372559,506
52842351,9999,0.998535,-0.312134,0.378540,507
52852330,9979,0.971436,-0.299805,0.382935,507
52862334,10004,0.919922,-0.266235,0.412964,505
52872345,10011,0.916870,-0.247314,0.427124,506
52882361,10016,0.920654,-0.248535,0.419189,502
52892324,9963,0.922607,-0.268677,0.401978,506
52902331,10007,0.931885,-0.291870,0.382202,517
52912339,10008,0.950195,-0.310547,0.363281,520
52922343,10004,0.986572,-0.312622,0.361572,525
52932348,10005,1.000122,-0.317383,0.362183,525
52942325,9977,1.010254,-0.323730,0.359619,532
52952341,10016,1.020020,-0.329590,0.364014,531
52962342,10001,1.023926,-0.320923,0.365479,532
52972326,9984,0.998535,-0.287720,0.375977,527
52982347,10021,0.979004,-0.278809,0.380615,519
52992332,9985,0.961792,-0.271240,0.391113,519
53002341,10009,0.941162,-0.263916,0.398926,518
53012333,9992,0.919556,-0.252441,0.403809,507
53022353,10020,0.898071,-0.218018,0.397339,510
53032327,9974,0.854736,-0.197021,0.385620,509
53042341,10014,0.833740,-0.175293,0.367065,510
53052329,9988,0.812134,-0.158203,0.348145,509
53062348,10019,0.791382,-0.154785,0.331543,520
53072340,9992,0.779053,-0.164795,0.320923,523
53082332,9992,0.778320,-0.211304,0.317627,524
53092347,10015,0.786865,-0.234741,0.326050,526
53102345,9998,0.799194,-0.253418,0.333374,521
53112352,10007,0.812256,-0.273926,0.333618,523
53122325,9973,0.822876,-0.290283,0.330933,516
53132336,10011,0.837891,-0.305420,0.317261,516
53142327,9991,0.847534,-0.303955,0.307739,511
53152340,10013,0.857422,-0.299194,0.298706,514
53162345,10005,0.867065,-0.297852,0.293823,510
53172341,9996,0.872559,-0.303467,0.289917,505
53182345,10004,0.879272,-0.309692,0.295654,496
53192328,9983,0.884888,-0.310425,0.294312,495
53202344,10016,0.879761,-0.317749,0.286499,495
53212340,9996,0.904419,-0.331909,0.270386,492
53222339,9999,0.977051,-0.351929,0.253906,492
53232350,10011,1.050659,-0.376465,0.248169,486
53242335,9985,1.104126,-0.400146,0.257690,493
53252332,9997,1.084717,-0.395020,0.272949,498
53262335,10003,1.058105,-0.381348,0.307129,502
53272325,9990,1.033081,-0.374512,0.333984,512
53282339,10014,0.994263,-0.390747,0.336426,519
53292345,10006,0.927612,-0.407593,0.327759,526
53302327,9982,0.838379,-0.358521,0.314331,529
53312357,10030,0.789795,-0.336548,0.316895,531
53322326,9969,0.758911,-0.324707,0.326416,529
53332336,10010,0.746826,-0.293823,0.343384,528
53342336,10000,0.742432,-0.253418,0.362915,525
53352341,10005,0.763550,-0.201172,0.409302,519
53362345,10004,0.761230,-0.216064,0.408081,518
53372340,9995,0.761963,-0.263672,0.403564,516
53382333,9993,0.772095,-0.333984,0.391724,517
53392329,9996,0.769775,-0.370361,0.364380,510
53402325,9996,0.762329,-0.397705,0.329590,521
53412345,10020,0.807861,-0.381592,0.338013,527
53422325,9980,0.868164,-0.324829,0.382568,531
53432324,9999,0.904175,-0.277832,0.421997,537
53442341,10017,0.941650,-0.257080,0.454346,542
53452327,9986,0.969849,-0.257202,0.474487,551
53462344,10017,0.973389,-0.300537,0.485596,555
53472345,10001,0.964722,-0.331787,0.492676,560
53482342,9997,0.948364,-0.350342,0.500854,559
53492326,9984,0.925781,-0.350952,0.503418,555
53502339,10013,0.904297,-0.337646,0.495117,547
53512330,9991,0.878540,-0.326050,0.478760,548
53522327,9997,0.852173,-0.327393,0.467896,541
53532330,10003,0.830933,-0.335815,0.438110,537
53542334,10004,0.820679,-0.337891,0.416016,530
53552344,10010,0.822266,-0.329224,0.392334,527
53562379,10035,0.826050,-0.323242,0.372437,521
53572349,9970,0.835815,-0.348389,0.343384,519
53582327,9978,0.839233,-0.349365,0.339966,508
53592339,10012,0.842773,-0.341919,0.348267,503
53602330,9991,0.851318,-0.327881,0.358032,496
53612329,9999,0.855347,-0.317749,0.363403,501
53622347,10018,0.849854,-0.317139,0.368530,493
53632331,9984,0.839355,-0.335083,0.371948,493
53642334,10003,0.829346,-0.342041,0.377197,487
53652353,10019,0.822388,-0.340820,0.384155,493
53662333,9980,0.818604,-0.336426,0.387939,495
53672339,10006,0.813965,-0.328613,0.387329,492
53682342,10003,0.797363,-0.325073,0.381226,497
53692332,9990,0.788086,-0.326172,0.381592,491
53702324,9992,0.779175,-0.333374,0.385254,495
53712337,10013,0.782227,-0.344482,0.383545,502
53722349,10012,0.790527,-0.354004,0.382813,502
53732351,10002,0.802246,-0.362549,0.384155,503
53742346,9995,0.832520,-0.373535,0.382568,505
53752341,9995,0.846558,-0.381104,0.377686,500
53762355,10014,0.869507,-0.390137,0.370361,504
53772324,9969,0.919312,-0.403931,0.364624,506
53782333,10009,1.000244,-0.421875,0.371216,509
53792325,9992,1.106812,-0.437378,0.433350,512
53802350,10025,1.068237,-0.435303,0.456299,514
53812324,9974,0.988281,-0.426270,0.436890,520
53822334,10010,0.905640,-0.448242,0.397949,524
53832335,10001,0.842407,-0.461182,0.354736,526
53842324,9989,0.797852,-0.412842,0.310669,523
53852331,10007,0.776978,-0.369385,0.310547,516
53862352,10021,0.793091,-0.332642,0.313477,508
53872330,9978,0.820435,-0.313354,0.316040,500
53882349,10019,0.852051,-0.319946,0.322144,500
53892340,9991,0.889160,-0.343872,0.327393,490
53902326,9986,0.960571,-0.361572,0.321533,493
53912327,10001,0.989380,-0.350098,0.316284,489
53922330,10003,1.009033,-0.335815,0.314575,479
53932348,10018,1.024170,-0.320435,0.314819,478
53942326,9978,1.026489,-0.305786,0.324829,477
53952342,10016,1.018188,-0.299561,0.350098,474
53962348,10006,0.982910,-0.299683,0.357178,469
53972350,10002,0.954346,-0.292236,0.357910,472
53982336,9986,0.923462,-0.290649,0.357544,472
53992338,10002,0.893188,-0.287842,0.352417,476
54002330,9992,0.877197,-0.274414,0.344360,475
54012370,10040,0.895142,-0.240723,0.339111,480
54022326,9956,0.920776,-0.243652,0.338989,482
54032350,10024,0.950195,-0.258545,0.343994,492
54042336,9986,0.986694,-0.279785,0.351440,496
54052337,10001,1.021606,-0.304810,0.360107,501
54062351,10014,1.071411,-0.345581,0.359619,504
54072346,9995,1.077637,-0.383057,0.350098,515
54082339,9993,1.068970,-0.405884,0.340332,518
54092349,10010,1.052734,-0.405151,0.330688,523
54102353,10004,1.027710,-0.390747,0.322632,537
54112351,9998,1.001831,-0.387939,0.317749,530
54122352,10001,0.946167,-0.377563,0.312378,534
54132345,9993,0.913696,-0.363281,0.308716,530
54142350,10005,0.884277,-0.348511,0.303467,529
54152339,9989,0.856079,-0.327026,0.297607,519
54162338,9999,0.828369,-0.286377,0.296875,518
54172353,10015,0.796631,-0.221313,0.285400,518
54182325,9972,0.781738,-0.225830,0.273193,513
54192367,10042,0.775269,-0.235229,0.271484,506
54202346,9979,0.775024,-0.225342,0.269775,507
54212379,10033,0.779907,-0.216431,0.271118,499
54222344,9965,0.787598,-0.211914,0.271606,492
54232324,9980,0.799072,-0.218140,0.273804,488
54242339,10015,0.804687,-0.232300,0.280151,482
54252344,10005,0.808350,-0.251587,0.285522,471
54262347,10003,0.811157,-0.273315,0.294189,468
54272331,9984,0.812256,-0.291870,0.300293,470
54282331,10000,0.812134,-0.313477,0.311646,466
54292353,10022,0.800537,-0.311401,0.300415,470
54302338,9985,0.817749,-0.313232,0.296143,471
54312348,10010,0.839233,-0.312012,0.296143,473
54322337,9989,0.900635,-0.311523,0.276855,475
54332332,9995,1.005005,-0.325439,0.270142,481
54342332,10000,1.140137,-0.353149,0.287720,478
54352341,10009,1.126953,-0.360474,0.304932,493
54362334,9993,1.089233,-0.374634,0.316162,493
54372353,10019,1.036743,-0.382690,0.325684,507
54382352,9999,0.990845,-0.380859,0.328369,507
54392338,9986,0.889771,-0.336304,0.338257,519
54402333,9995,0.826050,-0.293701,0.334839,520
54412335,10002,0.787720,-0.252441,0.333008,524
54422369,10034,0.753662,-0.210449,0.339355,530
54432350,9981,0.727539,-0.187866,0.343262,527
54442334,9984,0.718628,-0.156616,0.371338,533
54452337,10003,0.734863,-0.172607,0.376099,528
54462340,10003,0.745972,-0.168823,0.375000,527
54472337,9997,0.759033,-0.182129,0.389404,526
54482328,9991,0.785767,-0.231201,0.405762,529
54492353,10025,0.807495,-0.285645,0.413086,528
54502325,9972,0.830322,-0.344849,0.401611,529
54512325,10000,0.848389,-0.386963,0.401123,528
54522345,10020,0.870972,-0.410400,0.407227,526
54532352,10007,0.898560,-0.406250,0.421753,518
54542349,9997,0.928101,-0.387207,0.444946,521
54552352,10003,0.953491,-0.309937,0.477905,517
54562336,9984,0.973022,-0.288452,0.479004,519
54572343,10007,0.969482,-0.290894,0.480103,524
54582346,10003,0.961670,-0.298706,0.486328,522
54592343,9997,0.943604,-0.309814,0.488037,529
54602328,9985,0.919800,-0.329102,0.484863,529
54612333,10005,0.883301,-0.328735,0.465820,526
54622332,9999,0.871094,-0.296143,0.456299,527
54632377,10045,0.859497,-0.266968,0.447510,531
54642327,9950,0.854858,-0.273071,0.437134,530
54652345,10018,0.862671,-0.284790,0.433716,528
54662341,9996,0.880249,-0.271362,0.424805,521
54672336,9995,0.885254,-0.279175,0.421509,526
54682329,9993,0.886719,-0.288208,0.417725,524
54692330,10001,0.882690,-0.294434,0.419678,522
54702342,10012,0.876343,-0.305664,0.419312,522
54712345,10003,0.866089,-0.319458,0.417725,522
54722337,9992,0.840088,-0.333740,0.413330,518
54732344,10007,0.825439,-0.336914,0.413452,517
54742339,9995,0.812012,-0.339355,0.415405,515
54752345,10006,0.800659,-0.342529,0.419189,513
54762341,9996,0.791870,-0.346924,0.421997,509
54772332,9991,0.781128,-0.346069,0.423340,510
54782327,9995,0.779175,-0.342163,0.426636,508
54792326,9999,0.779175,-0.341064,0.428711,509
54802351,10025,0.784546,-0.342529,0.428955,507
54812349,9998,0.794067,-0.348877,0.432007,507
54822818,10469,0.806885,-0.369507,0.436035,511
54832358,9540,0.829468,-0.390137,0.428955,514
54842346,9988,0.877930,-0.411011,0.414062,516
54852363,10017,0.970947,-0.424072,0.417358,512
54862338,9975,1.068848,-0.420654,0.449829,519
54872349,10011,1.120361,-0.415161,0.486328,526
54882345,9996,1.024536,-0.436401,0.493896,530
54892338,9993,0.942993,-0.449463,0.449951,533
54902336,9998,0.871826,-0.463013,0.401978,532
54912324,9988,0.816162,-0.443970,0.363281,529
54922331,10007,0.774536,-0.396484,0.343872,523
54932334,10003,0.751343,-0.340942,0.335205,510
54942339,10005,0.753296,-0.291992,0.336304,508
54952352,10013,0.774292,-0.304321,0.339722,494
54962341,9989,0.810303,-0.323608,0.342407,487
54972336,9995,0.839233,-0.328247,0.343994,489
54982327,9991,0.869263,-0.329590,0.348267,485
54992327,10000,0.942017,-0.338745,0.357300,476
55002336,10009,0.975708,-0.343018,0.361206,480
55012326,9990,1.002075,-0.348145,0.363281,482
55022328,10002,1.022827,-0.349609,0.366455,484
55032343,10015,1.038086,-0.349365,0.371338,486
55042356,10013,1.044067,-0.342773,0.376221,490
55052325,9969,1.015625,-0.324585,0.379517,492
55062356,10031,0.988770,-0.310303,0.376953,492
55072353,9997,0.950684,-0.295288,0.368408,500
55082345,9992,0.912354,-0.282959,0.359619,505
55092326,9981,0.880371,-0.270752,0.348145,502
55102339,10013,0.851440,-0.258789,0.328857,510
55112335,9996,0.865723,-0.266602,0.318359,511
55122327,9992,0.888916,-0.278198,0.324219,516
55132326,9999,0.921631,-0.288208,0.334839,522
55142344,10018,0.957397,-0.286255,0.336548,528
55152327,9983,0.980713,-0.331299,0.323975,531
55162352,10025,1.010986,-0.351563,0.317505,535
55172332,9980,1.021729,-0.368164,0.315918,535
55182352,10020,1.028564,-0.376465,0.317261,535
55192334,9982,1.024170,-0.375610,0.320557,537
55202330,9996,1.011963,-0.361084,0.326294,529
55212332,10002,0.964966,-0.301514,0.333008,528
55222354,10022,0.933350,-0.267822,0.335815,518
55232353,9999,0.901001,-0.239990,0.334839,516
55242344,9991,0.868408,-0.223511,0.334961,513
55252356,10012,0.842651,-0.215454,0.329468,512
55262328,9972,0.786377,-0.212646,0.310547,510
55272371,10043,0.781616,-0.214111,0.305176,510
55282353,9982,0.774414,-0.218018,0.300781,511
55292335,9982,0.772095,-0.224243,0.296875,511
55302332,9997,0.771851,-0.233521,0.294067,511
55312340,10008,0.773071,-0.242065,0.296265,511
55322339,9999,0.778442,-0.268677,0.293091,508
55332343,10004,0.785400,-0.280762,0.285034,506
55342329,9986,0.828247,-0.291016,0.270752,503
55352340,10011,0.906494,-0.299683,0.265137,494
55362336,9996,0.991089,-0.299438,0.259521,484
55372339,10003,1.017578,-0.312866,0.288452,488
55382337,9998,1.036499,-0.335571,0.294556,481
55392341,10004,1.007324,-0.339722,0.303467,482
55402344,10003,0.954102,-0.334961,0.321777,479
55412325,9981,0.910034,-0.324219,0.336426,481
55422345,10020,0.864258,-0.308960,0.347900,494
55432353,10008,0.777710,-0.275635,0.360962,498
55442361,10008,0.746826,-0.265991,0.356567,504
55452345,9984,0.727295,-0.249023,0.349365,509
55462332,9987,0.728882,-0.224976,0.340698,513
55472327,9995,0.699219,-0.205200,0.346558,518
55482344,10017,0.743774,-0.215576,0.360596,521
55492339,9995,0.775757,-0.233154,0.372314,521
55502336,9997,0.816895,-0.257080,0.385132,525
55512331,9995,0.855713,-0.286011,0.396973,524
55522326,9995,0.892212,-0.309814,0.406738,521
55532326,10000,0.914917,-0.324463,0.406860,524
55542338,10012,0.932007,-0.356689,0.413696,524
55552326,9988,0.927124,-0.364380,0.416870,524
55562329,10003,0.919800,-0.361084,0.425293,527
55572351,10022,0.913574,-0.339600,0.433472,525
55582353,10002,0.914429,-0.299927,0.442627,524
55592336,9983,0.928345,-0.246948,0.464722,526
55602351,10015,0.931641,-0.252075,0.472656,524
55612331,9980,0.931396,-0.275757,0.478516,526
55622344,10013,0.928833,-0.303589,0.478149,532
55632331,9987,0.919312,-0.319580,0.477295,530
55642353,10022,0.907471,-0.317139,0.475098,535
55652346,9993,0.886353,-0.283203,0.464600,539
55662329,9983,0.879272,-0.266968,0.464600,536
55672362,10033,0.871948,-0.257813,0.457397,542
55682347,9985,0.872070,-0.264038,0.451416,536
55692337,9990,0.875366,-0.271606,0.444458,546
55702347,10010,0.878906,-0.285889,0.438477,546
55712348,10001,0.872803,-0.288330,0.430542,546
55722342,9994,0.867798,-0.289185,0.429199,545
55732336,9994,0.863892,-0.292358,0.427979,540
55742336,10000,0.866089,-0.301636,0.429932,541
55752336,10000,0.871460,-0.341431,0.435669,539
55762343,10007,0.863037,-0.325195,0.433716,530
55772344,10001,0.855957,-0.327271,0.433472,529
55782334,9990,0.851074,-0.325317,0.430298,523
55792337,10003,0.835327,-0.317749,0.437134,524
55802339,10002,0.816528,-0.321045,0.436279,525
55812332,9993,0.791382,-0.341797,0.432129,524
55822340,10008,0.794312,-0.344727,0.430054,521
55832353,10013,0.799438,-0.344482,0.425537,523
55842353,10000,0.822510,-0.346436,0.422852,525
55852346,9993,0.863403,-0.350586,0.426636,523
55862350,10004,0.915649,-0.358276,0.456177,522
55872326,9976,0.961548,-0.364624,0.472046,526
55882347,10021,0.967163,-0.381470,0.479248,535
55892336,9989,0.948364,-0.400757,0.473511,529
55902324,9988,0.908325,-0.413452,0.455811,537
55912352,10028,0.864014,-0.421509,0.435425,536
55922346,9994,0.787231,-0.411133,0.397827,527
55932344,9998,0.762939,-0.394897,0.380737,524
55942338,9994,0.749878,-0.379028,0.366211,518
55952350,10012,0.750610,-0.360840,0.357910,510
55962344,9994,0.757202,-0.344116,0.350830,506
55972337,9993,0.790649,-0.354614,0.344360,497
55982343,10006,0.821777,-0.375244,0.348999,495
55992329,9986,0.856323,-0.384644,0.356201,493
56002338,10009,0.889282,-0.384155,0.358154,490
56012325,9987,0.908447,-0.382935,0.358887,489
56022326,10001,0.922485,-0.386597,0.360962,487
56032346,10020,0.932983,-0.390259,0.369263,486
56042352,10006,0.929810,-0.389404,0.377441,481
56052341,9989,0.928589,-0.388550,0.382568,480
56062332,9991,0.923340,-0.386108,0.384888,487
56072363,10031,0.915283,-0.382080,0.382690,488
56082346,9983,0.894409,-0.365967,0.368896,491
56092330,9984,0.893677,-0.356079,0.359497,494
56102334,10004,0.902954,-0.348145,0.351807,500
56112330,9996,0.924683,-0.341797,0.345459,496
56122347,10017,0.953003,-0.342773,0.343018,506
56132337,9990,0.983032,-0.346191,0.343628,508
56142345,10008,1.028931,-0.353271,0.342163,512
56152351,10006,1.045044,-0.357666,0.339111,512
56162348,9997,1.058472,-0.367188,0.336182,513
56172351,10003,1.066772,-0.372925,0.332397,514
56182338,9987,1.072388,-0.376343,0.338501,509
56192339,10001,1.065063,-0.359863,0.353516,515
56202335,9996,1.051514,-0.347778,0.361572,507
56212338,10003,1.036133,-0.333862,0.369995,510
56222325,9987,1.015747,-0.317383,0.373901,499
56232345,10020,0.997925,-0.302856,0.373047,497
56242354,10009,0.979248,-0.286743,0.370605,501
56252331,9977,0.955200,-0.240356,0.355713,496
56262340,10009,0.941650,-0.219849,0.347290,503
56272357,10017,0.928467,-0.210449,0.340820,504
56282329,9972,0.914917,-0.210815,0.334473,500
56292336,10007,0.901611,-0.219238,0.332275,507
56302336,10000,0.882935,-0.241211,0.342529,506
56312324,9988,0.871582,-0.232056,0.344849,506
56322326,10002,0.857178,-0.245972,0.346680,507
56332328,10002,0.845825,-0.265747,0.349731,507
56342338,10010,0.831543,-0.277100,0.352051,509
56352341,10003,0.813965,-0.283569,0.349854,503
56362352,10011,0.783081,-0.281982,0.346680,509
56372327,9975,0.770752,-0.272827,0.342407,507
56382332,10005,0.769897,-0.256104,0.332520,507
56392339,10007,0.799927,-0.234497,0.314331,504
56402351,10012,0.861938,-0.221191,0.301758,498
56412333,9982,0.943848,-0.223267,0.315674,496
56422336,10003,0.941406,-0.223511,0.330566,490
56432339,10003,0.933960,-0.240601,0.350464,487
56442336,9997,0.930420,-0.277466,0.370850,491
56452326,9990,0.909424,-0.305908,0.394287,491
56462370,10044,0.825439,-0.298828,0.410889,494
56472336,9966,0.824707,-0.277954,0.394287,498
56482348,10012,0.792358,-0.255615,0.397217,498
56492333,9985,0.770874,-0.238281,0.397339,507
56502337,10004,0.751953,-0.219849,0.399292,518
56512336,9999,0.741699,-0.203369,0.401978,521
56522327,9991,0.745605,-0.201538,0.399414,529
56532346,10019,0.774292,-0.205933,0.389893,530
56542335,9989,0.767456,-0.192993,0.394165,540
56552352,10017,0.832520,-0.207031,0.397705,546
56562332,9980,0.834351,-0.225830,0.398193,544
56572332,10000,0.876343,-0.281494,0.404297,545
56582351,10019,0.875244,-0.308228,0.401611,541
56592327,9976,0.867920,-0.321899,0.403564,540
56602346,10019,0.856323,-0.323853,0.407104,530
56612328,9982,0.853394,-0.313965,0.409058,532
56622342,10014,0.847656,-0.294434,0.412598,525
56632338,9996,0.869629,-0.263550,0.419556,517
56642353,10015,0.885986,-0.257935,0.426270,514
56652333,9980,0.902954,-0.254395,0.435669,505
56662340,10007,0.918335,-0.253662,0.449097,508
56672351,10011,0.927612,-0.248413,0.456665,506
56682348,9997,0.927734,-0.270874,0.462280,507
56692334,9986,0.919189,-0.286865,0.460205,507
56702341,10007,0.911255,-0.295898,0.459351,511
56712353,10012,0.900635,-0.300415,0.455811,513
56722347,9994,0.889038,-0.299683,0.454346,521
56732341,9994,0.876099,-0.298096,0.452881,526
56742338,9997,0.858032,-0.299438,0.448486,531
56752330,9992,0.848755,-0.301270,0.449707,530
56762346,10016,0.843384,-0.298096,0.451172,538
56772348,10002,0.843628,-0.301270,0.455322,540
56782349,10001,0.845093,-0.305298,0.456177,533
56792340,9991,0.849243,-0.315674,0.448120,539
56802324,9984,0.857544,-0.322876,0.442627,536
56812324,10000,0.863770,-0.323730,0.439697,540
56822328,10004,0.871216,-0.320313,0.439209,528
56832329,10001,0.879639,-0.315918,0.441895,530
56842353,10024,0.880737,-0.315674,0.449097,527
56852331,9978,0.876099,-0.324341,0.452637,525
56862334,10003,0.870972,-0.329712,0.455200,522
56872334,10000,0.861450,-0.332275,0.456543,521
56882351,10017,0.850098,-0.332642,0.457642,519
56892344,9993,0.837646,-0.332886,0.458252,517
56902344,10000,0.816895,-0.329102,0.456665,516
56912324,9980,0.814209,-0.325806,0.458496,516
56922343,10019,0.815552,-0.327759,0.462769,514
56932338,9995,0.822388,-0.334839,0.465576,515
56942350,10012,0.843750,-0.348511,0.464233,518
56952332,9982,0.893066,-0.396240,0.479614,521
56962349,10017,0.995850,-0.381348,0.497925,524
56972325,9976,1.011841,-0.389526,0.506226,529
56982326,10001,1.000610,-0.415771,0.508057,531
56992325,9999,0.965210,-0.435791,0.496582,534
57002325,10000,0.913330,-0.439575,0.473267,536
57012345,10020,0.807739,-0.401489,0.416382,532
57022334,9989,0.771606,-0.371582,0.393555,531
57032333,9999,0.751343,-0.337036,0.380493,526
57042348,10015,0.745605,-0.304199,0.377686,516
57052332,9984,0.758179,-0.285889,0.386597,512
57062344,10012,0.807373,-0.305664,0.400391,502
57072357,10013,0.834351,-0.320679,0.399780,495
57082344,9987,0.859009,-0.323242,0.401611,494
57092367,10023,0.883789,-0.333008,0.407837,492
57102332,9965,0.907715,-0.353638,0.413086,490
57112343,10011,0.923706,-0.376099,0.415649,489
57122331,9988,0.927124,-0.387207,0.408447,487
57132336,10005,0.912842,-0.372803,0.405762,486
57142342,10006,0.899536,-0.350220,0.401245,484
57152334,9992,0.879028,-0.335327,0.393799,488
57162327,9993,0.857178,-0.300781,0.385864,495
57172326,9999,0.844238,-0.282349,0.378662,495
57182343,10017,0.848877,-0.287964,0.375244,501
57192325,9982,0.855835,-0.284546,0.372437,504
57202330,10005,0.869995,-0.286621,0.369507,507
57212337,10007,0.892212,-0.293091,0.366821,504
57222331,9994,0.914062,-0.295044,0.364502,510
57232334,10003,0.953491,-0.292480,0.371094,516
57242327,9993,0.970337,-0.295410,0.374146,519
57252325,9998,0.980713,-0.302246,0.375122,523
57262339,10014,0.986450,-0.304321,0.375732,524
57272341,10002,0.990723,-0.300781,0.376465,524
57282329,9988,0.997803,-0.291260,0.384521,523
57292366,10037,1.002441,-0.289429,0.388916,526
57302379,10013,1.006592,-0.286743,0.386230,528
57312337,9958,1.003296,-0.290039,0.382690,530
57322351,10014,1.000610,-0.295410,0.376709,530
57332351,10000,0.997559,-0.298096,0.370972,534
57342324,9973,0.989014,-0.295776,0.361694,536
57352345,10021,0.978271,-0.292725,0.356445,533
57362350,10005,0.965210,-0.286743,0.350708,534
57372344,9994,0.950195,-0.281982,0.345947,532
57382335,9991,0.936157,-0.277344,0.341675,530
57392332,9997,0.901489,-0.270996,0.337524,527
57402332,10000,0.889526,-0.268677,0.334595,528
57412337,10005,0.879272,-0.264893,0.329468,524
57422342,10005,0.868774,-0.257446,0.325073,516
57432337,9995,0.859009,-0.248047,0.322754,511
57442333,9996,0.848877,-0.235962,0.325317,515
57452334,10001,0.828491,-0.219727,0.329102,512
57462331,9997,0.818237,-0.220459,0.330688,506
57472338,10007,0.811401,-0.223511,0.327393,505
57482351,10013,0.815430,-0.231079,0.320190,495
57492348,9997,0.847778,-0.242310,0.308716,492
57502332,9984,0.940796,-0.262207,0.309448,491
57512342,10010,0.958008,-0.273193,0.313354,490
57522359,10017,0.952759,-0.287842,0.325928,490
57532339,9980,0.948120,-0.305420,0.328369,489
57542336,9997,0.945679,-0.301880,0.307373,484
57552347,10011,0.904785,-0.306763,0.328125,485
57562340,9993,0.856934,-0.293457,0.343994,485
57572324,9984,0.824951,-0.275757,0.352661,488
57582343,10019,0.796997,-0.250977,0.358276,492
57592324,9981,0.768311,-0.232422,0.363281,498
57602336,10012,0.747437,-0.231079,0.362793,496
57612330,9994,0.734985,-0.243286,0.362183,505
57622324,9994,0.740601,-0.236450,0.364502,508
57632352,10028,0.761841,-0.227905,0.367188,518
57642326,9974,0.767090,-0.217773,0.369385,520
57652332,10006,0.794556,-0.229126,0.373779,518
57662333,10001,0.817871,-0.236206,0.368652,517
57672332,9999,0.852051,-0.260010,0.367676,519
57682348,10016,0.857422,-0.278809,0.366211,521
57692327,9979,0.858398,-0.292480,0.366211,512
57702344,10017,0.857422,-0.301025,0.374268,503
57712357,10013,0.859375,-0.304932,0.381592,505
57722379,10022,0.864990,-0.288818,0.391113,501
57732360,9981,0.872803,-0.270874,0.394287,499
57742331,9971,0.885742,-0.257690,0.395996,498
57752339,10008,0.897095,-0.248901,0.403198,498
57762352,10013,0.911377,-0.245483,0.414185,498
57772345,9993,0.925171,-0.263672,0.423096,503
57782325,9980,0.930420,-0.274414,0.425049,508
57792353,10028,0.925903,-0.277832,0.424072,513
57802333,9980,0.918701,-0.274414,0.426270,517
57812328,9995,0.908569,-0.265991,0.428467,526
57822353,10025,0.896606,-0.260620,0.430908,530
57832341,9988,0.875122,-0.259766,0.433594,540
57842352,10011,0.869263,-0.264771,0.437866,546
57852336,9984,0.866455,-0.269897,0.445190,550
57862351,10015,0.865845,-0.271851,0.449585,551
57872336,9985,0.867065,-0.274658,0.454956,553
57882350,10014,0.866333,-0.281616,0.467407,557
57892344,9994,0.863037,-0.286255,0.471924,560
57902332,9988,0.860229,-0.292603,0.474976,560
57912344,10012,0.858032,-0.299438,0.478882,563
57922337,9993,0.856567,-0.309814,0.483887,561
57932360,10023,0.857910,-0.319824,0.487061,561
57942333,9973,0.856934,-0.329956,0.497070,559
57952343,10010,0.853516,-0.331787,0.501221,551
57962342,9999,0.847900,-0.328979,0.499268,555
57972338,9996,0.831543,-0.323853,0.500732,553
57982341,10003,0.826050,-0.316528,0.498291,547
57992334,9993,0.816772,-0.314941,0.494141,547
58002337,10003,0.811768,-0.313110,0.493286,545
58012342,10005,0.814331,-0.311401,0.495850,552
58022340,9998,0.827148,-0.312622,0.491699,551
58032326,9986,0.850342,-0.320557,0.490356,550
58042336,10010,0.892212,-0.330200,0.491943,549
58052324,9988,1.004395,-0.335083,0.521973,545
58062324,10000,1.025024,-0.338135,0.530151,545
58072347,10023,1.007568,-0.347046,0.523071,543
58082353,10006,0.963501,-0.358276,0.502563,539
58092335,9982,0.913452,-0.364502,0.477295,539
58102351,10016,0.818115,-0.352173,0.436157,536
58112350,9999,0.790894,-0.342773,0.423584,532
58122348,9998,0.771118,-0.335938,0.412354,527
58132374,10026,0.765259,-0.335571,0.403198,517
58142341,9967,0.766357,-0.331421,0.394531,517
58152325,9984,0.774658,-0.324341,0.385620,511
58162327,10002,0.809082,-0.310547,0.369873,508
58172328,10001,0.829468,-0.301880,0.362549,502
58182329,10001,0.858276,-0.294922,0.359009,492
58192341,10012,0.884399,-0.295288,0.357056,492
58202327,9986,0.910278,-0.303467,0.357300,489
58212339,10012,0.941284,-0.345947,0.365601,489
58222353,10014,0.946899,-0.365601,0.371216,489
58232343,9990,0.943970,-0.375000,0.375610,486
58242332,9989,0.933838,-0.370850,0.375977,485
58252328,9996,0.916504,-0.360229,0.371826,486
58262332,10004,0.897583,-0.343506,0.350220,482
58272328,9996,0.864258,-0.317383,0.338745,487
58282325,9997,0.854492,-0.309326,0.332886,489
58292324,9999,0.853516,-0.306641,0.331665,490
58302347,10023,0.863159,-0.310425,0.328369,497
58312345,9998,0.878540,-0.318237,0.328247,500
58322353,10008,0.935059,-0.332397,0.333374,502
58332380,10027,0.971436,-0.339478,0.336548,498
58342355,9975,1.005493,-0.345581,0.338501,503
58352345,9990,1.036377,-0.355103,0.337280,507
58362348,10003,1.061646,-0.362183,0.333130,505
58372344,9996,1.078857,-0.360107,0.319946,511
58382350,10006,1.085938,-0.362183,0.313599,506
58392354,10004,1.075806,-0.360474,0.312012,510
58402346,9992,1.060913,-0.350830,0.317261,508
58412350,10004,1.039917,-0.334351,0.319580,506
58422326,9976,1.010376,-0.316650,0.319214,504
58432349,10023,0.949829,-0.276978,0.321045,496
58442334,9985,0.918945,-0.259033,0.323364,499
58452330,9996,0.890015,-0.244141,0.321045,503
58462335,10005,0.867065,-0.228516,0.314697,495
58472351,10016,0.847900,-0.214600,0.310425,497
58482338,9987,0.820923,-0.201660,0.304077,505
58492335,9997,0.810425,-0.203003,0.306152,505
58502330,9995,0.805542,-0.210327,0.308838,505
58512333,10003,0.811035,-0.221802,0.311401,497
58522344,10011,0.837646,-0.239990,0.311157,503
58532370,10026,0.879028,-0.260864,0.306274,500
58542343,9973,0.949097,-0.290039,0.317261,493
58552342,9999,0.958374,-0.299194,0.324951,496
58562340,9998,0.952393,-0.303955,0.334839,494
58572347,10007,0.936157,-0.310181,0.344971,494
58582335,9988,0.906982,-0.314697,0.349609,487
58592353,10018,0.832031,-0.302490,0.359985,488
58602339,9986,0.801392,-0.282715,0.361084,494
58612340,10001,0.770874,-0.258911,0.360107,495
58622331,9991,0.745605,-0.240845,0.360474,501
58632351,10020,0.732666,-0.233398,0.361450,510
58642339,9988,0.727417,-0.226685,0.361694,520
58652336,9997,0.748901,-0.224487,0.359009,522
58662345,10009,0.766724,-0.220581,0.354370,529
58672328,9983,0.773071,-0.231689,0.362549,533
58682335,10007,0.823486,-0.255981,0.363892,533
58692344,10009,0.857300,-0.266846,0.370361,534
58702349,10005,0.902100,-0.280029,0.377319,535
58712338,9989,0.915039,-0.304199,0.376953,534
58722329,9991,0.910767,-0.324707,0.376831,533
58732341,10012,0.904419,-0.335815,0.381714,530
58742332,9991,0.888306,-0.325562,0.383179,524
58752338,10006,0.876587,-0.318481,0.389282,526
58762376,10038,0.840210,-0.293579,0.394043,518
58772356,9980,0.838257,-0.283447,0.393433,525
58782328,9972,0.834229,-0.274048,0.390381,526
58792351,10023,0.843384,-0.267456,0.390137,527
58802330,9979,0.860596,-0.265381,0.392456,520
58812339,10009,0.893555,-0.266113,0.406616,529
58822347,10008,0.901489,-0.266479,0.414673,525
58832327,9980,0.906128,-0.272583,0.423462,533
58842353,10026,0.904541,-0.279907,0.425049,537
58852336,9983,0.898071,-0.287964,0.420654,538
58862345,10009,0.885132,-0.295898,0.412598,541
58872338,9993,0.864746,-0.293335,0.402100,545
58882327,9989,0.856689,-0.285156,0.400391,540
58892350,10023,0.854614,-0.276611,0.405884,541
58902338,9988,0.857422,-0.267578,0.413574,547
58912350,10012,0.862549,-0.271118,0.421875,545
58922328,9978,0.879883,-0.276123,0.437012,542
58932350,10022,0.876709,-0.277344,0.436768,544
58942331,9981,0.873047,-0.279907,0.437134,540
58952342,10011,0.867554,-0.281616,0.437500,540
58962338,9996,0.855225,-0.288452,0.440674,537
58972348,10010,0.846558,-0.296265,0.450684,542
58982357,10009,0.832275,-0.308838,0.456055,538
58992340,9983,0.825195,-0.313354,0.461304,534
59002336,9996,0.825806,-0.320801,0.466675,535
59012343,10007,0.822632,-0.324829,0.469604,538
59022341,9998,0.819336,-0.328857,0.470703,532
59032329,9988,0.810303,-0.327026,0.468994,537
59042345,10016,0.803955,-0.332153,0.463135,538
59052331,9986,0.812134,-0.332275,0.459473,538
59062346,10015,0.824341,-0.337891,0.455566,537
59072338,9992,0.834961,-0.340088,0.455933,537
59082330,9992,0.852783,-0.346802,0.465210,540
59092339,10009,0.926025,-0.350830,0.470581,541
59102332,9993,0.994507,-0.361694,0.485229,542
59112332,10000,1.048584,-0.369873,0.500000,541
59122345,10013,1.064453,-0.366211,0.511353,539
59132333,9988,1.036255,-0.368774,0.512939,541
59142348,10015,0.915405,-0.379761,0.464111,538
59152330,9982,0.853394,-0.366699,0.426880,539
59162342,10012,0.807983,-0.346069,0.396973,536
59172336,9994,0.782104,-0.323975,0.373901,528
59182345,10009,0.774292,-0.306030,0.358032,524
59192352,10007,0.792114,-0.302368,0.346558,520
59202349,9997,0.820068,-0.309814,0.345581,512
59212332,9983,0.850342,-0.317139,0.336426,481
59222341,10009,0.871460,-0.318848,0.329346,498
59232352,10011,0.898437,-0.321533,0.324585,492
59242333,9981,0.924683,-0.328003,0.322754,487
59252350,10017,0.958862,-0.335327,0.322388,483
59262352,10002,0.963745,-0.335693,0.325195,477
59272352,10000,0.958496,-0.333618,0.328247,473
59282351,9999,0.940796,-0.326904,0.332153,470
59292342,9991,0.911621,-0.320435,0.331787,473
59302331,9989,0.844604,-0.304321,0.331665,477
59312352,10021,0.808594,-0.299316,0.323364,484
59322324,9972,0.777100,-0.277832,0.314331,489
59332344,10020,0.770264,-0.255371,0.306763,496
59342342,9998,0.757202,-0.254761,0.293091,506
59352331,9989,0.761841,-0.264648,0.285034,512
59362328,9997,0.833984,-0.283813,0.295776,515
59372353,10025,0.887573,-0.305542,0.302368,527
59382354,10001,0.962769,-0.333618,0.309448,532
59392368,10014,1.026367,-0.362061,0.318848,538
59402350,9982,1.078125,-0.385620,0.321045,542
59412350,10000,1.142578,-0.406616,0.321655,538
59422345,9995,1.147339,-0.410034,0.320801,540
59432350,10005,1.130859,-0.402588,0.316895,546
59442328,9978,1.099609,-0.397461,0.311157,545
59452328,10000,1.069092,-0.396362,0.308228,543
59462336,10008,1.037231,-0.386719,0.309326,539
59472326,9990,0.965088,-0.338501,0.315918,531
59482334,10008,0.929321,-0.300049,0.320313,536
59492325,9991,0.899414,-0.265259,0.323242,531
59502325,10000,0.873169,-0.242187,0.316772,531
59512327,10002,0.851196,-0.232300,0.311401,529
59522344,10017,0.832031,-0.221069,0.302002,528
59532333,9989,0.827271,-0.219360,0.300171,528
59542340,10007,0.827148,-0.223389,0.302368,526
59552342,10002,0.831909,-0.233887,0.307983,518
59562333,9991,0.835815,-0.250854,0.317505,521
59572339,10006,0.841675,-0.270142,0.323975,511
59582355,10016,0.837402,-0.295410,0.325317,512
59592342,9987,0.832642,-0.295532,0.325317,509
59602347,10005,0.828491,-0.293213,0.323730,504
59612342,9995,0.840942,-0.293579,0.317261,493
59622338,9996,0.883911,-0.295532,0.304565,490
59632340,10002,1.004150,-0.305176,0.296265,489
59642336,9996,1.031738,-0.310669,0.301025,484
59652338,10002,1.021973,-0.312988,0.310425,487
59662345,10007,0.992310,-0.319946,0.316040,485
59672344,9999,0.952515,-0.328003,0.320068,485
59682337,9993,0.914429,-0.317017,0.323486,489
59692328,9991,0.842529,-0.294922,0.328003,491
59702353,10025,0.818115,-0.276978,0.334106,490
59712338,9985,0.785034,-0.244873,0.321289,496
59722334,9996,0.771362,-0.228760,0.317749,510
59732326,9992,0.773437,-0.223022,0.327271,515
59742354,10028,0.758057,-0.211182,0.331299,515
59752341,9987,0.774658,-0.223755,0.340942,521
59762348,10007,0.793701,-0.252075,0.345947,528
59772347,9999,0.815796,-0.281372,0.345093,527
59782357,10010,0.839966,-0.302979,0.342041,524
59792352,9995,0.876465,-0.317993,0.339478,521
59802350,9998,0.883423,-0.324707,0.334717,519
59812346,9996,0.881104,-0.341797,0.329468,524
59822333,9987,0.872681,-0.354126,0.326172,521
59832339,10006,0.859497,-0.346069,0.327637,519
59842352,10013,0.844482,-0.321777,0.335571,515
59852346,9994,0.831787,-0.283447,0.342285,511
59862336,9990,0.841309,-0.274536,0.341797,503
59872329,9993,0.862427,-0.267944,0.342896,507
59882341,10012,0.889282,-0.262695,0.352417,498
59892348,10007,0.917480,-0.255859,0.368530,506
59902347,9999,0.948853,-0.244141,0.406372,506
59912349,10002,0.959595,-0.241089,0.424805,510
59922326,9977,0.951416,-0.243896,0.437744,514
59932339,10013,0.933838,-0.255005,0.443970,521
59942353,10014,0.911255,-0.268555,0.437622,522
59952350,9997,0.887573,-0.276123,0.430908,527
59962324,9974,0.864136,-0.279785,0.421509,542
59972326,10002,0.862305,-0.279785,0.421631,550
59982328,10002,0.865845,-0.283569,0.429565,553
59992378,10050,0.875244,-0.292847,0.443604,557
60002357,9979,0.882324,-0.304810,0.450806,557
60012339,9982,0.885132,-0.324829,0.450684,557
60022345,10006,0.885254,-0.328857,0.446411,558
60032334,9989,0.880737,-0.325195,0.442993,555
60042348,10014,0.875000,-0.316528,0.440063,551
60052336,9988,0.872314,-0.304077,0.439941,548
60062350,10014,0.866821,-0.293091,0.442627,550
60072342,9992,0.854126,-0.280640,0.446655,551
60082335,9993,0.836548,-0.282471,0.447266,545
60092328,9993,0.819458,-0.297241,0.441406,546
60102344,10016,0.809570,-0.307007,0.433350,543
60112350,10006,0.797729,-0.308105,0.424438,544
60122324,9974,0.784058,-0.318359,0.411255,551
60132352,10028,0.779663,-0.320435,0.406006,553
60142329,9977,0.776245,-0.323364,0.401611,551
60152348,10019,0.772949,-0.332397,0.398926,552
60162327,9979,0.770874,-0.338989,0.391846,549
60172348,10021,0.781372,-0.348389,0.387695,551
60182342,9994,0.817017,-0.353516,0.388184,546
60192325,9983,0.841187,-0.355591,0.377563,548
60202328,10003,0.894531,-0.366943,0.368896,548
60212337,10009,0.982544,-0.373169,0.377563,545
60222370,10033,1.068359,-0.366577,0.408936,547
60232333,9963,1.087280,-0.363647,0.445312,549
60242328,9995,1.012207,-0.385620,0.420776,550
60252349,10021,0.945923,-0.416260,0.388428,547
60262340,9991,0.895264,-0.434326,0.351685,552
60272338,9998,0.852173,-0.429810,0.325928,541
60282341,10003,0.824341,-0.412231,0.304688,536
60292341,10000,0.807373,-0.374634,0.304932,528
60302352,10011,0.811646,-0.368652,0.300659,516
60312343,9991,0.821167,-0.369873,0.295776,510
60322351,10008,0.836670,-0.374634,0.292603,502
60332349,9998,0.856079,-0.380249,0.289673,491
60342344,9995,0.892822,-0.378174,0.293701,486
60352324,9980,0.910156,-0.371948,0.298584,483
60362331,10007,0.922607,-0.370605,0.297729,476
60372327,9996,0.933228,-0.370728,0.295898,480
60382331,10004,0.936401,-0.367310,0.297485,480
60392350,10019,0.937378,-0.354004,0.302124,484
60402328,9978,0.922485,-0.351563,0.300659,486
60412368,10040,0.922729,-0.331665,0.297241,488
60422348,9980,0.933960,-0.317749,0.297852,485
60432326,9978,0.937988,-0.314697,0.292969,496
60442351,10025,0.951172,-0.313110,0.296265,506
60452341,9990,0.974609,-0.320923,0.315063,510
60462349,10008,0.982422,-0.339233,0.324585,518
60472325,9976,0.989502,-0.359863,0.328979,521
60482349,10024,0.998535,-0.379639,0.331909,521
60492331,9982,1.007813,-0.388916,0.334839,531
60502346,10015,1.034058,-0.377563,0.344971,533
60512328,9982,1.044678,-0.356934,0.351318,531
60522348,10020,1.047485,-0.343262,0.358276,533
60532338,9990,1.039795,-0.341431,0.360596,534
60542349,10011,1.029785,-0.336304,0.362061,533
60552353,10004,1.015259,-0.322388,0.362061,534
60562342,9989,0.969116,-0.297729,0.353882,529
60572347,10005,0.943604,-0.285645,0.350708,529
60582332,9985,0.919434,-0.275269,0.348145,527
60592325,9993,0.893188,-0.264282,0.345581,523
60602327,10002,0.877563,-0.258545,0.342041,514
60612344,10017,0.848755,-0.250366,0.337158,515
60622352,10008,0.839478,-0.247437,0.334961,509
60632343,9991,0.832520,-0.248169,0.330322,513
60642332,9989,0.825439,-0.249512,0.324951,511
60652347,10015,0.820068,-0.249390,0.321167,505
60662330,9983,0.816162,-0.246094,0.316406,499
60672350,10020,0.808716,-0.250244,0.317993,494
60682328,9978,0.805542,-0.256348,0.320679,490
60692327,9999,0.802612,-0.269531,0.318726,484
60702342,10015,0.798462,-0.282349,0.314819,479
60712328,9986,0.792236,-0.288452,0.310913,468
60722337,10009,0.779907,-0.284302,0.301880,474
60732343,10006,0.797974,-0.288086,0.295776,473
60742345,10002,0.847656,-0.294678,0.296143,472
60752326,9981,0.901611,-0.297241,0.298584,472
60762329,10003,0.939453,-0.299072,0.303833,472
60772350,10021,0.950562,-0.300171,0.335205,476
60782327,9977,0.914062,-0.319092,0.312988,482
60792350,10023,0.906006,-0.329224,0.307495,491
60802369,10019,0.878174,-0.330200,0.307373,506
60812378,10009,0.844116,-0.314087,0.311035,514
60822353,9975,0.818115,-0.292969,0.320313,521
60832341,9988,0.788696,-0.277100,0.336548,529
60842351,10010,0.776733,-0.274048,0.339966,532
60852333,9982,0.775513,-0.270264,0.347534,545
60862326,9993,0.767700,-0.250732,0.354004,545
60872338,10012,0.789551,-0.255981,0.354126,554
60882325,9987,0.783936,-0.298340,0.358154,555
60892348,10023,0.821167,-0.304199,0.362915,548
60902340,9992,0.836792,-0.322510,0.363525,553
60912348,10008,0.849609,-0.342896,0.364868,552
60922351,10003,0.851562,-0.362305,0.358643,548
60932347,9996,0.854980,-0.376465,0.355713,545
60942333,9986,0.856567,-0.377930,0.347534,538
60952345,10012,0.871460,-0.369385,0.347290,536
60962345,10000,0.899170,-0.356812,0.351929,531
60972342,9997,0.935059,-0.340942,0.363647,527
60982344,10002,0.966919,-0.329956,0.376221,523
60992338,9994,1.020508,-0.319702,0.393066,526
61002349,10011,1.004761,-0.318848,0.401733,525
61012325,9976,1.005371,-0.320801,0.412476,527
61022368,10043,0.995605,-0.317261,0.418213,525
61032354,9986,0.970459,-0.312622,0.419678,534
61042353,9999,0.940308,-0.312500,0.421021,533
61052324,9971,0.883057,-0.302124,0.428345,541
61062327,10003,0.863037,-0.294067,0.436157,546
61072338,10011,0.845093,-0.288086,0.438232,543
61082353,10015,0.832275,-0.286743,0.439575,552
61092336,9983,0.840454,-0.291870,0.446167,550
61102338,10002,0.847412,-0.311890,0.435669,545
61112333,9995,0.842773,-0.321533,0.425415,548
61122350,10017,0.850220,-0.324097,0.421753,551
61132351,10001,0.860352,-0.321045,0.426392,549
61142326,9975,0.871094,-0.317871,0.433960,544
61152324,9998,0.871704,-0.317871,0.444580,540
61162348,10024,0.859497,-0.337402,0.459473,542
61172327,9979,0.848877,-0.344360,0.460815,534
61182325,9998,0.837524,-0.346313,0.460205,533
61192327,10002,0.824219,-0.341553,0.457397,529
61202353,10026,0.811646,-0.339844,0.454224,526
61212324,9971,0.786255,-0.332397,0.450806,513
61222334,10010,0.776489,-0.327881,0.447021,517
61232343,10009,0.777344,-0.330444,0.441162,513
61242329,9986,0.792358,-0.330811,0.437988,507
61252346,10017,0.808716,-0.335938,0.436890,507
61262327,9981,0.816162,-0.343384,0.434448,505
61272338,10011,0.843506,-0.365112,0.431519,501
61282349,10011,0.853638,-0.374390,0.424561,506
61292343,9994,0.862427,-0.378784,0.412354,509
61302324,9981,0.862915,-0.380859,0.399170,508
61312343,10019,0.862427,-0.382202,0.382813,506
61322327,9984,0.900513,-0.385376,0.352783,507
61332337,10010,0.938721,-0.381958,0.370361,501
61342353,10016,0.971558,-0.384888,0.397949,503
61352350,9997,0.989258,-0.404663,0.421021,498
61362331,9981,0.979980,-0.435669,0.426636,492
61372335,10004,0.953247,-0.453857,0.380981,491
61382342,10007,0.897827,-0.438599,0.359375,487
61392330,9988,0.887085,-0.423584,0.343994,480
61402335,10005,0.882812,-0.397705,0.335083,473
61412340,10005,0.892090,-0.371826,0.331055,470
61422331,9991,0.904785,-0.349487,0.328735,470
61432375,10044,0.945068,-0.333984,0.333618,471
61442328,9953,0.960327,-0.334473,0.331543,470
61452348,10020,0.969604,-0.333374,0.326172,473
61462350,10002,0.973267,-0.327271,0.321411,475
61472335,9985,0.971313,-0.317139,0.315674,475
61482338,10003,0.965576,-0.303223,0.307861,486
61492343,10005,0.948853,-0.276367,0.303467,489
61502348,10005,0.942993,-0.267456,0.300293,503
61512353,10005,0.943726,-0.262573,0.300903,504
61522330,9977,0.953857,-0.261719,0.303345,516
61532342,10012,0.973755,-0.266357,0.312988,528
61542324,9982,1.035156,-0.289429,0.334717,532
61552344,10020,1.058228,-0.305908,0.335327,544
61562346,10002,1.073364,-0.321777,0.329102,542
61572347,10001,1.081787,-0.327637,0.313965,550
61582331,9984,1.079590,-0.339844,0.296265,554
61592324,9993,1.076904,-0.349731,0.275635,553
61602335,10011,1.046875,-0.347168,0.270630,559
61612333,9998,1.022583,-0.348022,0.270508,558
61622337,10004,0.999023,-0.348389,0.270386,554
61632370,10033,0.973022,-0.343628,0.272095,552
61642342,9972,0.944214,-0.322632,0.272339,547
61652906,10564,0.881836,-0.252441,0.271606,543
61662331,9425,0.848999,-0.224731,0.272705,537
61672336,10005,0.826538,-0.208984,0.268066,536
61682351,10015,0.804565,-0.205933,0.263306,530
61692334,9983,0.790161,-0.203979,0.259155,527
61702352,10018,0.775391,-0.213745,0.253418,520
61712349,9997,0.773315,-0.221924,0.255737,514
61722343,9994,0.772583,-0.230591,0.258911,507
61732333,9990,0.774048,-0.238647,0.268433,505
61742352,10019,0.775391,-0.251465,0.279053,490
61752328,9976,0.779419,-0.263306,0.286621,488
61762348,10020,0.790527,-0.288574,0.299438,474
61772334,9986,0.802368,-0.296997,0.302246,474
61782353,10019,0.816406,-0.304565,0.305420,471
61792337,9984,0.829468,-0.311035,0.312256,469
61802331,9994,0.839233,-0.314941,0.314453,468
61812350,10019,0.876465,-0.318726,0.308594,465
61822351,10001,0.910278,-0.329468,0.300049,469
61832391,10040,0.960327,-0.340332,0.291260,468
61842379,9988,1.007813,-0.348511,0.297363,476
61852324,9945,1.036987,-0.348755,0.306641,476
61862326,10002,1.024048,-0.331543,0.307007,482
61872352,10026,0.977051,-0.345337,0.322754,491
61882337,9985,0.926270,-0.351807,0.322754,500
61892354,10017,0.893433,-0.347290,0.334839,510
61902349,9995,0.871216,-0.337891,0.344727,509
61912342,9993,0.866455,-0.334351,0.355225,517
61922345,10003,0.845703,-0.299194,0.364624,521
61932332,9987,0.842041,-0.283081,0.376831,520
61942350,10018,0.843628,-0.268677,0.384399,520
61952345,9995,0.846436,-0.262695,0.390747,527
61962329,9984,0.852661,-0.269653,0.395142,526
61972349,10020,0.861572,-0.293213,0.396362,527
61982347,9998,0.885498,-0.355713,0.403564,528
61992351,10004,0.894409,-0.378174,0.406860,526
62002348,9997,0.897461,-0.381958,0.401855,524
62012326,9978,0.888672,-0.392456,0.392334,519
62022351,10025,0.883179,-0.408325,0.379639,517
62032326,9975,0.893188,-0.369995,0.374146,513
62042344,10018,0.906982,-0.321289,0.383423,508
62052379,10035,0.919800,-0.289185,0.398071,506
62062348,9969,0.924316,-0.288086,0.411865,503
62072335,9987,0.926514,-0.315796,0.423950,501
62082324,9989,0.924561,-0.320557,0.465088,494
62092345,10021,0.902222,-0.304199,0.446899,500
62102329,9984,0.896484,-0.313110,0.446045,502
62112326,9997,0.887817,-0.322876,0.439575,502
62122341,10015,0.879639,-0.329834,0.437622,506
62132340,9999,0.871460,-0.330078,0.441406,507
62142334,9994,0.855225,-0.331543,0.451050,510
62152378,10044,0.847412,-0.340820,0.448120,515
62162341,9963,0.843872,-0.346436,0.443848,515
62172332,9991,0.843262,-0.354980,0.436646,518
62182338,10006,0.842651,-0.362793,0.427612,519
62192338,10000,0.838379,-0.359863,0.415405,523
62202340,10002,0.836792,-0.353638,0.411621,522
62212331,9991,0.835205,-0.348022,0.407227,524
62222333,10002,0.837524,-0.343384,0.404785,524
62232333,10000,0.830688,-0.349365,0.405640,526
62242329,9996,0.825439,-0.367432,0.404663,528
62252353,10024,0.824707,-0.368286,0.402954,528
62262343,9990,0.833984,-0.367920,0.399780,531
62272334,9991,0.831299,-0.362305,0.395020,531
62282350,10016,0.823120,-0.350708,0.387695,531
62292339,9989,0.813110,-0.342773,0.381714,528
62302330,9991,0.802856,-0.332397,0.371704,535
62312330,10000,0.795532,-0.325195,0.367676,535
62322332,10002,0.801636,-0.319336,0.368042,532
62332340,10008,0.811401,-0.314819,0.368774,523
62342324,9984,0.817871,-0.317261,0.366333,522
62352328,10004,0.826538,-0.322266,0.366943,521
62362346,10018,0.844482,-0.329834,0.360596,521
62372338,9992,0.857056,-0.331421,0.357788,512
62382330,9992,0.880371,-0.335693,0.351318,514
62392334,10004,0.911133,-0.340332,0.351929,511
62402350,10016,0.947754,-0.349243,0.357666,510
62412346,9996,0.973022,-0.339966,0.368408,509
62422347,10001,0.965454,-0.348755,0.364868,513
62432325,9978,0.936646,-0.358521,0.352905,507
62442350,10025,0.917480,-0.347412,0.345703,512
62452358,10008,0.905640,-0.336426,0.338745,510
62462345,9987,0.894897,-0.337158,0.331909,511
62472331,9986,0.890381,-0.351440,0.322632,509
62482328,9997,0.898560,-0.355225,0.320190,511
62492347,10019,0.908691,-0.359009,0.318237,506
62502352,10005,0.919922,-0.356567,0.317383,510
62512334,9982,0.939453,-0.350342,0.314453,510
62522346,10012,0.956665,-0.335571,0.306030,513
62532341,9995,0.966675,-0.333252,0.308716,509
62542330,9989,0.975586,-0.337769,0.309326,513
62552348,10018,0.977051,-0.344238,0.310669,515
62562326,9978,0.977661,-0.347534,0.309814,513
62572339,10013,0.972290,-0.342651,0.309570,516
62582346,10007,0.953857,-0.322754,0.310913,513
62592342,9996,0.945312,-0.311523,0.311157,511
62602341,9999,0.937500,-0.299316,0.309448,510
62612331,9990,0.937866,-0.288818,0.310059,512
62622336,10005,0.946777,-0.284546,0.313721,512
62632328,9992,0.982666,-0.288940,0.319702,514
62642328,10000,1.003540,-0.298950,0.322754,518
62652327,9999,1.024902,-0.311646,0.324097,509
62662354,10027,1.044434,-0.310547,0.322266,517
62672338,9984,1.056274,-0.316406,0.321167,519
62682327,9989,1.061401,-0.327271,0.286987,518
62692328,10001,1.037964,-0.336792,0.306763,522
62702326,9998,1.015991,-0.339355,0.303955,522
62712338,10012,0.991455,-0.341064,0.298828,527
62722345,10007,0.961060,-0.336548,0.296753,522
62732338,9993,0.929565,-0.329468,0.294922,512
62742326,9988,0.869141,-0.288696,0.303101,509
62752345,10019,0.840820,-0.261597,0.298218,512
62762330,9985,0.815063,-0.242920,0.291870,509
62772332,10002,0.794067,-0.229858,0.284424,505
62782350,10018,0.780029,-0.220947,0.280762,508
62792331,9981,0.772217,-0.216919,0.275146,506
62802338,10007,0.780273,-0.230713,0.293213,502
62812332,9994,0.775635,-0.233032,0.286255,495
62822324,9992,0.786865,-0.253174,0.287109,487
62832325,10001,0.804810,-0.266724,0.295532,488
62842351,10026,0.818115,-0.275879,0.302490,476
62852385,10034,0.829590,-0.290161,0.318726,478
62862332,9947,0.825439,-0.307007,0.316895,472
62872344,10012,0.831299,-0.319824,0.302734,464
62882326,9982,0.876709,-0.323975,0.287842,465
62892327,10001,0.946899,-0.319092,0.289673,462
62902341,10014,1.004272,-0.309448,0.316284,461
62912326,9985,1.024536,-0.323608,0.322510,460
62922327,10001,1.009888,-0.337402,0.319214,461
62932340,10013,0.977661,-0.339600,0.313843,466
62942332,9992,0.927246,-0.322998,0.313843,472
62952332,10000,0.872070,-0.298584,0.322266,477
62962332,10000,0.777710,-0.257324,0.345215,484
62972336,10004,0.750122,-0.249023,0.347778,498
62982350,10014,0.735718,-0.247437,0.351074,509
62992346,9996,0.735107,-0.248535,0.359253,520
63002342,9996,0.745850,-0.250977,0.367065,527
63012339,9997,0.779297,-0.268311,0.373291,540
63022331,9992,0.807739,-0.272095,0.373901,547
63032327,9996,0.837158,-0.289795,0.372314,552
63042352,10025,0.868652,-0.318115,0.373047,551
63052333,9981,0.888550,-0.341187,0.371338,551
63062380,10047,0.908813,-0.373779,0.375366,550
63072352,9972,0.926270,-0.409790,0.384033,548
63082330,9978,0.920532,-0.406860,0.385132,539
63092335,10005,0.911255,-0.395630,0.384155,536
63102351,10016,0.901611,-0.374878,0.385254,536
63112331,9980,0.893555,-0.350586,0.388306,528
63122326,9995,0.881592,-0.336548,0.389038,526
63132350,10024,0.891113,-0.325073,0.401001,528
63142346,9996,0.905029,-0.298096,0.410767,522
63152335,9989,0.911743,-0.284790,0.412964,523
63162340,10005,0.913940,-0.288574,0.411987,519
63172328,9988,0.911743,-0.300049,0.408203,526
63182343,10015,0.900757,-0.326050,0.411133,521
