t_us,dt_us,ax,ay,az,ppg
11039870,10022,1.063477,-0.483521,0.454346,524
11049853,9983,1.074829,-0.504517,0.472168,529
11059862,10009,1.065918,-0.529785,0.473267,530
11069854,9992,1.043213,-0.548096,0.464844,527
11079853,9999,1.020630,-0.552856,0.450317,525
11089872,10019,0.992310,-0.547729,0.440308,522
11099851,9979,0.934570,-0.540894,0.428467,521
11109861,10010,0.901611,-0.526611,0.430664,513
11119869,10008,0.881470,-0.507202,0.429687,520
11129866,9997,0.858887,-0.479858,0.429687,513
11139865,9999,0.838745,-0.454712,0.427246,516
11149853,9988,0.825317,-0.437134,0.405884,518
11159853,10000,0.791748,-0.436890,0.394775,520
11169897,10044,0.791626,-0.424072,0.368164,514
11179858,9961,0.798828,-0.417603,0.359619,520
11189870,10012,0.787231,-0.427856,0.341797,516
11199863,9993,0.777466,-0.455078,0.333374,521
11209876,10013,0.778442,-0.479370,0.314209,519
11219861,9985,0.777222,-0.493530,0.313110,522
11229856,9995,0.806030,-0.505127,0.303589,521
11239867,10011,0.808594,-0.521240,0.294678,518
11249866,9999,0.808960,-0.530640,0.284668,515
11259857,9991,0.832520,-0.517578,0.261841,517
11269861,10004,0.965454,-0.505371,0.258423,521
11279849,9988,1.028198,-0.514771,0.264282,518
11289860,10011,1.096680,-0.553101,0.276123,521
11299849,9989,1.131348,-0.590454,0.285278,524
11309854,10005,1.166504,-0.631348,0.300171,524
11319850,9996,1.128174,-0.676392,0.307007,522
11329864,10014,1.066895,-0.680420,0.339478,520
11339848,9984,1.008301,-0.673218,0.375000,520
11349880,10032,0.961792,-0.660645,0.402100,514
11359870,9990,0.937988,-0.644775,0.434326,517
11369874,10004,0.928101,-0.607422,0.495850,513
11379852,9978,0.927856,-0.577515,0.523071,520
11389857,10005,0.929199,-0.538696,0.544189,518
11399868,10011,0.927612,-0.484619,0.563599,520
11409858,9990,0.906494,-0.435425,0.584473,525
11419877,10019,0.903442,-0.421265,0.591553,524
11429857,9980,0.916992,-0.421753,0.605347,528
11439867,10010,0.900635,-0.407104,0.633667,523
11449862,9995,0.950195,-0.420776,0.663696,531
11459876,10014,0.965454,-0.455444,0.692749,534
11469849,9973,0.945557,-0.460571,0.707397,529
11479855,10006,0.909546,-0.414795,0.710571,534
11489876,10021,0.884033,-0.416626,0.706665,536
11499857,9981,0.844604,-0.430420,0.703857,529
11509871,10014,0.801636,-0.447021,0.707520,536
11519870,9999,0.758667,-0.463867,0.707886,528
11529884,10014,0.711426,-0.479004,0.661743,534
11539867,9983,0.623779,-0.485229,0.621216,527
11549848,9981,0.585571,-0.484741,0.578125,530
11559875,10027,0.555298,-0.477173,0.539795,529
11569856,9981,0.536255,-0.457886,0.504517,523
11579854,9998,0.524658,-0.429932,0.472290,530
11589848,9994,0.509155,-0.380615,0.438477,530
11599875,10027,0.497803,-0.336304,0.414917,532
11609874,9999,0.492187,-0.318726,0.393921,530
11619862,9988,0.487427,-0.313477,0.379028,532
11629853,9991,0.484741,-0.311035,0.359741,533
11639852,9999,0.486328,-0.310791,0.333740,529
11649865,10013,0.484131,-0.315430,0.318970,530
11659875,10010,0.477905,-0.312500,0.303589,536
11669876,10001,0.471313,-0.304199,0.289673,534
11679866,9990,0.468018,-0.292358,0.275269,536
11689867,10001,0.467896,-0.284790,0.266235,535
11699876,10009,0.469849,-0.274780,0.254028,528
11709871,9995,0.475220,-0.272095,0.252686,531
11719874,10003,0.484009,-0.273315,0.251709,526
11729896,10022,0.489868,-0.272583,0.253906,525
11739873,9977,0.501831,-0.274048,0.255737,528
11749878,10005,0.552368,-0.295898,0.267700,523
11759877,9999,0.579956,-0.307739,0.275757,524
11769872,9995,0.624756,-0.311157,0.280151,525
11779848,9976,0.700684,-0.328857,0.283081,524
11789848,10000,0.747314,-0.331787,0.285645,516
11799871,10023,0.812134,-0.328857,0.298950,521
11809871,10000,0.903198,-0.361084,0.341431,524
11819852,9981,0.923950,-0.385498,0.361084,524
11829873,10021,0.950195,-0.388672,0.375244,520
11839860,9987,0.885986,-0.384644,0.386597,519
11849863,10003,0.936401,-0.380737,0.411011,523
11859869,10006,0.982666,-0.370850,0.436768,514
11869853,9984,0.991211,-0.361816,0.432251,518
11879865,10012,1.015015,-0.364502,0.393677,511
11889850,9985,1.018066,-0.366089,0.361084,516
11899863,10013,1.018555,-0.381836,0.352539,508
11909886,10023,1.037231,-0.408081,0.379272,509
11919850,9964,1.052490,-0.464966,0.446167,512
11929885,10035,1.085205,-0.482056,0.463257,514
11939863,9978,1.092041,-0.479614,0.477051,508
11949860,9997,1.083618,-0.451294,0.484009,515
11959854,9994,1.108276,-0.427856,0.497559,520
11969866,10012,1.131836,-0.396729,0.507324,518
11979857,9991,1.129639,-0.372559,0.493408,518
11989850,9993,1.150513,-0.361084,0.481445,514
11999850,10000,1.154419,-0.350342,0.481689,516
12009878,10028,1.149780,-0.352539,0.481934,523
12019862,9984,1.140015,-0.369141,0.488159,526
12029876,10014,1.096191,-0.418335,0.494263,527
12039867,9991,1.067261,-0.489136,0.509277,526
12049855,9988,1.046631,-0.456909,0.502563,526
12059848,9993,0.993896,-0.498779,0.524536,527
12069859,10011,0.995605,-0.483154,0.505615,530
12079855,9996,0.930054,-0.486694,0.498169,530
12089857,10002,0.886475,-0.497925,0.489990,523
12099857,10000,0.846924,-0.511719,0.457886,527
12109851,9994,0.865112,-0.452026,0.432983,528
12119869,10018,0.815674,-0.402588,0.400146,527
12129862,9993,0.819702,-0.423462,0.397583,527
12139864,10002,0.773437,-0.442627,0.396606,528
12149868,10004,0.816284,-0.468750,0.390747,528
12159869,10001,0.799194,-0.470581,0.409180,532
12169865,9996,0.821777,-0.453491,0.408203,535
12179877,10012,0.811646,-0.465698,0.429810,538
12189856,9979,0.835693,-0.481812,0.425903,536
12199854,9998,0.853638,-0.482666,0.415894,540
12209850,9996,0.859741,-0.486816,0.408936,540
12219865,10015,0.870361,-0.492310,0.400146,534
12229867,10002,0.878540,-0.497192,0.391846,538
12239870,10003,0.892822,-0.472534,0.358887,532
12249876,10006,0.897461,-0.457520,0.343872,536
12259895,10019,0.900757,-0.447998,0.333740,534
12269867,9972,0.903320,-0.443970,0.325195,521
12279859,9992,0.909180,-0.441284,0.318115,529
12289865,10006,0.912720,-0.441895,0.313843,528
12299849,9984,0.923218,-0.442993,0.305542,527
12309859,10010,0.928711,-0.435425,0.302734,527
12319855,9996,0.937378,-0.429565,0.300049,526
12329858,10003,0.951416,-0.427734,0.296753,516
12339871,10013,0.975586,-0.425659,0.294189,523
12349856,9985,1.048218,-0.423706,0.299805,521
12359864,10008,1.076050,-0.425293,0.295532,521
12369866,10002,1.089722,-0.426758,0.290283,522
12379851,9985,1.096802,-0.430542,0.283325,515
12389862,10011,1.096436,-0.434448,0.279419,515
12399850,9988,1.089600,-0.435181,0.281616,521
12409858,10008,1.042969,-0.428955,0.309937,520
12419875,10017,1.008057,-0.416138,0.328369,520
12429854,9979,0.987793,-0.392578,0.339111,523
12439876,10022,0.962524,-0.366577,0.345215,522
12449864,9988,0.937622,-0.346191,0.354248,518
12459869,10005,0.899048,-0.300781,0.380737,523
12469864,9995,0.889526,-0.282593,0.382202,525
12479848,9984,0.884521,-0.283936,0.391235,526
12489874,10026,0.882324,-0.303223,0.401367,521
12499866,9992,0.888306,-0.324951,0.404175,523
12509854,9988,0.896606,-0.311157,0.407104,526
12519850,9996,0.933350,-0.287354,0.409912,530
12529869,10019,0.953369,-0.261963,0.410156,525
12539866,9997,0.977783,-0.240967,0.412109,527
12549865,9999,0.998779,-0.228882,0.416992,530
12559874,10009,1.010498,-0.228027,0.420410,534
12569866,9992,1.007080,-0.232422,0.443848,524
12579868,10002,0.992432,-0.229980,0.457153,534
12589865,9997,0.965088,-0.227417,0.465942,536
12599905,10040,0.934570,-0.228760,0.466309,534
12609874,9969,0.896118,-0.232056,0.465820,532
12619854,9980,0.814941,-0.242920,0.460937,533
12629859,10005,0.786743,-0.245850,0.444458,534
12639876,10017,0.746582,-0.256470,0.448730,534
12649859,9983,0.711914,-0.252563,0.440674,530
12659869,10010,0.696411,-0.241333,0.435913,534
12669864,9995,0.681152,-0.252441,0.428955,527
12679861,9997,0.665894,-0.276367,0.413330,532
12689862,10001,0.667114,-0.267212,0.405151,532
12699859,9997,0.666504,-0.252197,0.408691,533
12709862,10003,0.679077,-0.237427,0.401733,534
12719859,9997,0.689331,-0.228271,0.396118,536
12729873,10014,0.707886,-0.227295,0.388794,535
12739859,9986,0.720337,-0.224365,0.386719,531
12749862,10003,0.730103,-0.222290,0.384888,535
12759868,10006,0.735840,-0.221680,0.382446,526
12769859,9991,0.743042,-0.224487,0.379883,531
12779861,10002,0.749146,-0.225708,0.372681,527
12789874,10013,0.768799,-0.224365,0.376099,530
12799858,9984,0.781616,-0.224365,0.381958,533
12809875,10017,0.795410,-0.225830,0.389038,530
12819860,9985,0.807251,-0.233887,0.390747,530
12829872,10012,0.819214,-0.241211,0.391602,528
12839852,9980,0.838867,-0.254639,0.387817,527
12849848,9996,0.858398,-0.260742,0.387451,527
12859858,10010,0.872925,-0.265015,0.388672,519
12869862,10004,0.893066,-0.270874,0.389160,522
12879875,10013,0.919800,-0.275269,0.389893,517
12889862,9987,0.980835,-0.274170,0.387207,521
12899869,10007,1.001465,-0.270508,0.392578,515
12909852,9983,1.018066,-0.270874,0.402222,515
12919873,10021,1.022705,-0.273071,0.408203,523
12929860,9987,1.015747,-0.279053,0.415649,521
12939862,10002,1.000854,-0.281494,0.418457,523
12949852,9990,0.959839,-0.281616,0.415894,524
12959848,9996,0.940186,-0.284790,0.411865,524
12969848,10000,0.922485,-0.287842,0.410400,523
12979856,10008,0.911255,-0.290039,0.406860,520
12999334,19478,0.903442,-0.299927,0.408447,523
13004495,5161,0.904053,-0.303955,0.406982,524
13009863,5368,0.904907,-0.307251,0.410034,522
13019870,10007,0.909790,-0.308594,0.411255,522
13029856,9986,0.913452,-0.310059,0.410156,522
13041179,11323,0.912842,-0.313843,0.411377,522
13049874,8695,0.910645,-0.314575,0.410767,516
13059853,9979,0.902344,-0.320679,0.409546,522
13069872,10019,0.901733,-0.323853,0.408813,520
13079852,9980,0.900146,-0.328491,0.407715,521
13089859,10007,0.904907,-0.330933,0.402832,513
13099872,10013,0.911377,-0.333374,0.399902,518
13109875,10003,0.936035,-0.339600,0.406860,518
13119851,9976,0.947388,-0.343750,0.412476,517
13129894,10043,0.953003,-0.348022,0.412964,517
13143142,13248,0.953369,-0.363525,0.420410,513
13149894,6752,0.000000,0.000000,0.000000,509
13159850,9956,0.962402,-0.374878,0.420288,516
13169855,10005,0.965942,-0.401123,0.419556,507
13179872,10017,0.965454,-0.416992,0.417603,511
13189852,9980,0.960937,-0.434814,0.412354,510
13199876,10024,0.953857,-0.458008,0.410278,511
13209864,9988,0.951172,-0.476196,0.413086,507
13219852,9988,0.899902,-0.495361,0.420898,500
13229875,10023,0.906372,-0.494019,0.399902,505
13239876,10001,0.899414,-0.497803,0.402954,504
13249871,9995,0.906738,-0.481567,0.399902,508
13259852,9981,0.884399,-0.474365,0.401611,502
13269855,10003,0.848145,-0.442627,0.380249,509
13279861,10006,0.866699,-0.429687,0.368042,505
13289855,9994,0.869019,-0.407104,0.361084,510
13299867,10012,0.871338,-0.380371,0.348145,513
13309866,9999,0.874878,-0.356567,0.329834,512
13319876,10010,0.875854,-0.338013,0.318970,516
13329852,9976,0.885986,-0.311035,0.302002,519
13339873,10021,0.889771,-0.308716,0.297729,519
13349870,9997,0.892700,-0.314209,0.294189,525
13359863,9993,0.892944,-0.322144,0.291870,522
13369858,9995,0.891724,-0.332397,0.289917,526
13379848,9990,0.892700,-0.366333,0.287476,523
13389872,10024,0.895630,-0.374390,0.286499,528
13399872,10000,0.914185,-0.375977,0.281860,530
13409865,9993,0.941772,-0.372437,0.278931,529
13419858,9993,0.975098,-0.370605,0.281494,519
13429865,10007,1.004883,-0.363281,0.284058,519
13439863,9998,1.026001,-0.365723,0.284668,521
13449871,10008,1.016113,-0.372681,0.282959,520
13459869,9998,1.001221,-0.378662,0.281372,516
13469859,9990,0.974976,-0.380005,0.283203,522
13479854,9995,0.942383,-0.376587,0.288086,522
13489872,10018,0.891357,-0.364502,0.308960,513
13499851,9979,0.881958,-0.355713,0.314087,513
13509867,10016,0.869263,-0.347168,0.318115,518
13519868,10001,0.861206,-0.336792,0.324585,518
13529872,10004,0.865479,-0.324463,0.329712,523
13539855,9983,0.870361,-0.315186,0.366455,523
13549859,10004,0.901123,-0.300415,0.355225,526
13559866,10007,0.905640,-0.298340,0.371582,528
13569871,10005,0.915161,-0.299805,0.387695,531
13579865,9994,0.920044,-0.316528,0.398071,536
13589872,10007,0.922729,-0.344116,0.397217,530
13599877,10005,0.933105,-0.385498,0.421509,530
13609858,9981,0.949219,-0.379272,0.434814,536
13621753,11895,0.981323,-0.349487,0.449585,534
13629849,8096,1.009277,-0.308960,0.463501,533
13639878,10029,1.041016,-0.269775,0.476440,527
13649869,9991,1.068604,-0.163940,0.502808,537
13659864,9995,1.083496,-0.143433,0.514160,537
13669899,10035,1.072998,-0.114624,0.524780,536
13679872,9973,1.050903,-0.098999,0.531982,534
13689861,9989,1.016113,-0.091064,0.537354,542
13699852,9991,0.984741,-0.084717,0.535645,536
13709866,10014,0.911499,-0.104736,0.510132,546
13719876,10010,0.853516,-0.129883,0.502686,544
13729864,9988,0.811646,-0.149292,0.489990,545
13739872,10008,0.781616,-0.173584,0.472534,538
13749852,9980,0.755737,-0.206421,0.456543,537
13759854,10002,0.735474,-0.239258,0.426758,544
13769872,10018,0.708130,-0.240845,0.409180,538
13779849,9977,0.702637,-0.236084,0.393555,536
13789869,10020,0.697388,-0.221313,0.379639,542
13799872,10003,0.695190,-0.202393,0.371216,543
13809862,9990,0.690430,-0.186279,0.370728,536
13819862,10000,0.691162,-0.182251,0.369141,541
13829864,10002,0.691406,-0.185547,0.365356,543
13839866,10002,0.693237,-0.191284,0.359131,545
13849868,10002,0.696533,-0.199219,0.353882,544
13859848,9980,0.701904,-0.205322,0.350708,545
13869861,10013,0.715454,-0.208008,0.358276,546
13879870,10009,0.728760,-0.203491,0.366821,547
13889876,10006,0.739746,-0.204590,0.373169,547
13899867,9991,0.751343,-0.208984,0.377197,547
13909863,9996,0.762085,-0.213989,0.378052,545
13919875,10012,0.780762,-0.220947,0.379395,542
13929867,9992,0.809692,-0.230103,0.382202,543
13939877,10010,0.833740,-0.233276,0.388184,544
13949849,9972,0.853516,-0.242310,0.394653,537
13959872,10023,0.884521,-0.251587,0.397827,540
13969870,9998,0.926147,-0.259277,0.401855,540
13979870,10000,1.001099,-0.274048,0.404541,538
13989867,9997,1.035156,-0.277100,0.415161,539
13999860,9993,1.054321,-0.279053,0.422974,532
14009875,10015,1.055908,-0.281616,0.428345,536
14019877,10002,1.032227,-0.291260,0.434082,536
14034342,14465,0.979980,-0.307007,0.433105,533
14039868,5526,0.955078,-0.312256,0.422485,523
14049854,9986,0.934814,-0.317749,0.412964,529
14059885,10031,0.927856,-0.319580,0.402466,525
14069868,9983,0.913696,-0.323975,0.400757,519
14079855,9987,0.922974,-0.324219,0.397339,522
14089861,10006,0.938721,-0.324829,0.400269,518
14099851,9990,0.945557,-0.322388,0.402954,519
14109849,9998,0.952881,-0.315430,0.405151,513
14119855,10006,0.959961,-0.304321,0.405273,511
14129860,10005,0.963379,-0.293701,0.401489,520
14139859,9999,0.961182,-0.287598,0.399658,518
14149858,9999,0.958862,-0.296387,0.400391,517
14159854,9996,0.961548,-0.313110,0.397705,521
14169861,10007,0.958862,-0.324829,0.395752,523
14179858,9997,0.953735,-0.330566,0.395630,523
14189865,10007,0.948120,-0.334717,0.399414,522
14199850,9985,0.936523,-0.352783,0.408203,516
14209861,10011,0.927246,-0.359375,0.411499,522
14219871,10010,0.922729,-0.369873,0.413086,522
14229855,9984,0.924683,-0.385132,0.410767,514
14239850,9995,0.926025,-0.399048,0.407227,519
14249869,10019,0.927979,-0.417603,0.402954,514
14259867,9998,0.923462,-0.421631,0.398071,511
14269851,9984,0.948242,-0.433716,0.396729,511
14279853,10002,0.916382,-0.444702,0.394287,510
14289856,10003,0.918823,-0.457642,0.393555,502
14299859,10003,0.913696,-0.458130,0.385132,498
14309850,9991,0.896973,-0.450562,0.381714,501
14319873,10023,0.895874,-0.448975,0.382202,496
14329863,9990,0.892822,-0.443237,0.382324,500
14339855,9992,0.895264,-0.435181,0.378174,498
14349860,10005,0.890015,-0.429810,0.372803,498
14359848,9988,0.871826,-0.403931,0.348145,496
14369864,10016,0.870972,-0.380981,0.324463,499
14379852,9988,0.859619,-0.355957,0.311035,497
14389856,10004,0.855713,-0.333374,0.299683,501
14399881,10025,0.852905,-0.329590,0.300781,498
14409848,9967,0.858154,-0.332764,0.298950,500
14419851,10003,0.868896,-0.339844,0.299683,509
14429900,10049,0.875977,-0.338379,0.298828,513
14439859,9959,0.885620,-0.333008,0.296387,517
14449858,9999,0.891235,-0.330811,0.293091,520
14459867,10009,0.899902,-0.329102,0.292969,521
14469860,9993,0.903564,-0.324341,0.290649,529
14479856,9996,0.901001,-0.318970,0.291260,532
14489852,9996,0.903076,-0.312012,0.289185,534
14499874,10022,0.913086,-0.309448,0.287476,538
14509852,9978,0.947266,-0.313354,0.284302,536
14519860,10008,0.998047,-0.320313,0.294067,541
14529871,10011,1.052246,-0.326538,0.307251,541
14539855,9984,1.055786,-0.338379,0.312500,542
14549875,10020,1.035400,-0.359741,0.312988,540
14563188,13313,0.986206,-0.383301,0.311157,538
14569876,6688,0.000000,0.000000,0.000000,536
14579852,9976,0.924438,-0.371948,0.326904,535
14589849,9997,0.892090,-0.359741,0.332886,526
14599856,10007,0.871948,-0.344971,0.339355,526
14609850,9994,0.862793,-0.328247,0.343994,533
14619873,10023,0.857910,-0.304810,0.346558,526
14629857,9984,0.872803,-0.258667,0.340576,542
14639855,9998,0.874146,-0.254883,0.352661,532
14649867,10012,0.883423,-0.254272,0.352783,532
14659874,10007,0.909668,-0.244141,0.358765,531
14669849,9975,0.927979,-0.242065,0.359863,536
14679867,10018,0.947998,-0.241577,0.358643,536
14689857,9990,0.995972,-0.246338,0.373291,535
14699870,10013,1.016724,-0.264893,0.382080,538
14709856,9986,1.037964,-0.292603,0.389893,535
14719876,10020,1.058960,-0.320190,0.395874,533
14729864,9988,1.068359,-0.338379,0.398560,533
14739869,10005,1.075562,-0.218018,0.439453,524
14749866,9997,1.027710,-0.303345,0.429687,525
14759873,10007,1.014648,-0.362793,0.420654,523
14769900,10027,1.001953,-0.273926,0.418335,518
14779865,9965,0.963745,-0.249756,0.403198,515
14789864,9999,0.918335,-0.275513,0.401611,515
14799894,10030,0.879150,-0.308228,0.404053,525
14809862,9968,0.855103,-0.317383,0.404663,529
14819863,10001,0.827515,-0.307373,0.400024,531
14829876,10013,0.803833,-0.298340,0.392944,532
14839866,9990,0.784424,-0.288086,0.390991,542
14849866,10000,0.760986,-0.267212,0.379272,544
14859864,9998,0.745361,-0.261108,0.376587,547
14869856,9992,0.739380,-0.265869,0.372681,551
14879862,10006,0.730347,-0.274658,0.370239,555
14889853,9991,0.723877,-0.277222,0.371216,556
14899851,9998,0.715454,-0.270020,0.373779,556
14909867,10016,0.707397,-0.232666,0.374512,558
14919849,9982,0.696655,-0.229248,0.372925,557
14929862,10013,0.698486,-0.228394,0.378174,555
14939860,9998,0.709106,-0.220337,0.382080,554
14949865,10005,0.716187,-0.210815,0.378662,553
14959886,10021,0.724854,-0.220703,0.375610,548
14969856,9970,0.737061,-0.231445,0.380127,548
14979853,9997,0.749512,-0.244141,0.384155,546
14989866,10013,0.765137,-0.258911,0.389282,542
14999851,9985,0.781372,-0.279419,0.392456,540
15009854,10003,0.797241,-0.319824,0.391602,538
15019856,10002,0.828247,-0.336914,0.388062,537
15029869,10013,0.842529,-0.351807,0.383667,533
15046216,16347,0.873779,-0.358765,0.379517,533
15051919,5703,0.000000,0.000000,0.000000,533
15059857,7938,0.897705,-0.360840,0.376465,529
15069869,10012,0.944458,-0.354370,0.372803,525
15079850,9981,0.967041,-0.379761,0.380737,524
15089859,10009,1.005493,-0.372803,0.384521,531
15099872,10013,1.038574,-0.349243,0.390381,532
15109849,9977,1.072876,-0.296753,0.382935,537
15119868,10019,1.055542,-0.281738,0.362183,543
15129873,10005,1.020264,-0.301147,0.353027,544
15139856,9983,0.977295,-0.303101,0.341187,541
15149849,9993,0.968872,-0.303223,0.322876,538
15159872,10023,0.942993,-0.302856,0.307251,529
15169863,9991,0.926025,-0.325439,0.313110,522
15179863,10000,0.928345,-0.344238,0.318359,513
15189854,9991,0.932373,-0.347168,0.320801,513
15199868,10014,0.939697,-0.342529,0.326904,506
15209871,10003,0.942017,-0.336548,0.327026,503
15219854,9983,0.952637,-0.330444,0.324707,502
15229855,10001,0.945312,-0.309448,0.319946,492
15245730,15875,0.937500,-0.294922,0.318481,498
15251601,5871,0.928223,-0.284302,0.324951,497
15259867,8266,0.928345,-0.285767,0.331787,492
15269863,9996,0.925171,-0.299194,0.338013,499
15279848,9985,0.921875,-0.320068,0.374634,502
15289861,10013,0.928589,-0.353516,0.348877,504
15299862,10001,0.938477,-0.365967,0.351074,506
15309872,10010,0.947144,-0.374634,0.351563,509
15319881,10009,0.953491,-0.383667,0.352539,510
15329876,9995,0.959595,-0.401123,0.353271,507
15339848,9972,0.969360,-0.444580,0.339478,508
15349873,10025,0.972168,-0.464478,0.333496,508
15359875,10002,0.970947,-0.482788,0.329102,503
15369863,9988,0.967041,-0.497437,0.325439,500
15379861,9998,0.960083,-0.510742,0.323364,496
15389848,9987,0.951904,-0.519287,0.314575,494
15399867,10019,0.928589,-0.507935,0.308838,490
15409869,10002,0.916504,-0.497070,0.302124,490
15419866,9997,0.907959,-0.484619,0.298706,482
15429859,9993,0.899414,-0.464600,0.297607,486
15439866,10007,0.882080,-0.432861,0.294922,489
15449859,9993,0.872925,-0.384277,0.285645,485
15459873,10014,0.855225,-0.353271,0.286987,494
15469850,9977,0.855713,-0.315186,0.279663,500
15479852,10002,0.855103,-0.285522,0.273682,505
15489869,10017,0.858032,-0.263916,0.264038,509
15499870,10001,0.867920,-0.262817,0.254883,517
15509865,9995,0.870361,-0.274902,0.256104,516
15519866,10001,0.881592,-0.306641,0.256714,512
15529869,10003,0.895508,-0.345703,0.258911,519
15539857,9988,0.906738,-0.368408,0.261108,512
15549864,10007,0.911621,-0.371338,0.265259,514
15559877,10013,0.918823,-0.386353,0.273315,512
15569876,9999,0.916382,-0.391968,0.277344,512
15579886,10010,0.915894,-0.394287,0.275146,509
15589855,9969,0.895264,-0.390625,0.276733,513
15599849,9994,0.901733,-0.386230,0.277222,511
15611152,11303,0.943115,-0.380493,0.264771,519
15622796,11644,0.987427,-0.368408,0.269043,524
15629872,7076,1.015869,-0.347290,0.274780,526
15639858,9986,1.029297,-0.343506,0.301514,532
15649853,9995,1.032227,-0.335449,0.321411,529
15659863,10010,1.034180,-0.335083,0.327637,537
15669849,9986,1.009399,-0.369385,0.318359,537
15679848,9999,0.979736,-0.385132,0.318237,535
15689854,10006,0.941162,-0.390259,0.334717,537
15723534,33680,0.815674,-0.309570,0.440552,538
15728891,5357,0.795410,-0.334106,0.409668,533
15734409,5518,0.000000,0.000000,0.000000,535
15738564,4155,0.786377,-0.340942,0.394775,537
15748093,9529,0.783691,-0.327148,0.401733,535
15753815,5722,0.000000,0.000000,0.000000,533
15759876,6061,0.789917,-0.292847,0.425537,534
15769877,10001,0.803467,-0.218628,0.470337,533
15779863,9986,0.833740,-0.168823,0.481812,531
15789854,9991,0.858643,-0.143433,0.482056,528
15799875,10021,0.883301,-0.133179,0.483643,529
15809857,9982,0.910156,-0.150513,0.489014,531
15819851,9994,0.933350,-0.169434,0.495605,536
15829869,10018,0.954346,-0.181030,0.497925,534
15839868,9999,0.950562,-0.196777,0.500854,532
15849870,10002,0.939331,-0.218384,0.506836,536
15859900,10030,0.916626,-0.240112,0.515381,535
15869869,9969,0.895264,-0.268677,0.514648,528
15879874,10005,0.835327,-0.324097,0.499634,536
15889863,9989,0.809570,-0.343506,0.480469,533
15899877,10014,0.790771,-0.367432,0.457886,533
15909869,9992,0.777710,-0.390747,0.438110,530
15919848,9979,0.772827,-0.385620,0.422974,526
15929868,10020,0.765625,-0.344727,0.414673,527
15939859,9991,0.759399,-0.300049,0.400269,527
15949864,10005,0.758789,-0.286621,0.392334,523
15959858,9994,0.763794,-0.276611,0.383911,524
15969869,10011,0.763550,-0.276855,0.373657,523
15979877,10008,0.764160,-0.288086,0.361328,524
15989872,9995,0.770752,-0.306030,0.339600,514
15999853,9981,0.773682,-0.316528,0.332642,519
16009849,9996,0.777344,-0.332886,0.331177,518
16019854,10005,0.780518,-0.344116,0.330444,513
16029859,10005,0.785767,-0.351563,0.331177,513
16039850,9991,0.789307,-0.355103,0.330811,507
16049877,10027,0.799927,-0.353516,0.334351,503
16059866,9989,0.814453,-0.347168,0.336914,506
16069886,10020,0.822021,-0.338867,0.337036,498
16079874,9988,0.826416,-0.334106,0.335571,505
16089859,9985,0.826782,-0.330566,0.333496,504
16099859,10000,0.833740,-0.317627,0.330811,496
16109849,9990,0.837158,-0.314087,0.333496,503
16119870,10021,0.841797,-0.309570,0.335693,504
16129871,10001,0.847412,-0.306152,0.338501,503
16139856,9985,0.849731,-0.299805,0.339478,506
16154929,15073,0.844971,-0.289307,0.339478,511
16160322,5393,0.848389,-0.287720,0.337769,513
16169853,9531,0.857666,-0.292236,0.336182,517
16179872,10019,0.885620,-0.294556,0.336304,524
16189859,9987,0.942505,-0.292969,0.341431,532
16202478,12619,1.006958,-0.301636,0.366211,532
16209863,7385,0.000000,0.000000,0.000000,544
16219859,9996,1.022217,-0.317383,0.380005,548
16229887,10028,1.005371,-0.328247,0.380737,554
16239862,9975,0.978394,-0.335083,0.376587,555
16249869,10007,0.942749,-0.337036,0.366211,549
16259852,9983,0.904907,-0.332031,0.345825,550
16269863,10011,0.843506,-0.328003,0.336914,550
16279868,10005,0.832764,-0.322510,0.329956,546
16289866,9998,0.826050,-0.326782,0.327393,536
16299865,9999,0.832397,-0.330200,0.330688,532
16309862,9997,0.845581,-0.328979,0.332520,531
16319867,10005,0.871094,-0.350342,0.344116,531
16329871,10004,0.895264,-0.333130,0.341797,528
16339862,9991,0.903198,-0.285034,0.338623,522
16349875,10013,0.902588,-0.304810,0.339111,525
16359858,9983,0.912598,-0.305054,0.333130,524
16369875,10017,0.894165,-0.294922,0.319946,518
16379862,9987,0.899048,-0.292847,0.312622,517
16389849,9987,0.887573,-0.298218,0.310547,510
16399887,10038,0.889526,-0.293945,0.312256,508
16409877,9990,0.891357,-0.303955,0.315674,514
16419866,9989,0.900513,-0.308716,0.319336,512
16429850,9984,0.927856,-0.323608,0.327637,512
16439871,10021,0.948120,-0.339233,0.331421,514
16449872,10001,0.967651,-0.352051,0.330933,513
16459875,10003,0.986816,-0.365601,0.331299,513
16469855,9980,1.000977,-0.387451,0.330078,513
16479857,10002,1.021484,-0.426270,0.323364,513
16489858,10001,1.026489,-0.441040,0.317505,512
16499871,10013,1.027710,-0.454590,0.310303,508
16509861,9990,1.024902,-0.467285,0.301514,505
16519873,10012,1.015259,-0.475098,0.295654,501
16529877,10004,0.999756,-0.467773,0.290894,500
16539856,9979,0.955444,-0.436646,0.278442,500
16549868,10012,0.931274,-0.425171,0.277222,496
16559861,9993,0.910400,-0.406372,0.275146,495
16569860,9999,0.891113,-0.382324,0.275146,494
16579850,9990,0.876831,-0.363403,0.273315,495
16589860,10010,0.858154,-0.330200,0.263428,490
16599886,10026,0.851562,-0.315186,0.258057,492
16609850,9964,0.847656,-0.303589,0.252319,497
16619866,10016,0.844604,-0.295776,0.247681,499
16629861,9995,0.841675,-0.290771,0.244629,500
16641407,11546,0.836182,-0.287231,0.245728,502
16649873,8466,0.836548,-0.295532,0.248901,502
16659862,9989,0.841553,-0.312134,0.251099,497
16669868,10006,0.846313,-0.331909,0.252930,496
16679867,9999,0.852783,-0.349854,0.256226,490
16689848,9981,0.862061,-0.364014,0.258423,481
16699873,10025,0.884033,-0.380249,0.261475,482
16709851,9978,0.892212,-0.381836,0.263306,476
16719874,10023,0.900635,-0.381348,0.263184,483
16729867,9993,0.906494,-0.379028,0.265137,485
16739852,9985,0.911133,-0.382446,0.267700,481
16749889,10037,0.939575,-0.389404,0.271606,493
16759864,9975,0.990723,-0.392700,0.269775,496
16769858,9994,1.049316,-0.390381,0.283691,513
16779879,10021,1.081421,-0.389648,0.304932,522
16789872,9993,1.064209,-0.399292,0.322998,533
16799878,10006,1.025757,-0.422119,0.330322,542
16809856,9978,0.967651,-0.450806,0.303101,547
16819876,10020,0.944702,-0.444946,0.319458,543
16829851,9975,0.922729,-0.427002,0.347534,546
16839858,10007,0.895630,-0.419556,0.366089,545
16849854,9996,0.863525,-0.423218,0.378662,542
16859850,9996,0.819214,-0.427002,0.385254,542
16869856,10006,0.811523,-0.420410,0.387695,537
16879855,9999,0.816284,-0.396729,0.393066,537
16889864,10009,0.832764,-0.351318,0.403198,536
16899867,10003,0.863647,-0.301025,0.413208,537
16909860,9993,0.897217,-0.264648,0.420288,537
16919871,10011,0.970215,-0.259888,0.445435,541
16929886,10015,0.997681,-0.258179,0.455688,531
16939872,9986,1.010620,-0.249756,0.460571,533
16949877,10005,1.017456,-0.251831,0.464600,534
16959885,10008,1.013550,-0.257080,0.463135,534
16969855,9970,0.993286,-0.248657,0.455566,540
16979871,10016,0.979614,-0.247070,0.449951,537
16989854,9983,0.965332,-0.239624,0.447632,538
16999875,10021,0.953491,-0.237427,0.440063,534
17009875,10000,0.932373,-0.228149,0.432739,533
17019862,9987,0.930298,-0.218140,0.440430,528
17029870,10008,0.904541,-0.218018,0.446289,528
17039856,9986,0.894287,-0.212769,0.439209,522
17049865,10009,0.881226,-0.214478,0.422974,524
17059867,10002,0.861328,-0.220459,0.405151,520
17069873,10006,0.847900,-0.228149,0.390503,518
17079857,9984,0.828857,-0.237427,0.382202,520
17089875,10018,0.818481,-0.232910,0.382568,513
17099865,9990,0.807739,-0.226685,0.385132,516
17109856,9991,0.799805,-0.220215,0.378784,512
17119868,10012,0.787842,-0.213501,0.373047,515
17129860,9992,0.761719,-0.189453,0.358276,517
17139868,10008,0.750610,-0.176392,0.354126,511
17149848,9980,0.736572,-0.163696,0.352295,513
17159870,10022,0.732910,-0.160156,0.351196,517
17169862,9992,0.717407,-0.158936,0.356567,513
17179858,9996,0.728516,-0.151978,0.359985,511
17189849,9991,0.734375,-0.163330,0.351318,515
17199851,10002,0.740723,-0.176025,0.356689,511
17209851,10000,0.746826,-0.184814,0.358154,512
17219853,10002,0.760986,-0.201660,0.367920,506
17229866,10013,0.757080,-0.207642,0.366089,502
17239862,9996,0.767090,-0.209473,0.368774,504
17249856,9994,0.771851,-0.211304,0.366821,503
17259852,9996,0.783081,-0.214355,0.368042,501
17269857,10005,0.802124,-0.214844,0.373169,501
17279877,10020,0.826538,-0.221802,0.380249,496
17289859,9982,0.848145,-0.223633,0.387451,501
17299859,10000,0.886597,-0.236572,0.390015,507
17309863,10004,0.899536,-0.250000,0.385498,513
17319871,10008,0.916870,-0.260498,0.380493,522
17329872,10001,0.946045,-0.263428,0.378296,528
17339855,9983,0.982422,-0.270630,0.385864,536
17349866,10011,1.027222,-0.266479,0.408203,546
17359868,10002,1.025024,-0.262207,0.410645,549
17369853,9985,1.015869,-0.263550,0.407837,558
17379868,10015,1.000854,-0.264160,0.398315,563
17389849,9981,0.983765,-0.259277,0.390137,563
17399855,10006,0.958984,-0.254272,0.364380,557
17409858,10003,0.910645,-0.250977,0.349365,556
17419869,10011,0.901001,-0.255615,0.337646,550
17429856,9987,0.902954,-0.261597,0.328735,552
17439849,9993,0.912354,-0.266724,0.325195,546
17459827,19978,0.974243,-0.305542,0.332275,531
17465077,5250,0.000000,0.000000,0.000000,524
17469877,4800,0.986938,-0.321289,0.333984,523
17479848,9971,0.994263,-0.335571,0.333496,522
17489894,10046,0.995728,-0.348267,0.331299,517
17499861,9967,0.992432,-0.357910,0.328125,513
17509866,10005,0.980347,-0.362061,0.327881,511
17519874,10008,0.967651,-0.362671,0.325684,509
17529851,9977,0.955688,-0.362915,0.326172,507
17539860,10009,0.945435,-0.360352,0.326172,505
17549863,10003,0.939331,-0.355713,0.324585,506
17559876,10013,0.933350,-0.351196,0.327148,507
17569857,9981,0.968750,-0.327271,0.338623,507
17579866,10009,0.995972,-0.325684,0.345703,509
17589878,10012,1.007813,-0.354614,0.347656,510
17599856,9978,1.020630,-0.397949,0.346680,514
17609853,9997,1.027100,-0.427856,0.341431,510
17619867,10014,1.046875,-0.465942,0.332520,517
17637987,18120,1.056641,-0.491455,0.329102,528
17644824,6837,0.000000,0.000000,0.000000,526
17649890,5066,1.052734,-0.494995,0.326050,525
17659864,9974,1.048584,-0.478882,0.323120,531
17669870,10006,1.039673,-0.458496,0.319580,527
17679880,10010,1.025879,-0.406006,0.321777,525
17689850,9970,1.014893,-0.370605,0.319946,530
17699864,10014,1.000488,-0.338867,0.314331,521
17709857,9993,0.982178,-0.311279,0.309082,525
17719849,9992,0.960815,-0.286621,0.302856,520
17729849,10000,0.915649,-0.248047,0.291260,516
17752597,22748,0.877441,-0.235962,0.281860,519
17757818,5221,0.861084,-0.238525,0.278809,518
17763042,5224,0.000000,0.000000,0.000000,511
17769869,6827,0.848267,-0.252930,0.275757,518
17779869,10000,0.837280,-0.270142,0.274902,514
17789865,9996,0.829346,-0.273560,0.277588,505
17799873,10008,0.826538,-0.269531,0.281860,510
17809877,10004,0.825806,-0.269409,0.286377,501
17819877,10000,0.824341,-0.272705,0.286011,496
17829902,10025,0.819702,-0.280396,0.286255,500
17839864,9962,0.815674,-0.297119,0.282959,499
17849852,9988,0.819336,-0.304321,0.281128,498
17859862,10010,0.821411,-0.310425,0.279297,501
17869849,9987,0.834717,-0.314209,0.281128,500
17879853,10004,0.867920,-0.313721,0.280396,502
17889852,9999,0.920776,-0.315308,0.287231,502
17899858,10006,1.009277,-0.320068,0.295044,511
17909876,10018,1.022949,-0.326172,0.302246,518
17919856,9980,1.017944,-0.334473,0.305786,524
17929868,10012,1.002930,-0.344482,0.302979,530
17939866,9998,0.979980,-0.353516,0.301636,530
17949864,9998,0.921875,-0.351440,0.312134,540
17959878,10014,0.899414,-0.333984,0.327026,537
17969848,9970,0.883911,-0.312012,0.342163,537
17979872,10024,0.876221,-0.288086,0.359009,536
17989873,10001,0.867920,-0.267456,0.375732,528
17999867,9994,0.854736,-0.216797,0.405029,536
18009849,9982,0.851807,-0.186157,0.415649,528
18019873,10024,0.864868,-0.149902,0.423462,531
18029850,9977,0.872437,-0.112427,0.440796,529
18039864,10014,0.868042,-0.073730,0.471313,530
18049866,10002,0.868408,-0.052979,0.499512,521
18059848,9982,0.863403,-0.104004,0.531372,517
18069875,10027,0.863525,-0.151245,0.533447,511
18079874,9999,0.864380,-0.196411,0.538208,506
18089873,9999,0.867676,-0.222900,0.531494,499
18099870,9997,0.876343,-0.237305,0.525879,485
18109864,9994,0.882812,-0.234863,0.508545,480
18119862,9998,0.891357,-0.213623,0.500610,481
18129864,10002,0.898071,-0.184204,0.493652,475
18139876,10012,0.902466,-0.150146,0.485596,475
18149864,9988,0.903564,-0.126709,0.476074,477
18159858,9994,0.904053,-0.116821,0.468750,481
18169872,10014,0.899170,-0.101807,0.457397,485
18179877,10005,0.892700,-0.098877,0.456543,486
18189877,10000,0.886353,-0.104980,0.454956,500
18199862,9985,0.876465,-0.116333,0.445923,506
18209901,10039,0.862915,-0.131592,0.437256,515
18219864,9963,0.827759,-0.146484,0.416992,517
18229868,10004,0.811646,-0.148315,0.411987,520
18239848,9980,0.799805,-0.149780,0.413330,523
18249852,10004,0.790649,-0.154663,0.409546,519
18259856,10004,0.778564,-0.161377,0.400879,526
18269848,9992,0.764893,-0.166382,0.376587,524
18279855,10007,0.738403,-0.168335,0.368286,525
18289852,9997,0.732666,-0.164062,0.362427,522
18299871,10019,0.729492,-0.159790,0.357178,522
18309872,10001,0.730347,-0.157959,0.356934,522
18319849,9977,0.737549,-0.159302,0.361328,522
18329871,10022,0.767700,-0.158936,0.371704,520
18339856,9985,0.785767,-0.165527,0.373169,522
18349872,10016,0.798340,-0.176636,0.372070,520
18359858,9986,0.809814,-0.189209,0.370117,519
18369863,10005,0.818115,-0.197754,0.369751,515
18379864,10001,0.825684,-0.202515,0.375610,518
18389868,10004,0.826782,-0.198975,0.378662,520
18399875,10007,0.832886,-0.197388,0.380371,519
18409856,9981,0.843140,-0.198242,0.383789,522
18419865,10009,0.853149,-0.204590,0.385986,521
18429874,10009,0.860718,-0.210815,0.385132,522
18439857,9983,0.865479,-0.213379,0.384277,520
18449856,9999,0.864868,-0.214111,0.387939,519
18467589,17733,0.882324,-0.221069,0.399170,523
18472806,5217,0.000000,0.000000,0.000000,522
18479878,7072,0.918823,-0.223999,0.402832,527
18489866,9988,1.028564,-0.218994,0.410400,530
18499849,9983,1.067505,-0.223145,0.421997,535
18509869,10020,1.074829,-0.233032,0.433228,537
18519852,9983,1.051636,-0.246094,0.439209,540
18529872,10020,1.006348,-0.264160,0.438477,535
18539861,9989,0.963135,-0.279419,0.429199,537
18549860,9999,0.904297,-0.295898,0.405762,542
18559855,9995,0.892700,-0.299316,0.399658,535
18569875,10020,0.887817,-0.300049,0.392334,523
18579877,10002,0.886963,-0.303345,0.385986,520
18589848,9971,0.886597,-0.312134,0.381592,513
18599857,10009,0.894897,-0.316650,0.376221,501
18609863,10006,0.907593,-0.316650,0.375122,495
18619852,9989,0.919800,-0.315063,0.376099,495
18629876,10024,0.928833,-0.315308,0.375732,492
18639874,9998,0.939697,-0.311890,0.371704,483
18649851,9977,0.952759,-0.311035,0.365601,488
18664909,15058,0.982910,-0.313843,0.357178,487
18670186,5277,1.002686,-0.318848,0.357910,484
18679867,9681,1.025635,-0.325073,0.359009,490
18689876,10009,1.037354,-0.334961,0.360352,484
18699866,9990,1.048950,-0.345581,0.364502,492
18709878,10012,1.019409,-0.386353,0.346069,491
18719867,9989,0.980713,-0.400757,0.334229,492
18729865,9998,0.940552,-0.403687,0.324707,491
18739872,10007,0.904907,-0.404785,0.325684,483
18749849,9977,0.875854,-0.394897,0.326782,481
18759870,10021,0.853638,-0.377808,0.327393,484
18769871,10001,0.839111,-0.331909,0.323975,489
18779860,9989,0.837646,-0.307373,0.320557,489
18789895,10035,0.843872,-0.284668,0.318237,492
18799861,9966,0.854980,-0.267090,0.317871,493
18809858,9997,0.862549,-0.260010,0.311401,495
18819868,10010,0.894043,-0.264160,0.305054,494
18829866,9998,0.905029,-0.277222,0.303467,491
18839875,10009,0.922119,-0.296021,0.304810,490
18849874,9999,0.935913,-0.327148,0.300903,491
18859874,10000,0.936523,-0.366699,0.298340,488
18869869,9995,0.930054,-0.406616,0.292114,480
18879848,9979,0.907104,-0.410400,0.290283,484
18889855,10007,0.901245,-0.408813,0.287476,486
18899867,10012,0.902344,-0.398071,0.285645,484
18909850,9983,0.909668,-0.391479,0.285034,485
18919876,10026,0.918823,-0.392944,0.280518,482
18929869,9993,0.929199,-0.401489,0.266357,483
18939862,9993,0.935059,-0.404297,0.262817,481
18949864,10002,0.938843,-0.401489,0.256958,485
18959850,9986,0.939453,-0.397217,0.252808,480
18969868,10018,0.943359,-0.391602,0.251709,489
18979859,9991,0.952148,-0.379883,0.259766,490
18989883,10024,0.952881,-0.372314,0.269531,490
18999855,9972,0.971313,-0.362671,0.283813,491
19009874,10019,1.004639,-0.353882,0.295166,494
19019848,9974,1.043213,-0.351074,0.306274,494
19029848,10000,1.068848,-0.358398,0.311646,497
19039856,10008,1.042603,-0.379517,0.324219,495
19049852,9996,0.998779,-0.375854,0.329224,499
19059860,10008,0.941162,-0.367554,0.335571,499
19069877,10017,0.885620,-0.358643,0.349609,495
19079854,9977,0.841309,-0.343140,0.367065,498
19089875,10021,0.776001,-0.319824,0.389282,497
19099858,9983,0.752197,-0.318481,0.388184,496
19109865,10007,0.735474,-0.315796,0.384766,490
19119875,10010,0.722412,-0.308594,0.379272,493
19129875,10000,0.720825,-0.298096,0.375977,491
19139865,9990,0.733032,-0.284180,0.375610,500
19149876,10011,0.786743,-0.252563,0.396973,500
19159876,10000,0.825684,-0.243896,0.407471,502
19169890,10014,0.865967,-0.236572,0.415039,496
19179865,9975,0.903076,-0.233276,0.418945,500
19189862,9997,0.931763,-0.239380,0.421997,505
19199881,10019,0.961792,-0.306396,0.440308,510
19209876,9995,0.963013,-0.321777,0.451050,513
19219854,9978,0.954102,-0.320557,0.463013,513
19229852,9998,0.937622,-0.306152,0.475952,526
19239873,10021,0.923462,-0.291992,0.477539,529
19258194,18321,0.876831,-0.276123,0.479004,535
19264218,6024,0.852417,-0.272339,0.477417,536
19270210,5992,0.838989,-0.279907,0.473267,538
19279853,9643,0.817627,-0.297485,0.464722,532
19289873,10020,0.802612,-0.302368,0.455444,537
19299852,9979,0.791870,-0.290283,0.446899,529
19309873,10021,0.795044,-0.264648,0.435425,537
19319876,10003,0.808105,-0.262207,0.431641,533
19329878,10002,0.822144,-0.263794,0.426880,532
19339896,10018,0.832886,-0.265991,0.421753,533
19349856,9960,0.842651,-0.269653,0.413940,526
19365644,15788,0.846069,-0.268799,0.403198,528
19371483,5839,0.839844,-0.268188,0.398193,528
19379858,8375,0.830688,-0.264526,0.394043,524
19389875,10017,0.820557,-0.263184,0.392212,522
19399853,9978,0.806763,-0.263306,0.393799,518
19409864,10011,0.791992,-0.265137,0.400391,521
19419873,10009,0.769043,-0.261719,0.400146,521
19429866,9993,0.755615,-0.252197,0.393555,519
19439873,10007,0.747437,-0.252930,0.384766,516
19449855,9982,0.745483,-0.257568,0.377319,512
19463454,13599,0.748535,-0.256226,0.369995,519
19469864,6410,0.000000,0.000000,0.000000,517
19479867,10003,0.772827,-0.256958,0.372559,513
19489876,10009,0.810181,-0.261475,0.370972,515
19499875,9999,0.878418,-0.265625,0.375977,520
19509863,9988,0.958130,-0.258667,0.389038,512
19519883,10020,1.003540,-0.248779,0.411377,521
19529858,9975,0.998657,-0.242310,0.429565,527
19539864,10006,0.954102,-0.248413,0.413818,531
19549873,10009,0.899658,-0.263062,0.390015,529
19564149,14276,0.834473,-0.285645,0.347534,534
19570225,6076,0.000000,0.000000,0.000000,533
19579849,9624,0.823853,-0.301270,0.342041,530
19589871,10022,0.829102,-0.300781,0.344360,525
19599848,9977,0.836792,-0.291748,0.345337,519
19609865,10017,0.842041,-0.276978,0.346191,516
19619857,9992,0.851440,-0.264893,0.349731,513
19629872,10015,0.863647,-0.263672,0.353760,510
19639871,9999,0.895630,-0.252686,0.351318,504
19649848,9977,0.909424,-0.244995,0.348267,510
19659858,10010,0.919678,-0.244751,0.346191,509
19669849,9991,0.926270,-0.249878,0.347534,512
19679848,9999,0.927734,-0.257202,0.350586,504
19689857,10009,0.938599,-0.294556,0.356445,514
19699868,10011,0.944214,-0.315552,0.360107,509
19709854,9986,0.949707,-0.332153,0.362061,515
19719877,10023,0.955078,-0.344238,0.363525,519
19729848,9971,0.960693,-0.353394,0.364502,512
19739868,10020,0.969482,-0.372925,0.366577,517
19749873,10005,0.986450,-0.386475,0.364136,519
19762853,12980,0.984619,-0.397949,0.360474,517
19769867,7014,0.972412,-0.412231,0.358154,516
19779870,10003,0.962036,-0.425049,0.356079,509
19789848,9978,0.938110,-0.434082,0.353149,507
19799873,10025,0.901855,-0.451416,0.345581,508
19809872,9999,0.890991,-0.456787,0.343140,506
19819849,9977,0.883667,-0.450195,0.343750,507
19829868,10019,0.880859,-0.431519,0.344971,504
19839854,9986,0.879272,-0.408447,0.345581,503
19849857,10003,0.890503,-0.366333,0.346802,504
19863919,14062,0.899780,-0.348022,0.343384,500
19870015,6096,0.911011,-0.329712,0.337769,503
19879866,9851,0.919800,-0.314453,0.332275,504
19889863,9997,0.926636,-0.306274,0.325317,509
19899852,9989,0.931274,-0.302979,0.320679,510
19909872,10020,0.937378,-0.329102,0.318359,508
19919878,10006,0.934814,-0.363159,0.316528,509
19929874,9996,0.927002,-0.408325,0.315063,507
19939852,9978,0.919922,-0.435913,0.313965,503
19949849,9997,0.914429,-0.442627,0.313843,499
19959872,10023,0.917480,-0.445312,0.304565,496
19969866,9994,0.919678,-0.432739,0.297241,495
19979851,9985,0.922485,-0.413330,0.292969,495
19989858,10007,0.921143,-0.399292,0.290405,496
19999849,9991,0.911865,-0.385986,0.290283,488
20009876,10027,0.898071,-0.374268,0.293579,492
20019855,9979,0.883301,-0.348389,0.302124,503
20029866,10011,0.883179,-0.335815,0.301758,500
20039869,10003,0.889160,-0.324341,0.301514,510
20049858,9989,0.900513,-0.315430,0.299438,516
20059892,10034,0.916870,-0.314575,0.300293,521
20069860,9968,0.966064,-0.351318,0.300293,524
20079864,10004,0.988770,-0.387451,0.304810,522
20089858,9994,1.005371,-0.417603,0.306519,519
20099878,10020,1.018433,-0.432129,0.309204,525
20109866,9988,1.014893,-0.438110,0.316284,515
20119872,10006,1.000488,-0.406860,0.335693,520
20129858,9986,0.951416,-0.431519,0.341675,512
20139864,10006,0.929932,-0.430420,0.342407,516
20149858,9994,0.908447,-0.420776,0.347290,514
20159873,10015,0.887085,-0.400635,0.360474,511
20169851,9978,0.868286,-0.376953,0.370239,516
20179857,10006,0.829468,-0.338623,0.375732,512
20189861,10004,0.809326,-0.318115,0.377197,524
20199868,10007,0.788696,-0.294556,0.378906,526
20209877,10009,0.776245,-0.275513,0.383911,528
20219863,9986,0.770508,-0.262207,0.388550,532
20229857,9994,0.784546,-0.239502,0.396362,529
20239887,10030,0.809326,-0.233276,0.391113,535
20249873,9986,0.843140,-0.238892,0.385498,533
20259864,9991,0.889526,-0.250122,0.380371,533
20271245,11381,0.928223,-0.257324,0.380371,526
20279878,8633,0.952759,-0.260620,0.387695,531
20289875,9997,0.973022,-0.263916,0.401001,531
20299851,9976,0.974365,-0.264648,0.404785,528
20309858,10007,0.970093,-0.262207,0.408081,532
20319863,10005,0.961182,-0.255249,0.411743,530
20329855,9992,0.949585,-0.241455,0.428467,533
20339859,10004,0.914307,-0.224243,0.446411,531
20349876,10017,0.890503,-0.231689,0.440063,531
20359876,10000,0.874023,-0.256592,0.434814,523
20370658,10782,0.848389,-0.265625,0.423462,528
20379856,9198,0.828491,-0.264648,0.421387,525
20389877,10021,0.818604,-0.280640,0.418335,527
20399853,9976,0.804321,-0.290161,0.409302,528
20409887,10034,0.800171,-0.271484,0.407837,521
20419865,9978,0.792358,-0.255249,0.408447,527
20429870,10005,0.782471,-0.245361,0.405396,524
20439873,10003,0.764038,-0.237305,0.407349,525
20449868,9995,0.716675,-0.215576,0.414307,526
20459865,9997,0.705933,-0.203003,0.409546,526
20469877,10012,0.710693,-0.192993,0.395752,524
20479864,9987,0.725952,-0.188599,0.382446,521
20489876,10012,0.747314,-0.186523,0.370605,513
20499850,9974,0.777222,-0.193115,0.359863,508
20509871,10021,0.841919,-0.209961,0.361694,506
20519863,9992,0.864502,-0.221069,0.365356,507
20529862,9999,0.884277,-0.230469,0.367188,492
20539860,9998,0.902466,-0.241577,0.365234,505
20549861,10001,0.915771,-0.253174,0.357788,505
20559858,9997,0.933594,-0.271362,0.345215,507
20569864,10006,0.959351,-0.281128,0.343018,512
20579865,10001,0.990967,-0.282104,0.344482,512
20589871,10006,1.001099,-0.266235,0.350830,517
20599856,9985,1.000610,-0.249878,0.361206,521
20609849,9993,0.950073,-0.250610,0.373779,522
20619855,10006,0.895752,-0.249756,0.371948,531
20629858,10003,0.848267,-0.242432,0.363403,535
20639876,10018,0.809082,-0.232300,0.350342,538
20649873,9997,0.782104,-0.227661,0.337524,530
20659854,9981,0.769165,-0.226929,0.328613,530
20669869,10015,0.771729,-0.237915,0.320679,529
20679863,9994,0.784790,-0.249268,0.324097,521
20689851,9988,0.796753,-0.262451,0.331543,510
20699854,10003,0.817993,-0.283813,0.341553,505
20709859,10005,0.842041,-0.306519,0.347046,496
20719848,9989,0.895752,-0.333862,0.349731,486
20729859,10011,0.918701,-0.338013,0.346436,475
20739863,10004,0.939209,-0.344971,0.344116,469
20749861,9998,0.957764,-0.354614,0.345703,463
20759867,10006,0.975220,-0.359131,0.349609,458
20769897,10030,0.988159,-0.366821,0.350464,459
20782007,12110,0.989746,-0.372559,0.361206,456
20789865,7858,0.982300,-0.380371,0.359131,461
20799877,10012,0.969482,-0.390625,0.356812,466
20809854,9977,0.957153,-0.403442,0.353760,464
20819871,10017,0.950439,-0.412598,0.348877,473
20829871,10000,0.966675,-0.417358,0.354004,469
20839877,10006,0.981445,-0.417236,0.358643,482
20849868,9991,0.998413,-0.416870,0.359985,483
20859878,10010,1.013428,-0.415649,0.361450,488
20869872,9994,1.033203,-0.414673,0.361694,490
20881191,11319,1.057251,-0.418579,0.358887,494
20889868,8677,1.049805,-0.427612,0.354004,496
20899871,10003,1.030884,-0.437866,0.345581,494
20932612,32741,0.902954,-0.451050,0.312378,491
20937790,5178,0.000000,0.000000,0.000000,488
20941954,4164,0.876221,-0.442505,0.312134,488
20947182,5228,0.000000,0.000000,0.000000,487
20951521,4339,0.853149,-0.425659,0.308838,487
20959872,8351,0.836182,-0.405396,0.306641,484
20969886,10014,0.825806,-0.383423,0.304932,484
20979848,9962,0.818359,-0.362305,0.303101,485
21014285,34437,0.832886,-0.298462,0.287720,483
21019648,5363,0.840820,-0.292603,0.286133,488
21025004,5356,0.849854,-0.293335,0.282959,487
21030368,5364,0.000000,0.000000,0.000000,490
21034464,4096,0.855835,-0.299805,0.283447,490
21039938,5474,0.000000,0.000000,0.000000,493
21049854,9916,0.867676,-0.331787,0.281982,493
21059861,10007,0.871094,-0.356812,0.283325,493
21069867,10006,0.872925,-0.374634,0.285278,488
21079868,10001,0.875854,-0.389282,0.289063,492
21090799,10931,0.879150,-0.397339,0.292725,491
21099862,9063,0.881958,-0.401733,0.298218,493
21109895,10033,0.885620,-0.404297,0.299438,491
21119869,9974,0.888428,-0.407227,0.301147,494
21129871,10002,0.893188,-0.411499,0.300781,490
21139875,10004,0.901611,-0.414795,0.297974,495
21149858,9983,0.926514,-0.417847,0.294067,499
21159866,10008,1.055298,-0.411011,0.294189,503
21169863,9997,1.093628,-0.403687,0.313232,502
21183696,13833,1.094971,-0.420654,0.327148,511
21189878,6182,1.083984,-0.451904,0.330322,513
21199872,9994,1.063232,-0.458862,0.330933,507
21209867,9995,1.000977,-0.510010,0.313232,512
21219859,9992,0.952515,-0.543091,0.306763,509
21229865,10006,0.903076,-0.551514,0.313965,505
21239867,10002,0.878540,-0.552734,0.311279,504
21249875,10008,0.852539,-0.543701,0.314331,501
21259849,9974,0.825317,-0.405640,0.336792,502
21269872,10023,0.796509,-0.336670,0.348511,506
21279848,9976,0.788574,-0.265869,0.370728,511
21290245,10397,0.794434,-0.186157,0.375366,519
21299871,9626,0.795654,-0.144775,0.348267,524
21309864,9993,0.783081,-0.152588,0.322632,531
21319866,10002,0.787964,-0.224609,0.310547,533
21329868,10002,0.811646,-0.249146,0.332275,535
21339851,9983,0.848145,-0.254761,0.362915,536
21349862,10011,0.888306,-0.253052,0.388794,533
21359851,9989,0.936401,-0.259644,0.406128,535
21369859,10008,0.999878,-0.315186,0.419800,532
21379851,9992,1.019043,-0.328247,0.427124,528
21389852,10001,1.023926,-0.318848,0.439087,521
21399864,10012,1.015991,-0.307251,0.454102,527
21409855,9991,0.997803,-0.283325,0.445068,525
21419869,10014,0.970459,-0.286987,0.428223,525
21429864,9995,0.898315,-0.279419,0.393921,523
21439863,9999,0.875854,-0.293457,0.382202,525
21449855,9992,0.849854,-0.305054,0.372314,510
21459865,10010,0.836060,-0.301392,0.359253,526
21469849,9984,0.819458,-0.287354,0.351074,538
21479871,10022,0.803589,-0.257446,0.409546,536
21489894,10023,0.806030,-0.313232,0.413208,544
21503837,13943,0.791504,-0.369019,0.398804,540
21509869,6032,0.766968,-0.386597,0.369507,540
21519873,10004,0.747925,-0.410400,0.336914,538
21529850,9977,0.733521,-0.429443,0.285767,527
21539864,10014,0.717896,-0.380249,0.316528,528
21549877,10013,0.718628,-0.325928,0.330444,523
21559858,9981,0.720337,-0.283691,0.344971,520
21569875,10017,0.724854,-0.258423,0.355103,518
21579849,9974,0.729492,-0.247437,0.363037,526
21596965,17116,0.740356,-0.268799,0.365112,524
21602669,5704,0.745483,-0.280762,0.363525,519
21609852,7183,0.749878,-0.274536,0.360962,526
21619875,10023,0.757812,-0.260986,0.356689,526
21629851,9976,0.769165,-0.258789,0.354126,522
21639851,10000,0.779785,-0.262085,0.346436,526
21649859,10008,0.800049,-0.277222,0.346680,524
21659848,9989,0.814941,-0.286377,0.349731,530
21669853,10005,0.835571,-0.295532,0.349854,530
21679855,10002,0.864502,-0.305054,0.350464,525
21689877,10022,0.911987,-0.311890,0.350586,532
21703855,13978,1.028809,-0.316284,0.371826,536
21709876,6021,1.064209,-0.307251,0.388550,530
21719875,9999,1.068848,-0.301880,0.397583,537
21729872,9997,1.044312,-0.303223,0.398682,541
21739872,10000,1.002686,-0.311646,0.387329,540
21749864,9992,0.922241,-0.345703,0.365967,537
21759854,9990,0.889282,-0.362671,0.356934,534
21769876,10022,0.873291,-0.380005,0.353027,527
21779858,9982,0.866333,-0.396606,0.351807,517
21789848,9990,0.867798,-0.405762,0.354004,504
21799859,10011,0.872437,-0.411499,0.355469,495
21809868,10009,0.885864,-0.415283,0.351685,493
21819858,9990,0.898071,-0.395996,0.350952,482
21829869,10011,0.914917,-0.369141,0.346558,482
21839865,9996,0.919800,-0.355103,0.341187,483
21849854,9989,0.933472,-0.356689,0.337524,480
21859867,10013,0.934814,-0.356201,0.331299,471
21869863,9996,0.931152,-0.359131,0.327026,477
21879863,10000,0.928711,-0.362915,0.329102,479
21889873,10010,0.924927,-0.365723,0.327637,481
21899858,9985,0.922974,-0.368042,0.327026,476
21909853,9995,0.924194,-0.368774,0.325684,486
21919877,10024,0.933228,-0.369995,0.323853,487
21929863,9986,0.936157,-0.372681,0.320923,491
21939862,9999,0.940674,-0.376099,0.316528,493
21949873,10011,0.948853,-0.380249,0.312622,500
21959868,9995,0.959229,-0.384766,0.309692,506
21969855,9987,0.982910,-0.402588,0.311401,498
21979848,9993,0.987915,-0.411987,0.311035,506
21989850,10002,0.987549,-0.422363,0.308716,509
22006007,16157,0.973389,-0.442383,0.303101,508
22011770,5763,0.000000,0.000000,0.000000,508
22019868,8098,0.961670,-0.447144,0.299194,504
22029860,9992,0.930420,-0.432251,0.296753,507
22051011,21151,0.892700,-0.402466,0.293213,505
22056569,5558,0.871460,-0.381592,0.289307,504
22061650,5081,0.000000,0.000000,0.000000,504
22069858,8208,0.849731,-0.363647,0.286987,496
22079870,10012,0.822632,-0.332642,0.282837,503
22089858,9988,0.812500,-0.319946,0.282227,499
22105936,16078,0.809692,-0.305420,0.282715,499
22111378,5442,0.000000,0.000000,0.000000,498
22119864,8486,0.816284,-0.308350,0.283569,493
22136441,16577,0.838135,-0.355957,0.286011,485
22141775,5334,0.851562,-0.376343,0.286499,484
22149870,8095,0.862183,-0.385498,0.290161,484
22159851,9981,0.871582,-0.391235,0.292603,480
22169866,10015,0.877808,-0.398560,0.292847,475
22179850,9984,0.881592,-0.404907,0.290894,472
22189873,10023,0.888306,-0.411499,0.287842,471
22199850,9977,0.892334,-0.412842,0.287354,469
22210292,10442,0.897583,-0.411621,0.287354,474
22219872,9580,0.906738,-0.407104,0.286865,480
22229852,9980,0.928223,-0.402100,0.286377,486
22239865,10013,1.056152,-0.407715,0.296021,496
22249863,9998,1.112427,-0.424072,0.313477,496
22259858,9995,1.113770,-0.436157,0.310669,507
22269853,9995,1.079346,-0.455688,0.291992,516
22279856,10003,1.046997,-0.477417,0.269775,518
22289851,9995,1.024414,-0.489990,0.260010,521
22299873,10022,0.970581,-0.438232,0.278564,524
22309865,9992,0.931885,-0.383057,0.296021,526
22319863,9998,0.883179,-0.337280,0.310059,528
22329857,9994,0.846924,-0.302490,0.316040,532
22339893,10036,0.820557,-0.268311,0.314697,528
22349867,9974,0.772949,-0.209717,0.312622,536
22359854,9987,0.760376,-0.191406,0.313843,542
22369870,10016,0.756958,-0.180542,0.317505,542
22379849,9979,0.760864,-0.183228,0.325562,535
22389864,10015,0.766602,-0.189575,0.337891,538
22399860,9996,0.781372,-0.185913,0.357666,537
22415022,15162,0.830444,-0.191040,0.369385,530
22420304,5282,0.867676,-0.208984,0.385498,520
22429865,9561,0.905640,-0.226562,0.394897,523
22439855,9990,0.934937,-0.243774,0.399170,514
22449860,10005,0.958496,-0.271973,0.407593,515
22459857,9997,0.988281,-0.297852,0.430054,513
22469868,10011,0.987427,-0.302856,0.440308,510
22479870,10002,0.990723,-0.302002,0.442261,515
22489864,9994,0.967529,-0.276733,0.461060,518
22499867,10003,0.955566,-0.266479,0.473145,520
22509876,10009,0.906494,-0.218994,0.471069,521
22519876,10000,0.874146,-0.231079,0.459717,523
22529867,9991,0.843140,-0.243652,0.445435,526
22539851,9984,0.809937,-0.239868,0.436279,527
22549891,10040,0.787964,-0.233398,0.430664,529
22559868,9977,0.766602,-0.226074,0.427246,532
22569863,9995,0.753906,-0.196045,0.427612,535
22579868,10005,0.754272,-0.210693,0.430054,532
22589864,9996,0.753540,-0.205811,0.425415,525
22599864,10000,0.760742,-0.211792,0.421753,525
22609877,10013,0.768188,-0.232178,0.419312,523
22619856,9979,0.774414,-0.240601,0.413696,524
22629855,9999,0.777954,-0.228760,0.410645,522
22639869,10014,0.787964,-0.233521,0.413208,524
22649857,9988,0.790527,-0.235352,0.414551,525
22659848,9991,0.796143,-0.234985,0.415527,526
22669875,10027,0.802856,-0.236938,0.415894,527
22679866,9991,0.809692,-0.247314,0.409058,520
22689864,9998,0.809448,-0.251099,0.405396,528
22699852,9988,0.816406,-0.255859,0.399536,529
22709862,10010,0.825439,-0.265503,0.397827,529
22719869,10007,0.830688,-0.269043,0.398438,527
22729882,10013,0.855469,-0.281006,0.396606,518
22739859,9977,0.874512,-0.292969,0.390503,520
22749868,10009,0.913940,-0.296631,0.385010,521
22759868,10000,0.964111,-0.313599,0.385742,519
22769866,9998,1.011108,-0.300293,0.394165,519
22779862,9996,1.046387,-0.305664,0.408813,519
22789861,9999,1.032227,-0.309326,0.402222,519
22799853,9992,0.993774,-0.330200,0.388428,521
22810220,10367,0.952759,-0.339600,0.370605,520
22819869,9649,0.915405,-0.339722,0.352417,521
22829866,9997,0.885620,-0.340332,0.342651,519
22839877,10011,0.877319,-0.334717,0.334961,509
22849867,9990,0.886475,-0.332153,0.332153,512
22859870,10003,0.894531,-0.326538,0.328979,509
22869862,9992,0.905762,-0.320557,0.325317,501
22879857,9995,0.913574,-0.316040,0.324097,500
22889861,10004,0.921875,-0.293213,0.325439,502
22899850,9989,0.917847,-0.281982,0.322266,503
22909875,10025,0.914307,-0.277466,0.319092,504
22919877,10002,0.906616,-0.281982,0.311768,504
22929873,9996,0.892212,-0.292969,0.303711,499
22939863,9990,0.876709,-0.298340,0.297852,497
22949851,9988,0.850952,-0.304932,0.295654,505
22959865,10014,0.846558,-0.309204,0.294800,505
22969876,10011,0.843506,-0.312256,0.294434,497
22979871,9995,0.845581,-0.312866,0.291626,495
22989858,9987,0.854004,-0.314941,0.289795,501
22999867,10009,0.895752,-0.317139,0.287964,493
23009875,10008,0.922607,-0.324097,0.288940,500
23020699,10824,0.950806,-0.335327,0.290771,494
23029854,9155,0.976074,-0.351440,0.292236,496
23039855,10001,0.997803,-0.375122,0.293213,490
23049853,9998,1.010498,-0.403564,0.293945,492
23059858,10005,1.015991,-0.448608,0.292847,489
23069863,10005,1.005005,-0.461670,0.292236,488
23079875,10012,0.989624,-0.472778,0.290649,481
23089877,10002,0.964966,-0.473633,0.287720,489
23099871,9994,0.940186,-0.461548,0.285767,489
23109849,9978,0.888794,-0.428345,0.280640,490
23119853,10004,0.871704,-0.409424,0.282959,488
23129867,10014,0.858887,-0.382935,0.282471,486
23139868,10001,0.849243,-0.356445,0.282104,489
23149871,10003,0.840942,-0.334961,0.280029,483
23159868,9997,0.837646,-0.282471,0.280151,493
23169867,9999,0.844482,-0.298218,0.277466,495
23179850,9983,0.854126,-0.300781,0.275513,494
23189859,10009,0.862793,-0.305176,0.271973,490
23199863,10004,0.874023,-0.315430,0.270508,496
23209893,10030,0.883423,-0.329224,0.271973,495
23219852,9959,0.898926,-0.352417,0.277100,495
23229861,10009,0.901001,-0.357666,0.281128,492
23239877,10016,0.901611,-0.357910,0.281738,493
23249868,9991,0.900513,-0.356323,0.282471,491
23259866,9998,0.897827,-0.354980,0.281738,491
23269853,9987,0.891357,-0.358276,0.280884,494
23279874,10021,0.901001,-0.363037,0.276123,497
23289852,9978,0.930786,-0.366699,0.273315,494
23299861,10009,0.979248,-0.363037,0.269165,504
23309854,9993,1.029175,-0.356812,0.276001,507
23322928,13074,1.094116,-0.365967,0.290405,512
23329874,6946,1.091553,-0.383301,0.296021,515
23339848,9974,1.065063,-0.402222,0.300659,513
23349870,10022,1.015137,-0.412842,0.303223,516
23359873,10003,0.948730,-0.404541,0.311768,523
23369877,10004,0.881104,-0.388672,0.325439,515
23379862,9985,0.777588,-0.388794,0.332886,518
23389865,10003,0.748901,-0.379395,0.339111,522
23399857,9992,0.730591,-0.358154,0.349243,519
23409874,10017,0.722168,-0.313477,0.364990,518
23419870,9996,0.719849,-0.262573,0.368530,517
23429855,9985,0.722534,-0.236938,0.372681,518
23439856,10001,0.746948,-0.188965,0.374756,519
23449869,10013,0.771362,-0.197266,0.377808,519
23459868,9999,0.807739,-0.195190,0.382446,520
23469853,9985,0.859009,-0.202881,0.394287,521
23479851,9998,0.906494,-0.192871,0.398926,522
23489848,9997,0.994507,-0.250610,0.412598,519
23499851,10003,1.022705,-0.239990,0.426514,520
23509866,10015,1.029053,-0.265137,0.433838,515
23519866,10000,1.028320,-0.280273,0.443481,521
23536467,16601,0.992920,-0.291260,0.450562,525
23541816,5349,0.952515,-0.289429,0.448975,522
23549864,8048,0.919434,-0.279297,0.443970,523
23559850,9986,0.885864,-0.266235,0.436523,523
23569861,10011,0.854004,-0.272095,0.429077,520
23579867,10006,0.836670,-0.254272,0.415894,525
23589855,9988,0.822021,-0.250977,0.410645,524
23599876,10021,0.816406,-0.213623,0.395996,525
23609877,10001,0.820801,-0.204834,0.393066,520
23619866,9989,0.834961,-0.197632,0.393066,524
23629849,9983,0.849121,-0.206909,0.394653,527
23639875,10026,0.859375,-0.206299,0.397583,524
23649867,9992,0.867065,-0.239380,0.388672,526
23659859,9992,0.868286,-0.260620,0.384277,528
23669875,10016,0.867310,-0.279419,0.380493,529
23679877,10002,0.859375,-0.286133,0.378296,531
23689857,9980,0.850830,-0.283447,0.379028,528
23699857,10000,0.842773,-0.273804,0.377808,529
23709874,10017,0.827148,-0.244385,0.378662,523
23719848,9974,0.821411,-0.239380,0.378784,525
23729867,10019,0.817261,-0.232666,0.378906,522
23739902,10035,0.817505,-0.237793,0.375977,520
23749861,9959,0.816650,-0.249878,0.374512,519
23759854,9993,0.820312,-0.249634,0.368774,519
23769850,9996,0.827393,-0.250732,0.366211,515
23779875,10025,0.832642,-0.250366,0.364868,516
23789850,9975,0.836670,-0.253784,0.361938,513
23799865,10015,0.839111,-0.260376,0.362061,518
23809868,10003,0.844116,-0.267456,0.359253,520
23819871,10003,0.868286,-0.270874,0.356689,516
23831203,11332,0.885132,-0.273071,0.356812,514
23839874,8671,0.904175,-0.278198,0.358398,519
23849867,9993,0.934814,-0.278809,0.357910,518
23859868,10001,0.975342,-0.280396,0.360596,523
23869848,9980,1.047729,-0.277344,0.381348,522
23879870,10022,1.053223,-0.274658,0.388062,531
23889851,9981,1.031128,-0.282227,0.387573,535
23899860,10009,0.989136,-0.295044,0.378540,533
23909867,10007,0.940674,-0.309082,0.365967,534
23919879,10012,0.899414,-0.325928,0.344238,532
23929868,9989,0.844482,-0.336548,0.336914,525
23939871,10003,0.835083,-0.324707,0.331787,520
23949857,9986,0.833862,-0.309082,0.326660,518
23959862,10005,0.837769,-0.298706,0.321289,514
23969848,9986,0.847900,-0.306885,0.319336,508
23979861,10013,0.874390,-0.312622,0.317627,503
23989868,10007,0.885254,-0.302368,0.316040,501
23999866,9998,0.891357,-0.295166,0.314575,489
24009860,9994,0.896118,-0.288940,0.312744,488
24019867,10007,0.898926,-0.285278,0.310669,492
24029853,9986,0.896729,-0.294189,0.309326,489
24039863,10010,0.892944,-0.302246,0.309814,483
24049862,9999,0.893066,-0.310425,0.308716,487
24059861,9999,0.887085,-0.318604,0.308228,492
24069867,10006,0.877930,-0.327148,0.306885,488
24079857,9990,0.870117,-0.333862,0.306030,494
24089852,9995,0.866455,-0.336914,0.309204,497
24099870,10018,0.873413,-0.337280,0.313354,492
24109859,9989,0.889282,-0.338379,0.315430,501
24119850,9991,0.905640,-0.342041,0.317871,504
24129880,10030,0.923584,-0.350220,0.317505,506
24142301,12421,0.955811,-0.376465,0.315674,505
24149869,7568,0.968506,-0.389771,0.314087,505
24159853,9984,0.979370,-0.399170,0.314087,501
24169848,9995,0.991455,-0.407227,0.313354,505
24179848,10000,0.999878,-0.410645,0.313232,504
24189875,10027,1.003784,-0.410034,0.313721,506
24199857,9982,1.003052,-0.404419,0.311157,504
24209862,10005,0.998169,-0.400391,0.307739,512
24219875,10013,0.980835,-0.393677,0.304932,513
24229857,9982,0.963013,-0.380981,0.297852,509
24239864,10007,0.940918,-0.363892,0.290405,516
24249872,10008,0.898682,-0.326050,0.279541,510
24259860,9988,0.883423,-0.308350,0.276123,507
24269868,10008,0.870972,-0.296631,0.274658,512
24279863,9995,0.860596,-0.284912,0.271118,506
24289888,10025,0.850830,-0.278442,0.268311,510
24299872,9984,0.846802,-0.276001,0.266479,508
24309862,9990,0.839478,-0.281982,0.270020,509
24319856,9994,0.836548,-0.292114,0.271851,507
24329851,9995,0.835205,-0.308838,0.273926,497
24339871,10020,0.833862,-0.322266,0.273560,496
24349857,9986,0.829834,-0.328735,0.276245,497
24359850,9993,0.833008,-0.332275,0.281006,494
24369850,10000,0.835327,-0.330322,0.281128,487
24379866,10016,0.840088,-0.332031,0.283569,492
24389867,10001,0.847290,-0.338257,0.285522,489
24399870,10003,0.856323,-0.347046,0.286743,481
24409877,10007,0.863770,-0.354614,0.286743,485
24419853,9976,0.880127,-0.365601,0.287109,482
24429865,10012,0.886719,-0.372437,0.288574,479
24446234,16369,0.920776,-0.380371,0.284668,482
24451727,5493,0.000000,0.000000,0.000000,485
24459850,8123,0.965210,-0.383057,0.281006,486
24469854,10004,1.064209,-0.385254,0.296387,493
24479865,10011,1.070313,-0.393188,0.306152,498
24489885,10020,1.049194,-0.409302,0.306519,502
24499858,9973,1.024292,-0.422485,0.302002,503
24509855,9997,1.001343,-0.425049,0.306152,512
24519849,9994,0.908203,-0.403809,0.333496,513
24529848,9999,0.882568,-0.395020,0.343750,518
24539856,10008,0.840088,-0.387451,0.345947,518
24549853,9997,0.807007,-0.388916,0.340698,512
24559874,10021,0.785889,-0.390869,0.331787,521
24569870,9996,0.776855,-0.390259,0.328857,515
24579874,10004,0.795532,-0.338257,0.344971,512
24589859,9985,0.821045,-0.289551,0.352051,516
24599853,9994,0.838135,-0.251709,0.359619,521
24609867,10014,0.861206,-0.232178,0.365234,521
24619854,9987,0.879517,-0.222778,0.368530,515
24629865,10011,0.914062,-0.234009,0.360596,516
24639861,9996,0.935425,-0.228394,0.359497,519
24656662,16801,0.985352,-0.240479,0.376587,529
24663454,6792,0.000000,0.000000,0.000000,524
24669870,6416,1.002808,-0.251709,0.391113,526
24679869,9999,1.012695,-0.260132,0.402466,522
24689848,9979,1.000610,-0.255981,0.424683,528
24699867,10019,0.982300,-0.239502,0.433960,533
24709872,10005,0.950195,-0.230957,0.439819,536
24719850,9978,0.915527,-0.218018,0.440308,538
24729862,10012,0.881714,-0.201904,0.443848,538
24739860,9998,0.831055,-0.192139,0.451660,539
24757972,18112,0.785156,-0.212891,0.437134,543
24764161,6189,0.000000,0.000000,0.000000,540
24769857,5696,0.778320,-0.222168,0.431763,541
24779850,9993,0.785889,-0.241089,0.429565,541
24789866,10016,0.798584,-0.268555,0.429321,540
24799857,9991,0.818359,-0.281006,0.428955,538
24809857,10000,0.824585,-0.261108,0.424683,537
24819856,9999,0.833740,-0.247437,0.420410,536
24829856,10000,0.838257,-0.240112,0.411865,536
24839902,10046,0.841553,-0.244141,0.409546,536
24858404,18502,0.835937,-0.257446,0.399414,534
24863610,5206,0.000000,0.000000,0.000000,531
24869870,6260,0.829346,-0.263672,0.398438,525
24879850,9980,0.817871,-0.273071,0.393311,527
24889854,10004,0.806885,-0.277710,0.388184,528
24899852,9998,0.799683,-0.271484,0.388062,520
24909855,10003,0.793335,-0.269409,0.388550,522
24919872,10017,0.789307,-0.271362,0.387207,523
24929849,9977,0.790161,-0.276245,0.384888,512
24939850,10001,0.795654,-0.285767,0.380615,509
24959697,19847,0.808350,-0.312500,0.379639,509
24965093,5396,0.000000,0.000000,0.000000,509
24969877,4784,0.816772,-0.322510,0.373413,502
24979860,9983,0.822510,-0.331665,0.366455,504
24989849,9989,0.824097,-0.337524,0.356323,497
24999858,10009,0.829590,-0.330933,0.350830,500
25009860,10002,0.846558,-0.289673,0.350098,504
25019880,10020,0.852417,-0.274780,0.347778,502
25029861,9981,0.865601,-0.273071,0.348145,506
25039850,9989,0.878906,-0.270508,0.351929,509
25064269,24419,0.904541,-0.259521,0.349609,515
25071696,7427,0.917480,-0.258057,0.347778,524
25078859,7163,0.940796,-0.266602,0.344849,526
25085728,6869,0.000000,0.000000,0.000000,527
25090018,4290,0.974243,-0.271973,0.347412,529
25099856,9838,1.009766,-0.273804,0.358032,526
25109857,10001,1.032227,-0.277466,0.368164,529
25119853,9996,1.001953,-0.306885,0.371704,528
25129866,10013,0.957764,-0.326294,0.360840,528
25139853,9987,0.912354,-0.338135,0.348511,521
25149858,10005,0.876953,-0.341919,0.338257,521
25164755,14897,0.840454,-0.335815,0.329956,518
25170614,5859,0.000000,0.000000,0.000000,516
25179849,9235,0.843872,-0.325806,0.331421,512
25189851,10002,0.852051,-0.331665,0.331177,507
25199858,10007,0.864136,-0.335815,0.329712,504
25209863,10005,0.876465,-0.333008,0.327148,497
25219850,9987,0.887817,-0.329224,0.323364,494
25229858,10008,0.902466,-0.314087,0.324097,485
25239881,10023,0.906006,-0.313110,0.323486,488
25249853,9972,0.906494,-0.316650,0.323730,486
25259874,10021,0.901489,-0.322021,0.322144,476
25269860,9986,0.895996,-0.333740,0.318359,481
25279856,9996,0.894897,-0.352783,0.310547,475
25289855,9999,0.895874,-0.356445,0.309692,483
25299852,9997,0.900635,-0.359131,0.309204,480
25309850,9998,0.908447,-0.362183,0.311768,487
25319867,10017,0.915283,-0.369507,0.314819,485
25329874,10007,0.924561,-0.373779,0.314819,489
25339877,10003,0.942505,-0.382690,0.312134,490
25349868,9991,0.952026,-0.389160,0.310059,488
25359870,10002,0.966431,-0.396973,0.307739,498
25376035,16165,0.993164,-0.416748,0.302612,499
25381988,5953,0.000000,0.000000,0.000000,497
25389888,7900,1.000854,-0.436890,0.297852,502
25399858,9970,0.996216,-0.442749,0.294556,502
25409848,9990,0.981934,-0.440186,0.290161,504
25419858,10010,0.963623,-0.430664,0.282349,510
25429877,10019,0.942871,-0.419800,0.279907,507
25439853,9976,0.927124,-0.400024,0.277832,504
25449855,10002,0.898071,-0.356201,0.274658,506
25463370,13515,0.886719,-0.335205,0.273926,512
25492943,29573,0.861328,-0.294189,0.265625,504
25498422,5479,0.000000,0.000000,0.000000,512
25502784,4362,0.860596,-0.298218,0.264526,509
25508313,5529,0.000000,0.000000,0.000000,507
25512390,4077,0.861572,-0.314331,0.264893,504
25519854,7464,0.867798,-0.331055,0.266968,506
25529855,10001,0.871948,-0.343506,0.265869,500
25567072,37217,0.876709,-0.346802,0.261963,491
25572627,5555,0.000000,0.000000,0.000000,490
25576739,4112,0.875977,-0.344116,0.259155,488
25582005,5266,0.000000,0.000000,0.000000,489
25586715,4710,0.877930,-0.343018,0.257935,481
25592309,5594,0.000000,0.000000,0.000000,483
25599877,7568,0.878784,-0.340820,0.258057,489
25659169,59292,1.066528,-0.362915,0.265747,504
25664851,5682,1.059570,-0.377075,0.263428,509
25670190,5339,1.037231,-0.394775,0.257690,511
25675681,5491,0.000000,0.000000,0.000000,505
25680306,4625,0.999756,-0.401978,0.256592,514
25685778,5472,0.000000,0.000000,0.000000,515
25690151,4373,0.951172,-0.402344,0.270630,513
25695727,5576,0.895386,-0.392822,0.296997,520
25701113,5386,0.000000,0.000000,0.000000,519
25705680,4567,0.847290,-0.381348,0.309204,521
25711134,5454,0.000000,0.000000,0.000000,520
25719849,8715,0.781860,-0.385986,0.302612,521
25729853,10004,0.773315,-0.383789,0.305664,513
25739860,10007,0.771362,-0.364502,0.319458,515
25749848,9988,0.778809,-0.321899,0.334595,520
25759872,10024,0.786255,-0.266479,0.344116,523
25780706,20834,0.811157,-0.226440,0.348511,526
25786300,5594,0.000000,0.000000,0.000000,525
25790560,4260,0.822998,-0.238892,0.348145,519
25799860,9300,0.839966,-0.257813,0.353027,524
25809874,10014,0.864014,-0.273193,0.360718,523
25872115,62241,0.983154,-0.298340,0.415527,526
25889964,17849,0.938354,-0.270752,0.418335,530
25895481,5517,0.000000,0.000000,0.000000,532
25899643,4162,0.910156,-0.260498,0.419312,536
25904805,5162,0.000000,0.000000,0.000000,534
25909115,4310,0.885742,-0.255981,0.422852,534
25952389,43274,0.827515,-0.252686,0.400146,530
25957686,5297,0.817261,-0.245972,0.394531,529
25963154,5468,0.000000,0.000000,0.000000,525
25967628,4474,0.821289,-0.240234,0.389038,522
25973050,5422,0.000000,0.000000,0.000000,523
25977525,4475,0.826172,-0.242920,0.381836,529
25982993,5468,0.833496,-0.249023,0.377441,527
25988523,5530,0.000000,0.000000,0.000000,523
25992758,4235,0.843750,-0.250854,0.371094,521
25998076,5318,0.000000,0.000000,0.000000,521
26002395,4319,0.854126,-0.257080,0.368286,520
26008015,5620,0.865967,-0.269897,0.366211,526
26013497,5482,0.000000,0.000000,0.000000,524
26017761,4264,0.872192,-0.280396,0.361328,525
26023071,5310,0.000000,0.000000,0.000000,518
26029862,6791,0.875000,-0.287842,0.355591,523
26039848,9986,0.872437,-0.294312,0.353516,520
26049848,10000,0.866089,-0.282471,0.352905,519
26059853,10005,0.861084,-0.265381,0.353271,526
26069863,10010,0.855469,-0.250122,0.356079,524
26079853,9990,0.847778,-0.241089,0.357300,531
26089858,10005,0.841675,-0.240356,0.357910,530
26099849,9991,0.826416,-0.251587,0.358521,530
26109870,10021,0.823853,-0.259766,0.359619,531
26119871,10001,0.817871,-0.265625,0.361572,535
26129865,9994,0.816284,-0.269775,0.364014,534
26139869,10004,0.813843,-0.270752,0.363892,532
26149886,10017,0.813721,-0.272583,0.361450,531
26159864,9978,0.820068,-0.275757,0.360718,532
26169854,9990,0.823486,-0.278320,0.358398,523
26184003,14149,0.848267,-0.282349,0.357422,527
26190747,6744,0.000000,0.000000,0.000000,529
26199852,9105,0.870605,-0.282104,0.359253,522
26209869,10017,0.917847,-0.287109,0.363770,525
26219848,9979,0.953491,-0.292236,0.364868,526
26229869,10021,1.000244,-0.295898,0.368652,527
26239862,9993,1.045288,-0.294922,0.379883,527
26249854,9992,1.074219,-0.295898,0.392212,527
26259863,10009,1.050171,-0.314697,0.391357,532
26269868,10005,0.999756,-0.321411,0.377197,536
26279874,10006,0.945801,-0.321167,0.361328,539
26289891,10017,0.898926,-0.311890,0.349854,538
26299867,9976,0.859985,-0.306030,0.343628,538
26309851,9984,0.834961,-0.313477,0.342896,528
26319871,10020,0.809570,-0.302002,0.337158,533
26329890,10019,0.806641,-0.296509,0.336182,528
26339849,9959,0.806396,-0.304443,0.337402,523
26349850,10001,0.811890,-0.323486,0.336548,519
26359859,10009,0.817383,-0.336670,0.335815,513
26369874,10015,0.830322,-0.325073,0.337036,511
26379866,9992,0.838745,-0.314575,0.337280,504
26389861,9995,0.853638,-0.316895,0.336304,492
26399871,10010,0.869263,-0.327271,0.338013,498
26409855,9984,0.888184,-0.331299,0.339844,494
26419858,10003,0.903442,-0.334473,0.337769,492
26429858,10000,0.927734,-0.358521,0.331543,491
26439876,10018,0.936890,-0.379028,0.327148,494
26449855,9979,0.942383,-0.404297,0.317139,492
26459902,10047,0.940430,-0.423340,0.307861,494
26469855,9953,0.937622,-0.428101,0.301636,496
26479871,10016,0.935547,-0.423706,0.291626,497
26500577,20706,0.944336,-0.423462,0.286743,501
26506004,5427,0.948853,-0.401489,0.286987,504
26522030,16026,0.964844,-0.366089,0.288086,510
26527343,5313,0.000000,0.000000,0.000000,509
26531880,4537,0.973755,-0.341919,0.288574,507
26539854,7974,0.981567,-0.320801,0.287964,505
26549877,10023,0.984009,-0.302734,0.286987,512
26559875,9998,0.979614,-0.288696,0.284302,508
26569856,9981,0.970215,-0.281128,0.282471,511
26579862,10006,0.954590,-0.277954,0.279907,509
26589868,10006,0.904907,-0.291016,0.277954,512
26599860,9992,0.880493,-0.317505,0.278320,506
26627274,27414,0.828369,-0.346558,0.286621,505
26632778,5504,0.821655,-0.349854,0.291016,502
26639265,6487,0.000000,0.000000,0.000000,503
26644917,5652,0.818848,-0.353027,0.293213,498
26651448,6531,0.820435,-0.353149,0.291992,499
26659873,8425,0.819702,-0.355469,0.289185,496
26669869,9996,0.820557,-0.359741,0.286743,493
26679887,10018,0.825562,-0.358887,0.282837,488
26689868,9981,0.832764,-0.351440,0.282227,494
26699877,10009,0.849731,-0.337769,0.281738,485
26709878,10001,0.856079,-0.333130,0.280518,489
26719864,9986,0.861816,-0.330688,0.279175,491
26729870,10006,0.864868,-0.330200,0.280518,487
26739849,9979,0.866699,-0.330688,0.281616,494
26749861,10012,0.869263,-0.332886,0.281738,492
26759877,10016,0.864380,-0.330200,0.281372,500
26769848,9971,0.863403,-0.333374,0.279785,504
26779854,10006,0.886108,-0.343140,0.270142,502
26789873,10019,0.960815,-0.352783,0.261353,513
26802363,12490,1.113525,-0.359985,0.307495,513
26809903,7540,1.126221,-0.383179,0.313477,518
26819864,9961,1.116943,-0.420288,0.307129,523
26829873,10009,1.087524,-0.447510,0.297485,520
26839865,9992,1.042847,-0.448608,0.290771,530
26849871,10006,0.991211,-0.435913,0.300537,530
26859852,9981,0.868530,-0.414062,0.331055,529
26869872,10020,0.821411,-0.388794,0.344238,528
26879858,9986,0.784180,-0.373535,0.348633,520
26889856,9998,0.759644,-0.375488,0.366699,526
26930999,41143,0.769653,-0.414673,0.354248,514
26936737,5738,0.798462,-0.394653,0.369019,507
26942163,5426,0.000000,0.000000,0.000000,506
26946257,4094,0.840820,-0.323853,0.387817,511
26951870,5613,0.000000,0.000000,0.000000,514
26956279,4409,0.878418,-0.256348,0.406372,516
26961732,5453,0.920776,-0.213989,0.423950,518
26969867,8135,0.954468,-0.175415,0.434692,515
26979871,10004,0.976685,-0.140991,0.433472,526
26989864,9993,0.982788,-0.132080,0.426392,531
27022968,33104,0.980713,-0.160034,0.450928,543
27028301,5333,0.000000,0.000000,0.000000,543
27032446,4145,0.965820,-0.153931,0.458618,538
27037992,5546,0.951050,-0.150879,0.466675,540
27043398,5406,0.000000,0.000000,0.000000,543
27049849,6451,0.923218,-0.141846,0.473999,546
27059863,10014,0.889160,-0.143555,0.474854,539
27069859,9996,0.857544,-0.165283,0.462646,537
27079862,10003,0.811890,-0.236450,0.421753,529
27089857,9995,0.782227,-0.263550,0.405029,531
27100062,10205,0.776611,-0.275391,0.401611,527
27109871,9809,0.780884,-0.291870,0.400879,525
27119861,9990,0.785767,-0.295898,0.413208,522
27129868,10007,0.800049,-0.276978,0.410889,519
27139851,9983,0.806152,-0.289917,0.392700,515
27149864,10013,0.808716,-0.309448,0.368164,509
27159857,9993,0.812134,-0.324463,0.356079,509
27169860,10003,0.820801,-0.322388,0.357544,513
27179872,10012,0.828979,-0.285156,0.366577,513
27189867,9995,0.849609,-0.227417,0.378418,516
27199852,9985,0.859741,-0.222290,0.381714,518
27209849,9997,0.865967,-0.210571,0.381958,522
27219856,10007,0.862671,-0.205322,0.379639,523
27229873,10017,0.859131,-0.210327,0.383545,520
27239854,9981,0.843750,-0.231812,0.388062,526
27249848,9994,0.837891,-0.257568,0.383789,526
27259863,10015,0.833374,-0.279297,0.381104,525
27269871,10008,0.828491,-0.288330,0.381714,528
27279849,9978,0.826294,-0.286865,0.382935,516
27289873,10024,0.827515,-0.251343,0.384155,522
27309301,19428,0.831665,-0.280762,0.379150,520
27314896,5595,0.000000,0.000000,0.000000,514
27319850,4954,0.835937,-0.282471,0.377319,517
27329858,10008,0.842896,-0.285156,0.375488,519
27339852,9994,0.849121,-0.287231,0.373901,519
27349859,10007,0.859375,-0.290527,0.371216,520
27359880,10021,0.868530,-0.292358,0.368408,518
27369864,9984,0.878784,-0.296875,0.368408,521
27379850,9986,0.887573,-0.299438,0.368774,520
27389852,10002,0.894287,-0.297607,0.367188,519
27399871,10019,0.933105,-0.297729,0.363403,517
27409871,10000,0.937012,-0.300415,0.362305,524
27419864,9993,0.961914,-0.300293,0.362671,519
27429856,9992,0.984497,-0.304077,0.365112,526
27439867,10011,0.996948,-0.311035,0.365845,527
27449849,9982,0.992432,-0.317139,0.362671,529
27459854,10005,0.940918,-0.326904,0.345581,533
27469862,10008,0.908691,-0.329956,0.338257,531
27479870,10008,0.879761,-0.331665,0.329712,533
27489849,9979,0.859375,-0.329712,0.323730,533
27499868,10019,0.848389,-0.326660,0.321655,531
27532050,32182,0.856323,-0.305786,0.309204,519
27537591,5541,0.865479,-0.302490,0.309692,517
27542931,5340,0.000000,0.000000,0.000000,514
27547133,4202,0.873657,-0.300171,0.308716,521
27552709,5576,0.880127,-0.299316,0.310425,510
27559851,7142,0.000000,0.000000,0.000000,500
27569850,9999,0.872314,-0.299683,0.312256,495
27579861,10011,0.864502,-0.302856,0.309448,492
27589864,10003,0.856323,-0.306152,0.307007,483
27599871,10007,0.848389,-0.310303,0.305908,486
27609848,9977,0.841309,-0.316528,0.304688,477
27619863,10015,0.834961,-0.323730,0.305542,481
27629856,9993,0.844360,-0.326660,0.309570,476
27639858,10002,0.863892,-0.333862,0.313965,470
27649870,10012,0.881836,-0.340942,0.314697,479
27659864,9994,0.902832,-0.347290,0.317261,473
27669848,9984,0.924194,-0.355957,0.316895,480
27679861,10013,0.973633,-0.376587,0.318970,483
27689859,9998,0.999146,-0.390381,0.319214,482
27699870,10011,1.019165,-0.405640,0.318970,481
27733727,33857,1.039795,-0.445190,0.299805,497
27739534,5807,1.027100,-0.452637,0.298096,500
27745138,5604,0.000000,0.000000,0.000000,501
27749656,4518,1.008545,-0.455688,0.298828,503
27755087,5431,0.000000,0.000000,0.000000,499
27759853,4766,0.987793,-0.439209,0.294434,506
27769857,10004,0.956543,-0.410767,0.294067,503
27779874,10017,0.897461,-0.354492,0.288818,511
27789851,9977,0.875000,-0.325195,0.287964,504
27799855,10004,0.857544,-0.301880,0.287354,509
27809852,9997,0.843018,-0.286133,0.284668,512
27819854,10002,0.833008,-0.275024,0.281616,511
27829862,10008,0.828735,-0.270752,0.280640,504
27839874,10012,0.829346,-0.286743,0.276733,509
27849859,9985,0.835205,-0.309204,0.279663,502
27899137,49278,0.878174,-0.361206,0.289917,489
27929336,30199,0.898804,-0.389404,0.284302,484
27978875,49539,1.086182,-0.423584,0.287354,501
27984168,5293,1.038696,-0.444092,0.268555,504
27989858,5690,0.000000,0.000000,0.000000,502
27995376,5518,0.987183,-0.444702,0.258667,509
28006641,11265,0.934814,-0.433716,0.263306,509
28013569,6928,0.881226,-0.409668,0.276611,515
28019969,6400,0.831909,-0.384399,0.309448,515
28025300,5331,0.000000,0.000000,0.000000,516
28030267,4967,0.802856,-0.370117,0.328735,515
28037424,7157,0.780640,-0.350098,0.333374,516
28043167,5743,0.759033,-0.333862,0.334717,510
28048740,5573,0.000000,0.000000,0.000000,511
28053688,4948,0.755249,-0.320068,0.333862,515
28059295,5607,0.760620,-0.293091,0.335083,518
28064628,5333,0.000000,0.000000,0.000000,518
28068949,4321,0.768311,-0.257324,0.338623,514
28074778,5829,0.000000,0.000000,0.000000,513
28079796,5018,0.782959,-0.237915,0.346680,519
28085604,5808,0.801758,-0.242187,0.355835,512
28091665,6061,0.000000,0.000000,0.000000,517
28096431,4766,0.823242,-0.259766,0.363892,520
28101687,5256,0.844604,-0.271240,0.375488,513
28107579,5892,0.000000,0.000000,0.000000,517
28112764,5185,0.864868,-0.260376,0.389526,518
28119863,7099,0.888672,-0.276978,0.397461,517
28132513,12650,0.917358,-0.306030,0.400757,514
28139863,7350,0.941650,-0.320068,0.401245,515
28149857,9994,0.958252,-0.328125,0.406372,516
28159858,10001,0.976440,-0.333496,0.425171,520
28169851,9993,0.976929,-0.320190,0.429199,521
28179857,10006,0.974243,-0.294312,0.433105,531
28189864,10007,0.969238,-0.261108,0.434326,539
28199854,9990,0.963501,-0.231201,0.431885,543
28209866,10012,0.953369,-0.208984,0.430054,543
28219857,9991,0.920044,-0.200806,0.424683,550
28229861,10004,0.898682,-0.205933,0.422363,548
28239867,10006,0.875977,-0.202515,0.423340,548
28249855,9988,0.859741,-0.193970,0.427246,552
28259863,10008,0.847168,-0.199585,0.425659,547
28269854,9991,0.836670,-0.218018,0.417114,549
28279873,10019,0.836670,-0.226440,0.414307,538
28289868,9995,0.829468,-0.232056,0.408691,542
28299856,9988,0.831543,-0.235107,0.406616,538
28309848,9992,0.836548,-0.242554,0.404785,531
28319865,10017,0.841187,-0.250488,0.404053,527
28329858,9993,0.837036,-0.239746,0.402222,527
28339861,10003,0.837158,-0.233398,0.405151,527
28349858,9997,0.836792,-0.236816,0.401245,521
28359856,9998,0.828003,-0.244141,0.395874,523
28369850,9994,0.820679,-0.244629,0.387939,520
28379848,9998,0.811279,-0.243408,0.385376,519
28389857,10009,0.809204,-0.237427,0.388794,512
28399870,10013,0.807495,-0.227661,0.390503,513
28409861,9991,0.803101,-0.223877,0.391235,518
28419862,10001,0.802734,-0.222290,0.391357,515
28429886,10024,0.802856,-0.233398,0.397095,516
28439859,9973,0.808960,-0.245850,0.397949,515
28449878,10019,0.813232,-0.255981,0.395508,515
28459877,9999,0.815674,-0.258789,0.391602,516
28469868,9991,0.817261,-0.262085,0.389404,512
28479862,9994,0.820801,-0.260254,0.390015,512
28489870,10008,0.825684,-0.245239,0.392944,510
28499856,9986,0.828003,-0.240479,0.394409,515
28509852,9996,0.832275,-0.238281,0.391113,518
28519866,10014,0.842163,-0.239624,0.388916,520
28529850,9984,0.853149,-0.242920,0.388916,521
28539852,10002,0.880371,-0.260132,0.386230,524
28549892,10040,0.897583,-0.266357,0.383179,521
28559850,9958,0.921387,-0.269653,0.382202,525
28569875,10025,0.947754,-0.270752,0.384155,529
28579869,9994,0.970093,-0.273926,0.384766,530
28589874,10005,0.978760,-0.280273,0.386108,534
28599878,10004,0.954956,-0.298462,0.379150,534
28609876,9998,0.926147,-0.305908,0.367920,527
28619856,9980,0.895142,-0.306885,0.358154,535
28629866,10010,0.873047,-0.304321,0.349609,532
28639856,9990,0.862427,-0.299072,0.344727,527
28649861,10005,0.856812,-0.284058,0.339233,524
28659870,10009,0.862427,-0.293945,0.337646,524
28669848,9978,0.873291,-0.301025,0.339355,519
28679875,10027,0.874756,-0.295776,0.337280,516
28689867,9992,0.876587,-0.291748,0.338257,512
28699865,9998,0.876953,-0.284424,0.337280,510
28709854,9989,0.868286,-0.272583,0.336792,506
28722171,12317,0.863159,-0.274414,0.335693,497
28729877,7706,0.857056,-0.275269,0.333252,499
28739865,9988,0.851685,-0.277100,0.334106,497
28749873,10008,0.852783,-0.281372,0.334106,494
28759864,9991,0.872314,-0.302246,0.335815,491
28769864,10000,0.890991,-0.310547,0.333252,496
28779863,9999,0.905029,-0.320679,0.335938,494
28789872,10009,0.924927,-0.333008,0.336914,490
28799849,9977,0.949829,-0.345459,0.333496,492
28809852,10003,0.996094,-0.377686,0.335327,491
28819848,9996,0.991333,-0.389771,0.334473,491
28832943,13095,0.996338,-0.399780,0.331543,490
28839865,6922,0.994995,-0.406494,0.328125,490
28849859,9994,0.985840,-0.409668,0.323975,491
28859869,10010,0.973999,-0.416748,0.321899,494
28869860,9991,0.955566,-0.422363,0.321289,497
28879859,9999,0.944702,-0.419678,0.320313,498
28889883,10024,0.932617,-0.404907,0.320313,499
28899854,9971,0.919800,-0.382813,0.317261,507
28909875,10021,0.907104,-0.358887,0.314941,513
28919864,9989,0.888062,-0.318115,0.308350,510
28929870,10006,0.880127,-0.302979,0.308228,517
28939862,9992,0.880737,-0.292114,0.305176,519
28949857,9995,0.880005,-0.288574,0.302490,518
28959865,10008,0.880737,-0.290649,0.300659,516
28969877,10012,0.880493,-0.302124,0.300293,511
28979865,9988,0.878296,-0.344849,0.305298,510
28989864,9999,0.873779,-0.356445,0.307983,505
28999865,10001,0.872070,-0.361694,0.308716,500
29009856,9991,0.868530,-0.363770,0.307617,493
29019865,10009,0.864868,-0.360474,0.305420,488
29029854,9989,0.863525,-0.356689,0.300049,491
29039864,10010,0.861938,-0.358032,0.297363,484
29049852,9988,0.864868,-0.359985,0.296021,477
29059869,10017,0.865967,-0.359619,0.294434,479
29069886,10017,0.871948,-0.355103,0.294922,483
29079854,9968,0.879150,-0.350098,0.295044,484
29089867,10013,0.916992,-0.346924,0.290405,487
29099850,9983,0.961914,-0.358765,0.291138,485
29109848,9998,1.013550,-0.364380,0.299805,494
29119890,10042,1.045044,-0.365356,0.308594,493
29129850,9960,1.051392,-0.375854,0.309692,507
29144146,14296,1.020996,-0.408691,0.304199,511
29150340,6194,0.993042,-0.416260,0.306641,513
29159874,9534,0.954102,-0.413208,0.314819,517
29169874,10000,0.914429,-0.404053,0.328979,518
29179853,9979,0.878052,-0.393066,0.341064,521
29189873,10020,0.812622,-0.355103,0.348877,523
29199864,9991,0.789429,-0.337158,0.353149,524
29209862,9998,0.772095,-0.324463,0.358643,522
29219876,10014,0.762817,-0.309692,0.364502,523
29229869,9993,0.755615,-0.286743,0.370483,521
29239856,9987,0.756714,-0.262329,0.375977,515
29249866,10010,0.767212,-0.247192,0.385742,514
29259855,9989,0.773804,-0.242554,0.387939,513
29269853,9998,0.778931,-0.234253,0.386719,513
29279875,10022,0.789673,-0.244873,0.386353,516
29289864,9989,0.811401,-0.259888,0.387573,510
29299866,10002,0.872681,-0.270142,0.392090,512
29309875,10009,0.909668,-0.276978,0.398438,512
29319866,9991,0.947754,-0.282715,0.402710,512
29329869,10003,0.979980,-0.280640,0.408691,513
29339851,9982,1.000488,-0.277710,0.412842,517
29349863,10012,1.008057,-0.272095,0.411987,521
29359860,9997,0.996216,-0.255493,0.408325,522
29369851,9991,0.974854,-0.242676,0.407227,530
29379873,10022,0.953247,-0.235474,0.407471,530
29389857,9984,0.936646,-0.233765,0.406494,532
29399873,10016,0.920654,-0.237183,0.399536,534
29409857,9984,0.888916,-0.244507,0.395874,532
29419854,9997,0.885010,-0.244507,0.387695,535
29433991,14137,0.886597,-0.246826,0.386841,529
29439850,5859,0.875977,-0.243042,0.381348,524
29449857,10007,0.867310,-0.241821,0.384766,529
29459857,10000,0.860962,-0.230103,0.385010,525
29469870,10013,0.859863,-0.247681,0.375732,523
29479868,9998,0.850098,-0.254883,0.369141,522
29489854,9986,0.840332,-0.255127,0.364014,513
29499856,10002,0.832642,-0.256592,0.360840,511
29509862,10006,0.829834,-0.258057,0.357178,515
29519855,9993,0.824463,-0.248291,0.352295,516
29533984,14129,0.822998,-0.243164,0.354980,511
29539860,5876,0.828125,-0.239746,0.354736,511
29549875,10015,0.830566,-0.236694,0.354492,509
29559869,9994,0.835571,-0.238159,0.352051,506
29569849,9980,0.841675,-0.242432,0.355103,510
29579860,10011,0.859985,-0.249756,0.359619,512
29589862,10002,0.869507,-0.253662,0.364136,514
29599859,9997,0.876465,-0.258179,0.367065,511
29609873,10014,0.880981,-0.259766,0.367676,517
29619856,9983,0.882935,-0.258423,0.368408,520
29629901,10045,0.876709,-0.251465,0.371094,520
29639864,9963,0.876099,-0.246216,0.370972,519
29649861,9997,0.878418,-0.241577,0.371826,527
29659863,10002,0.885864,-0.237915,0.375122,522
29669870,10007,0.893555,-0.233643,0.377197,531
29679862,9992,0.900269,-0.235962,0.380005,531
29689861,9999,0.900513,-0.242432,0.381226,532
29699850,9989,0.903564,-0.251709,0.378906,535
29709848,9998,0.921875,-0.266479,0.376099,536
29719869,10021,0.963257,-0.276733,0.380371,537
29729870,10001,1.003662,-0.279053,0.389404,537
29739849,9979,1.022461,-0.294434,0.407349,536
29749855,10006,0.988770,-0.308105,0.405640,536
29759856,10001,0.930542,-0.315674,0.395874,531
29769871,10015,0.871338,-0.311279,0.379150,531
29779860,9989,0.817261,-0.308350,0.363159,534
29789851,9991,0.773071,-0.292236,0.337769,526
29799866,10015,0.773682,-0.278809,0.331055,525
29809866,10000,0.781982,-0.272705,0.326050,514
29819901,10035,0.791992,-0.273193,0.320679,515
29829866,9965,0.800415,-0.281860,0.317139,511
29839860,9994,0.811646,-0.294556,0.313232,501
29849871,10011,0.822632,-0.288696,0.300659,497
29859875,10004,0.826172,-0.289673,0.297974,496
29869850,9975,0.838013,-0.290405,0.290771,486
29879862,10012,0.848145,-0.292114,0.288086,485
29889868,10006,0.862061,-0.297119,0.289551,481
29899852,9984,0.906616,-0.309082,0.284790,478
29909860,10008,0.933472,-0.317871,0.286743,478
29919865,10005,0.958740,-0.326782,0.287842,477
29929860,9995,0.981445,-0.338257,0.290039,478
29939854,9994,0.998535,-0.352905,0.290405,476
29949877,10023,1.004639,-0.368530,0.292480,478
29959863,9986,1.002441,-0.394531,0.289795,481
29969867,10004,0.997681,-0.405884,0.288330,481
29979872,10005,0.986938,-0.421631,0.286377,482
29989904,10032,0.974609,-0.437500,0.285400,474
29999880,9976,0.961792,-0.451172,0.284302,484
30009874,9994,0.943848,-0.456665,0.281982,483
30019868,9994,0.940918,-0.452759,0.283447,480
30029861,9993,0.937622,-0.445435,0.286987,481
30040937,11076,0.937378,-0.433472,0.288940,480
30049868,8931,0.938599,-0.419434,0.289551,481
30059874,10006,0.939941,-0.389771,0.289307,481
30069862,9988,0.937500,-0.374878,0.287842,476
30079862,10000,0.930298,-0.361206,0.287964,483
30089863,10001,0.924927,-0.352173,0.287231,484
30099875,10012,0.915283,-0.349365,0.285522,487
30109848,9973,0.907349,-0.353394,0.284546,482
30119864,10016,0.920044,-0.399902,0.285156,489
30129870,10006,0.887329,-0.410278,0.278076,487
30139873,10003,0.881958,-0.419067,0.283203,487
30149853,9980,0.900391,-0.416870,0.279419,487
30159852,9999,0.888794,-0.423340,0.285156,488
30169900,10048,0.897095,-0.421875,0.274170,486
30179858,9958,0.901978,-0.415894,0.271606,481
30189867,10009,0.903687,-0.410278,0.269775,487
30199866,9999,0.904053,-0.404053,0.271362,490
30209863,9997,0.904785,-0.400635,0.265747,493
30219857,9994,0.903809,-0.397095,0.259399,496
30229865,10008,0.895508,-0.389526,0.252930,501
30239858,9993,0.890503,-0.381836,0.251343,503
30249851,9993,0.887329,-0.370972,0.250488,506
30259866,10015,0.886230,-0.358154,0.253540,506
30269863,9997,0.886353,-0.342529,0.254395,513
30279865,10002,0.884644,-0.331299,0.263794,513
30289868,10003,0.885376,-0.338379,0.270996,518
30299873,10005,0.887329,-0.350586,0.278076,512
30309872,9999,0.897949,-0.365845,0.282837,517
30319848,9976,0.921265,-0.378662,0.281860,518
30329876,10028,0.961304,-0.385742,0.282593,518
30339871,9995,1.045776,-0.382690,0.296631,516
30349870,9999,1.068970,-0.386841,0.302002,517
30359851,9981,1.073486,-0.393433,0.300537,516
30369888,10037,1.059326,-0.395752,0.297119,519
30379867,9979,1.025024,-0.393433,0.298706,522
30389851,9984,0.928345,-0.381470,0.307129,522
30399861,10010,0.876831,-0.377563,0.306641,519
30409876,10015,0.831909,-0.373169,0.310059,521
30419875,9999,0.808472,-0.353516,0.318481,526
30429851,9976,0.788330,-0.334717,0.328003,528
30439856,10005,0.776733,-0.317383,0.339233,528
30449878,10022,0.770996,-0.277710,0.343872,526
30461726,11848,0.775513,-0.256958,0.348755,528
30469849,8123,0.783813,-0.241577,0.353149,525
30479862,10013,0.794189,-0.230957,0.355591,527
30489856,9994,0.808594,-0.224365,0.358276,525
30499858,10002,0.853271,-0.222534,0.362793,528
30510725,10867,0.882446,-0.239258,0.368652,520
30519863,9138,0.912842,-0.255005,0.376831,525
30529853,9990,0.937622,-0.264648,0.386597,524
30539857,10004,0.959229,-0.275146,0.395630,521
30550616,10759,0.978027,-0.289673,0.412842,527
30559853,9237,0.974854,-0.287109,0.418579,530
30569856,10003,0.968262,-0.281982,0.420654,530
30579851,9995,0.951172,-0.275391,0.420288,532
30589858,10007,0.937134,-0.266846,0.414795,529
30599857,9999,0.917358,-0.257568,0.408447,538
30609849,9992,0.883423,-0.244385,0.399414,535
30619870,10021,0.870117,-0.240601,0.394165,533
30629848,9978,0.862305,-0.236084,0.389648,535
30639871,10023,0.858032,-0.235352,0.384766,531
30649868,9997,0.857666,-0.234863,0.381958,531
30659877,10009,0.863037,-0.235474,0.372803,530
30669873,9996,0.867310,-0.235229,0.370728,528
30679869,9996,0.876343,-0.240967,0.365967,523
30759004,79135,0.830200,-0.262939,0.340454,514
30764443,5439,0.824097,-0.257813,0.343018,521
30769938,5495,0.000000,0.000000,0.000000,519
30774210,4272,0.814819,-0.254150,0.340454,519
30779751,5541,0.815186,-0.251343,0.342041,518
30785296,5545,0.000000,0.000000,0.000000,520
30789297,4001,0.817749,-0.250610,0.344849,516
30794605,5308,0.000000,0.000000,0.000000,516
30798748,4143,0.817383,-0.259521,0.346191,519
30804105,5357,0.819458,-0.274658,0.348755,514
30809414,5309,0.000000,0.000000,0.000000,512
30813681,4267,0.824341,-0.283813,0.349121,509
30818768,5087,0.000000,0.000000,0.000000,504
30823165,4397,0.826904,-0.286133,0.350830,502
30829874,6709,0.830444,-0.282715,0.349609,510
30839865,9991,0.832642,-0.281372,0.347412,503
30849865,10000,0.838867,-0.282349,0.345581,504
30859866,10001,0.848389,-0.287476,0.344604,509
30869856,9990,0.862305,-0.292603,0.345703,511
30879856,10000,0.894775,-0.293945,0.347046,511
30889857,10001,0.909424,-0.297363,0.350098,518
30899858,10001,0.922363,-0.301147,0.350220,521
30909849,9991,0.941284,-0.306519,0.348267,522
30919877,10028,0.971069,-0.314331,0.350098,530
30929856,9979,1.009155,-0.315430,0.370605,534
30939853,9997,1.067017,-0.317261,0.380615,541
30949853,10000,1.053467,-0.330078,0.384766,542
30959877,10024,1.012695,-0.350098,0.377686,539
30969858,9981,0.962769,-0.365356,0.365601,546
30979867,10009,0.909668,-0.368408,0.356812,543
30989869,10002,0.824951,-0.346802,0.343262,537
30999860,9991,0.801270,-0.338379,0.338989,539
31009867,10007,0.787842,-0.337280,0.334229,531
31019861,9994,0.780029,-0.335205,0.327637,530
31029872,10011,0.775146,-0.334351,0.323975,522
31039866,9994,0.776978,-0.337891,0.317261,519
31049873,10007,0.790039,-0.344727,0.316162,508
31059871,9998,0.805054,-0.335449,0.311035,508
31069856,9985,0.819458,-0.327637,0.307739,504
31079856,10000,0.838501,-0.329468,0.302490,500
31089848,9992,0.859009,-0.333130,0.297363,492
31099863,10015,0.905640,-0.341064,0.292847,495
31109859,9996,0.929199,-0.349243,0.294312,490
31119849,9990,0.954712,-0.356689,0.295044,489
31129889,10040,0.976074,-0.363647,0.297363,488
31139848,9959,0.998535,-0.370850,0.300537,480
31149869,10021,1.029419,-0.381104,0.302246,482
31159851,9982,1.034424,-0.382324,0.300903,484
31173460,13609,1.030518,-0.385986,0.299316,492
31179883,6423,1.020752,-0.392212,0.297729,495
31189848,9965,1.005493,-0.405029,0.294434,495
31199870,10022,0.985840,-0.418579,0.289917,496
31209873,10003,0.940796,-0.417480,0.282471,497
31219872,9999,0.921997,-0.405396,0.281128,501
31292278,72406,0.827637,-0.294922,0.279419,504
31302879,10601,0.821533,-0.296265,0.275879,503
31308767,5888,0.000000,0.000000,0.000000,498
31313036,4269,0.824219,-0.303833,0.276855,503
31318516,5480,0.000000,0.000000,0.000000,496
31322473,3957,0.827637,-0.318237,0.278687,500
31327880,5407,0.834473,-0.344604,0.281616,493
31333391,5511,0.000000,0.000000,0.000000,492
31338093,4702,0.845703,-0.375244,0.283691,494
31344170,6077,0.000000,0.000000,0.000000,484
31348795,4625,0.853882,-0.395508,0.283813,488
31354287,5492,0.861572,-0.410645,0.282593,485
31365351,11064,0.870850,-0.422974,0.279297,473
31371154,5803,0.876587,-0.430542,0.272217,477
31377001,5847,0.000000,0.000000,0.000000,473
31382051,5050,0.882324,-0.434814,0.262695,473
31389849,7798,0.890503,-0.432251,0.255859,472
31399878,10029,0.900024,-0.430176,0.250488,468
31409855,9977,0.906982,-0.425293,0.245239,465
31419876,10021,0.911499,-0.411743,0.232910,462
31429875,9999,0.916870,-0.409546,0.227539,471
31439874,9999,0.922363,-0.417114,0.224121,473
31449873,9999,0.927246,-0.404419,0.219482,481
31459869,9996,0.929565,-0.383911,0.218140,483
31480773,20904,0.942139,-0.336304,0.215820,494
31486011,5238,0.000000,0.000000,0.000000,493
31498578,12567,0.936035,-0.317627,0.215332,507
31503909,5331,0.000000,0.000000,0.000000,509
31509855,5946,0.926025,-0.315308,0.218018,508
31519875,10020,0.914429,-0.320923,0.223389,513
31529877,10002,0.892578,-0.347290,0.235352,519
31539872,9995,0.887329,-0.356567,0.243408,522
31549849,9977,0.888550,-0.363281,0.251587,524
31559850,10001,0.902954,-0.369751,0.259644,524
31572581,12731,0.993164,-0.383545,0.271606,518
31579866,7285,0.000000,0.000000,0.000000,522
31589877,10011,1.039429,-0.394775,0.309082,514
31599867,9990,1.025146,-0.413696,0.307617,512
31609873,10006,1.003906,-0.438477,0.297729,512
31619855,9982,0.987549,-0.456909,0.295410,513
31629854,9999,0.975830,-0.458618,0.309082,512
31639871,10017,0.940918,-0.436646,0.345093,514
31649867,9996,0.913452,-0.420166,0.354370,518
31659894,10027,0.885864,-0.398438,0.357300,521
31669877,9983,0.856934,-0.364868,0.366943,522
31683650,13773,0.817383,-0.290039,0.380371,526
31689854,6204,0.000000,0.000000,0.000000,522
31699861,10007,0.791260,-0.237793,0.384033,525
31709886,10025,0.786865,-0.226440,0.385986,528
31719878,9992,0.787354,-0.223755,0.391602,531
31729860,9982,0.791870,-0.228516,0.399780,536
31739869,10009,0.798462,-0.232422,0.407715,534
31749864,9995,0.802856,-0.229248,0.399780,533
31759859,9995,0.814087,-0.252686,0.395508,527
31769872,10013,0.822754,-0.268799,0.389893,526
31785543,15671,0.851807,-0.296509,0.380371,530
31791449,5906,0.000000,0.000000,0.000000,522
31799861,8412,0.875244,-0.307983,0.377686,526
31809853,9992,0.927368,-0.308105,0.376953,526
31819868,10015,0.956421,-0.304077,0.378052,528
31829870,10002,0.971558,-0.292114,0.376709,521
31839882,10012,0.978149,-0.278687,0.373413,524
31849867,9985,0.975708,-0.269897,0.366211,526
31859862,9995,0.933228,-0.268311,0.355347,527
31869874,10012,0.918701,-0.269531,0.348877,531
31879875,10001,0.900635,-0.276489,0.347412,531
31889851,9976,0.875244,-0.276733,0.339233,529
31899864,10013,0.866821,-0.272461,0.333374,525
31909851,9987,0.853271,-0.276611,0.319214,528
31919868,10017,0.859375,-0.263306,0.321533,525
31929852,9984,0.866821,-0.257202,0.320557,526
31939861,10009,0.871582,-0.263794,0.317627,524
31949870,10009,0.872314,-0.272949,0.311890,522
31959861,9991,0.875244,-0.278320,0.306152,514
31969855,9994,0.874512,-0.275513,0.300049,518
31982043,12188,0.867432,-0.272949,0.295410,518
31989876,7833,0.857056,-0.272705,0.293335,515
31999854,9978,0.846069,-0.274658,0.291016,515
32009868,10014,0.837158,-0.277588,0.291504,512
32019856,9988,0.824097,-0.275391,0.298584,508
32029888,10032,0.822021,-0.274658,0.304565,511
32039850,9962,0.817383,-0.275269,0.308716,509
32049869,10019,0.815063,-0.279541,0.314209,511
32059860,9991,0.813843,-0.283325,0.319458,509
32069869,10009,0.815430,-0.288208,0.325073,509
32079880,10011,0.836182,-0.300049,0.335693,507
32089869,9989,0.854736,-0.303711,0.341553,511
32099849,9980,0.873413,-0.307007,0.348145,511
32109866,10017,0.893433,-0.309570,0.353516,512
32119848,9982,0.909546,-0.310547,0.362793,510
32129859,10011,0.925293,-0.311646,0.375244,515
32139852,9993,0.924316,-0.312256,0.380737,517
32149853,10001,0.923340,-0.314209,0.382690,530
32159874,10021,0.925171,-0.316528,0.381958,531
32169871,9997,0.944336,-0.318970,0.382324,538
32179868,9997,0.978638,-0.316895,0.386475,538
32189867,9999,1.013428,-0.309937,0.407349,537
32199875,10008,0.998047,-0.318237,0.407349,539
32209887,10012,0.957031,-0.331055,0.397583,544
32219871,9984,0.906738,-0.345825,0.379883,541
32229859,9988,0.864380,-0.356201,0.359131,538
32239859,10000,0.823120,-0.355591,0.334473,530
32249848,9989,0.825928,-0.356079,0.328369,529
32259858,10010,0.833740,-0.361572,0.322754,523
32269859,10001,0.842529,-0.372437,0.318726,526
32279852,9993,0.844604,-0.383179,0.308716,517
32289869,10017,0.842285,-0.388550,0.289551,518
32299863,9994,0.845093,-0.383301,0.279175,512
32309869,10006,0.853149,-0.379883,0.271484,509
32319863,9994,0.865723,-0.385864,0.262451,504
32329868,10005,0.878540,-0.389648,0.253174,504
32339856,9988,0.894043,-0.387207,0.245728,499
32349849,9993,0.937134,-0.387695,0.231567,495
32359860,10011,0.958618,-0.388184,0.226562,497
32369850,9990,0.982056,-0.387207,0.220459,492
32379871,10021,1.000244,-0.386597,0.219482,492
32389853,9982,1.010132,-0.387207,0.218140,496
32399877,10024,1.008179,-0.387085,0.212891,492
32455083,55206,0.920532,-0.387939,0.215698,496
32460243,5160,0.905029,-0.380737,0.222412,497
32466268,6025,0.000000,0.000000,0.000000,495
32470979,4711,0.887695,-0.372192,0.228882,503
32477890,6911,0.873413,-0.365601,0.234985,505
32483867,5977,0.000000,0.000000,0.000000,508
32488044,4177,0.862427,-0.359741,0.237183,502
32493386,5342,0.000000,0.000000,0.000000,505
32507481,14095,0.849487,-0.353149,0.239990,507
32512597,5116,0.848633,-0.356445,0.243408,505
32517900,5303,0.000000,0.000000,0.000000,502
32522235,4335,0.847534,-0.360474,0.247925,505
32571982,49747,0.869751,-0.390015,0.251221,490
32577262,5280,0.000000,0.000000,0.000000,492
32581359,4097,0.875977,-0.389282,0.248413,486
32586738,5379,0.883911,-0.387695,0.245972,489
32594859,8121,0.891602,-0.388672,0.239136,487
32600016,5157,0.000000,0.000000,0.000000,487
32604010,3994,0.900269,-0.394775,0.230957,486
32609369,5359,0.000000,0.000000,0.000000,479
32613446,4077,0.909302,-0.393677,0.224976,488
32619860,6414,0.000000,0.000000,0.000000,486
32629861,10001,0.924805,-0.383545,0.221802,482
32639875,10014,0.929321,-0.378418,0.219238,489
32649866,9991,0.928833,-0.372437,0.217773,492
32659866,10000,0.925537,-0.364990,0.217773,496
32669861,9995,0.920654,-0.358765,0.212646,492
32679856,9995,0.911255,-0.355225,0.207764,494
32689849,9993,0.910889,-0.357666,0.202026,503
32741092,51243,0.907959,-0.382080,0.203369,524
32746213,5121,0.000000,0.000000,0.000000,525
32750610,4397,0.907471,-0.384277,0.205566,525
32755944,5334,0.907959,-0.383911,0.209473,525
32761480,5536,0.000000,0.000000,0.000000,527
32765689,4209,0.907471,-0.380127,0.213867,526
32770898,5209,0.000000,0.000000,0.000000,528
32775222,4324,0.907349,-0.374146,0.219238,529
32781004,5782,0.904541,-0.370605,0.225708,529
32789866,8862,0.903320,-0.367676,0.230225,522
32799865,9999,0.899048,-0.364258,0.236328,528
32809890,10025,0.897095,-0.360596,0.246460,524
32819867,9977,0.896118,-0.355591,0.255615,528
32829870,10003,0.896362,-0.352417,0.264404,527
32839865,9995,0.929077,-0.362549,0.273315,528
32849856,9991,0.967041,-0.370117,0.275513,528
32864173,14317,1.016846,-0.376587,0.293579,525
32870176,6003,0.000000,0.000000,0.000000,519
32879848,9672,1.103638,-0.401001,0.300171,519
32889861,10013,1.114868,-0.421753,0.306274,525
32899853,9992,1.095703,-0.423096,0.308594,524
32914859,15006,1.000366,-0.392700,0.325806,521
32920267,5408,0.000000,0.000000,0.000000,522
32929858,9591,0.970825,-0.360962,0.333618,519
32939851,9993,0.914185,-0.351196,0.332275,522
32949867,10016,0.825562,-0.318237,0.337646,520
32959870,10003,0.790405,-0.303101,0.338379,515
32969860,9990,0.762939,-0.286865,0.341919,516
32979861,10001,0.740967,-0.272217,0.341675,520
32989864,10003,0.730347,-0.264038,0.340820,520
32999871,10007,0.727905,-0.254028,0.345581,521
33009857,9986,0.738159,-0.255127,0.344971,521
33019858,10001,0.757446,-0.254517,0.345337,524
33029876,10018,0.784790,-0.260498,0.341187,521
33039857,9981,0.820190,-0.274414,0.339722,521
33049875,10018,0.859863,-0.289551,0.339111,520
33059873,9998,0.926636,-0.308594,0.340942,520
33069866,9993,0.944458,-0.318726,0.344727,515
33079874,10008,0.950562,-0.323730,0.345093,520
33089872,9998,0.951782,-0.324951,0.347290,524
33103492,13620,0.939941,-0.317383,0.342651,522
33110087,6595,0.926514,-0.301025,0.345581,522
33119865,9778,0.903809,-0.276123,0.344971,530
33129872,10007,0.896851,-0.259644,0.335693,534
33139862,9990,0.882202,-0.242187,0.333740,535
33149859,9997,0.863770,-0.237793,0.336426,536
33159873,10014,0.823730,-0.239624,0.341919,537
33169863,9990,0.838867,-0.245850,0.343018,536
33179870,10007,0.835571,-0.255981,0.344727,527
33189851,9981,0.831787,-0.260254,0.347290,528
33199856,10005,0.830933,-0.255981,0.349731,530
33212092,12236,0.837524,-0.271729,0.350830,525
33219877,7785,0.834595,-0.282349,0.348389,522
33229854,9977,0.837402,-0.286865,0.345825,522
33239858,10004,0.837524,-0.284790,0.343750,512
33249873,10015,0.833740,-0.297974,0.339844,516
33259865,9992,0.831543,-0.304810,0.341919,514
33269876,10011,0.832642,-0.285889,0.351563,512
33279874,9998,0.829468,-0.279297,0.353271,513
33289864,9990,0.828735,-0.270508,0.352295,512
33299872,10008,0.826050,-0.265381,0.352417,507
33309853,9981,0.823364,-0.266968,0.351074,514
33319854,10001,0.822754,-0.272217,0.352661,516
33329853,9999,0.834839,-0.285400,0.352051,516
33339863,10010,0.849731,-0.286133,0.354858,517
33349853,9990,0.868408,-0.284424,0.358887,521
33359856,10003,0.883667,-0.286255,0.364380,522
33369877,10021,0.894897,-0.291138,0.364136,528
33379853,9976,0.922119,-0.298096,0.363770,528
33389875,10022,0.948120,-0.300049,0.362183,525
33399850,9975,0.986450,-0.300415,0.364868,535
33409877,10027,1.023804,-0.297974,0.374023,537
33419860,9983,1.054565,-0.302124,0.384033,540
33429858,9998,1.058472,-0.314331,0.382324,544
33439849,9991,0.987671,-0.352661,0.367432,538
33449878,10029,0.937988,-0.359497,0.348633,540
33459867,9989,0.892822,-0.357300,0.332397,539
33469895,10028,0.859375,-0.348511,0.321045,532
33479850,9955,0.837891,-0.336182,0.312622,521
33489865,10015,0.828491,-0.309204,0.297363,522
33499852,9987,0.836792,-0.303589,0.292114,518
33509877,10025,0.850342,-0.304321,0.288330,511
33519863,9986,0.862793,-0.310669,0.282959,503
33529878,10015,0.880005,-0.326416,0.280273,504
33539860,9982,0.927002,-0.317261,0.270020,497
33549876,10016,0.925415,-0.318115,0.265625,493
33559856,9980,0.938110,-0.321167,0.263428,487
33569860,10004,0.950073,-0.324707,0.261719,482
33579864,10004,0.962402,-0.335449,0.261475,471
33589874,10010,0.970459,-0.347290,0.261963,469
33599862,9988,0.971191,-0.362793,0.259766,474
33609856,9994,0.968750,-0.366089,0.258057,473
33619855,9999,0.959106,-0.370728,0.254272,474
33629871,10016,0.948120,-0.385986,0.250854,481
33639852,9981,0.934204,-0.407471,0.252563,484
33649873,10021,0.908691,-0.406860,0.249878,490
33659865,9992,0.893921,-0.410400,0.251343,496
33669864,9999,0.884888,-0.409546,0.252686,500
33679864,10000,0.876465,-0.397827,0.251587,510
33689855,9991,0.872803,-0.391357,0.250244,514
33699877,10022,0.867310,-0.389648,0.251099,518
33713226,13349,0.865479,-0.382446,0.253906,524
33719852,6626,0.864746,-0.374756,0.255615,528
33729852,10000,0.869019,-0.368286,0.258911,528
33739857,10005,0.873779,-0.364746,0.262085,522
33749877,10020,0.880615,-0.368286,0.266968,526
33759872,9995,0.895386,-0.386963,0.273193,518
33769850,9978,0.901245,-0.403809,0.272827,519
33779877,10027,0.904541,-0.416138,0.270630,513
33789868,9991,0.907349,-0.421387,0.270386,508
33799864,9996,0.910522,-0.421387,0.267212,506
33809876,10012,0.915161,-0.420654,0.262085,500
33819866,9990,0.925049,-0.421265,0.248779,485
33829894,10028,0.929321,-0.421021,0.244751,488
33839876,9982,0.933228,-0.417847,0.241333,485
33849849,9973,0.933960,-0.407837,0.240723,479
33859868,10019,0.934326,-0.398193,0.240112,488
33869872,10004,0.924805,-0.383301,0.244507,484
33879854,9982,0.914673,-0.377197,0.245605,486
33889869,10015,0.909546,-0.361694,0.245850,494
33899868,9999,0.902954,-0.345337,0.245483,498
33909848,9980,0.896729,-0.329956,0.245239,497
33919852,10004,0.891846,-0.281494,0.251587,506
33929867,10015,0.881470,-0.294556,0.256714,510
33939873,10006,0.876953,-0.298096,0.261719,511
33949869,9996,0.874146,-0.309448,0.269897,518
33959854,9985,0.875488,-0.321899,0.277466,522
33969852,9998,0.876343,-0.332642,0.282227,522
33979867,10015,0.904175,-0.344604,0.294189,527
33989853,9986,0.955200,-0.355225,0.299927,524
33999849,9996,1.015503,-0.363892,0.304932,525
34009849,10000,1.056152,-0.369507,0.310913,525
34021798,11949,1.057495,-0.381104,0.316895,518
34029851,8053,0.000000,0.000000,0.000000,525
34039868,10017,1.018555,-0.397949,0.301636,520
34049856,9988,1.003296,-0.386108,0.309692,527
34059867,10011,0.986694,-0.367920,0.328857,526
34069850,9983,0.957031,-0.355835,0.340332,522
34079863,10013,0.917480,-0.343140,0.340332,526
34089872,10009,0.848389,-0.306030,0.336182,520
34099862,9990,0.823975,-0.277100,0.341431,520
34109872,10010,0.804443,-0.243164,0.347656,525
34127079,17207,0.791626,-0.194092,0.358032,528
34133212,6133,0.802734,-0.190552,0.361816,525
34139850,6638,0.000000,0.000000,0.000000,521
34149875,10025,0.846558,-0.213501,0.374756,520
34159873,9998,0.875366,-0.193237,0.376343,526
34169876,10003,0.898560,-0.201050,0.385864,518
34179866,9990,0.919067,-0.238281,0.395996,517
34189858,9992,0.932739,-0.280029,0.396606,514
34199856,9998,0.935547,-0.347412,0.396362,518
34209865,10009,0.935303,-0.363647,0.400635,517
34222912,13047,0.933472,-0.349609,0.401855,515
34229865,6953,0.931885,-0.305298,0.399902,522
34239869,10004,0.922607,-0.263672,0.393799,518
34249890,10021,0.909424,-0.264282,0.379028,527
34259869,9979,0.901367,-0.261963,0.377563,529
34269858,9989,0.879272,-0.252930,0.371826,525
34279856,9998,0.879639,-0.253784,0.370605,530
34289868,10012,0.879517,-0.263306,0.366455,532
34299878,10010,0.880493,-0.266968,0.359375,531
34309870,9992,0.877563,-0.249268,0.359619,531
34319866,9996,0.876831,-0.242798,0.357300,530
34329865,9999,0.872314,-0.245483,0.354126,530
34339849,9984,0.862793,-0.249512,0.349609,528
34349868,10019,0.853149,-0.254150,0.345337,528
34359848,9980,0.833374,-0.259521,0.337769,526
34369849,10001,0.826294,-0.262207,0.333374,525
34379871,10022,0.818237,-0.264893,0.328247,518
34389870,9999,0.814331,-0.265747,0.325806,519
34399866,9996,0.810303,-0.262695,0.324219,516
34409864,9998,0.808716,-0.257690,0.327637,515
34419871,10007,0.808472,-0.256836,0.329712,506
34429850,9979,0.808960,-0.259521,0.328857,506
34439859,10009,0.809448,-0.262329,0.326050,510
34449859,10000,0.810913,-0.265015,0.324829,504
34459857,9998,0.812866,-0.268555,0.322754,505
34469867,10010,0.811279,-0.275146,0.321655,501
34479865,9998,0.810669,-0.273560,0.320068,507
34489861,9996,0.815674,-0.271362,0.320313,508
34499870,10009,0.825073,-0.270386,0.321411,509
34509858,9988,0.837891,-0.270386,0.322876,510
34519850,9992,0.870605,-0.270386,0.332764,507
34529849,9999,0.884766,-0.271606,0.336182,511
34539862,10013,0.898560,-0.274902,0.339722,512
34549872,10010,0.910767,-0.278442,0.343506,516
34559852,9980,0.921875,-0.284424,0.344849,520
34569862,10010,0.935913,-0.291260,0.346924,520
34579859,9997,0.989258,-0.306641,0.346191,526
34589858,9999,1.025757,-0.313110,0.351196,523
34599892,10034,1.059692,-0.314331,0.359741,535
34609871,9979,1.066406,-0.319946,0.365234,533
34619874,10003,1.041748,-0.324829,0.362793,535
34629868,9994,0.952026,-0.333008,0.341919,535
34639864,9996,0.908447,-0.335571,0.326660,539
34649872,10008,0.877563,-0.335449,0.315063,537
34659853,9981,0.858521,-0.328247,0.306519,531
34669852,9999,0.847778,-0.317139,0.300537,529
34679854,10002,0.844360,-0.307495,0.291992,527
34689857,10003,0.851196,-0.302368,0.290161,515
34699865,10008,0.857422,-0.305786,0.288940,515
34709869,10004,0.864868,-0.306641,0.286011,505
34719876,10007,0.873901,-0.310181,0.282837,509
34729849,9973,0.887085,-0.308105,0.283447,500
34739875,10026,0.908325,-0.301880,0.281250,502
34749859,9984,0.916870,-0.303101,0.282593,498
34759866,10007,0.922974,-0.305664,0.282227,493
34769859,9993,0.931396,-0.309570,0.284058,492
34779874,10015,0.937012,-0.321655,0.286255,491
34789862,9988,0.937378,-0.353638,0.288574,487
34799871,10009,0.934570,-0.362793,0.289063,490
34809869,9998,0.930420,-0.367310,0.289063,487
34819868,9999,0.924561,-0.372925,0.289673,493
34833974,14106,0.926147,-0.381104,0.286377,492
34839865,5891,0.000000,0.000000,0.000000,495
34849855,9990,0.953125,-0.398926,0.290039,493
34859848,9993,0.969604,-0.400513,0.296753,497
34869851,10003,0.986084,-0.400024,0.302856,496
34879869,10018,0.993042,-0.400513,0.307373,502
34889860,9991,0.996582,-0.401733,0.310059,505
34899849,9989,0.982544,-0.402222,0.306885,510
34909855,10006,0.969482,-0.400146,0.303955,510
34919876,10021,0.955322,-0.398315,0.300049,510
34929864,9988,0.937988,-0.391479,0.300049,512
34939872,10008,0.920898,-0.386597,0.302246,512
34949862,9990,0.904175,-0.376221,0.302246,512
34959874,10012,0.875977,-0.360229,0.304443,506
34969861,9987,0.861206,-0.351807,0.306274,506
34979862,10001,0.849609,-0.348999,0.309814,510
34989855,9993,0.842896,-0.348389,0.309692,506
34999861,10006,0.838379,-0.350464,0.307129,499
35009859,9998,0.835327,-0.351685,0.306030,505
35019877,10018,0.843872,-0.349976,0.304688,508
35029878,10001,0.839478,-0.356812,0.300781,499
35039871,9993,0.852661,-0.356567,0.298828,496
35049851,9980,0.861816,-0.356445,0.297607,492
35059856,10005,0.866455,-0.359741,0.295410,489
35069874,10018,0.880249,-0.360596,0.296753,490
35079867,9993,0.887207,-0.362915,0.294312,485
35089874,10007,0.891235,-0.366577,0.291382,484
35099871,9997,0.895874,-0.368286,0.289063,483
35109858,9987,0.903687,-0.368408,0.285400,484
35119855,9997,0.918091,-0.362915,0.283325,486
35129881,10026,0.925171,-0.365723,0.285278,486
35143525,13644,0.935059,-0.367920,0.283813,487
35149961,6436,0.954834,-0.369263,0.282227,492
35159854,9893,0.993164,-0.369995,0.280273,492
35178834,18980,1.077759,-0.385620,0.298706,506
35184264,5430,0.000000,0.000000,0.000000,513
35189865,5601,1.047241,-0.399536,0.294189,510
35199863,9998,1.009033,-0.406494,0.283447,524
35209858,9995,0.974365,-0.398804,0.273682,525
35219875,10017,0.935791,-0.375977,0.273804,529
35229863,9988,0.856934,-0.323975,0.285156,534
35239870,10007,0.837769,-0.301636,0.287598,535
35249870,10000,0.825806,-0.282471,0.290283,531
35259854,9984,0.819824,-0.267212,0.294556,539
35269868,10014,0.817505,-0.255493,0.300415,544
35321222,51354,0.846436,-0.231445,0.389771,524
35327075,5853,0.866577,-0.267334,0.388428,520
35333159,6084,0.894409,-0.301392,0.386353,519
35339183,6024,0.000000,0.000000,0.000000,515
35343962,4779,0.921997,-0.322754,0.393677,512
35350111,6149,0.955566,-0.338135,0.409912,509
35356174,6063,0.000000,0.000000,0.000000,504
35360483,4309,0.986450,-0.336426,0.432373,505
35366738,6255,1.001953,-0.316406,0.450806,510
35372292,5554,0.000000,0.000000,0.000000,511
35379870,7578,1.009033,-0.290161,0.459961,507
35389873,10003,0.994995,-0.237061,0.460571,510
35399863,9990,0.975464,-0.208252,0.456055,521
35409866,10003,0.954346,-0.177856,0.449097,524
35419849,9983,0.933960,-0.154785,0.446899,528
35429873,10024,0.926270,-0.142456,0.435425,529
35439848,9975,0.923584,-0.143188,0.443604,534
35449853,10005,0.899170,-0.153198,0.440674,535
35459874,10021,0.889404,-0.171631,0.439453,536
35469870,9996,0.890869,-0.186768,0.439941,537
35479854,9984,0.882202,-0.179321,0.436768,535
35489849,9995,0.867065,-0.167847,0.439331,530
35499858,10009,0.839355,-0.170532,0.432129,534
35509875,10017,0.825317,-0.185913,0.422607,535
35519887,10012,0.814209,-0.199951,0.413818,532
35529862,9975,0.801270,-0.214722,0.404053,531
35547654,17792,0.786621,-0.231934,0.392822,528
35553532,5878,0.780396,-0.227905,0.387329,524
35559848,6316,0.776245,-0.219849,0.380493,520
35569852,10004,0.770508,-0.212646,0.373901,524
35579861,10009,0.769165,-0.211426,0.370117,513
35589849,9988,0.773193,-0.215210,0.363770,521
35599867,10018,0.779175,-0.220581,0.359253,520
35609864,9997,0.785278,-0.227173,0.353760,512
35619871,10007,0.793091,-0.232178,0.352173,519
35629865,9994,0.796997,-0.239380,0.351196,511
35639877,10012,0.803345,-0.243774,0.350220,515
35658878,19001,0.812744,-0.253540,0.348511,512
35664346,5468,0.819702,-0.257690,0.347900,509
35669865,5519,0.823975,-0.263428,0.348511,513
35679869,10004,0.831055,-0.267944,0.348877,504
35689850,9981,0.839600,-0.272583,0.349487,502
35699872,10022,0.851318,-0.276001,0.349121,509
35709875,10003,0.864136,-0.279297,0.348511,508
35719854,9979,0.890991,-0.292358,0.350830,509
35729858,10004,0.911743,-0.295166,0.353394,505
35739856,9998,0.943970,-0.296509,0.356567,512
35758228,18372,1.026855,-0.291382,0.373413,516
35764372,6144,1.054443,-0.287354,0.384644,519
35770302,5930,0.000000,0.000000,0.000000,526
35779860,9558,1.020996,-0.288208,0.392578,528
35789854,9994,0.975952,-0.295410,0.384033,529
35799868,10014,0.926636,-0.312134,0.373413,535
35809862,9994,0.883057,-0.326416,0.360229,539
35819860,9998,0.846313,-0.328735,0.349731,537
35829860,10000,0.824951,-0.314697,0.343018,534
35839869,10009,0.827881,-0.313232,0.344116,530
35849848,9979,0.835815,-0.324341,0.340942,525
35859869,10021,0.849976,-0.329224,0.339722,523
35869850,9981,0.864746,-0.329468,0.341309,519
35906432,36582,0.914551,-0.292603,0.328979,502
35911617,5185,0.000000,0.000000,0.000000,500
35915812,4195,0.910156,-0.292480,0.325684,502
35921108,5296,0.000000,0.000000,0.000000,493
35925199,4091,0.901245,-0.295410,0.322998,499
35930504,5305,0.000000,0.000000,0.000000,498
35939854,9350,0.886475,-0.306152,0.319336,498
35949865,10011,0.881714,-0.313477,0.320435,494
35959855,9990,0.882202,-0.319214,0.323853,491
35982768,22913,0.921021,-0.329956,0.328613,498
35988076,5308,0.000000,0.000000,0.000000,498
35992200,4124,0.945679,-0.335571,0.333130,499
35999860,7660,0.972656,-0.339600,0.337769,499
36009868,10008,0.998901,-0.346924,0.340820,503
36019855,9987,1.014648,-0.360229,0.341919,498
36029870,10015,1.029663,-0.377686,0.343018,504
36039866,9996,1.036011,-0.418457,0.338867,509
36049868,10002,1.032959,-0.435791,0.335571,505
36059880,10012,1.026489,-0.450195,0.330444,509
36081346,21466,0.991699,-0.448608,0.317627,510
36087060,5714,0.966797,-0.427490,0.310669,511
36092501,5441,0.939209,-0.402954,0.306885,506
36099862,7361,0.914307,-0.376221,0.304565,511
36109876,10014,0.893433,-0.353882,0.301758,510
36119848,9972,0.878296,-0.356689,0.305908,509
36129848,10000,0.869385,-0.333862,0.307251,503
36139858,10010,0.861450,-0.310059,0.303345,509
36153406,13548,0.847168,-0.276611,0.293091,511
36160060,6654,0.843018,-0.258057,0.287109,510
36169868,9808,0.839111,-0.245361,0.284668,510
36179848,9980,0.837891,-0.243286,0.284180,509
36189867,10019,0.839478,-0.247314,0.283691,507
36199856,9989,0.841064,-0.262939,0.282227,505
36209877,10021,0.845459,-0.302612,0.286865,499
36219872,9995,0.850220,-0.319092,0.288208,493
36229861,9989,0.856079,-0.332275,0.289917,492
36239850,9989,0.862183,-0.338379,0.289795,487
36249871,10021,0.866089,-0.345093,0.291504,474
36259850,9979,0.879272,-0.358032,0.287842,477
36269865,10015,0.894653,-0.362671,0.284912,479
36279859,9994,0.928467,-0.366943,0.281006,473
36289855,9996,0.980347,-0.367432,0.285156,482
36299872,10017,1.030396,-0.363037,0.296509,483
36309862,9990,1.067139,-0.365356,0.306396,477
36319859,9997,1.057007,-0.396240,0.307739,485
36329859,10000,1.022339,-0.410278,0.302612,495
36339867,10008,0.980347,-0.418457,0.297485,500
36349854,9987,0.933105,-0.405640,0.297729,507
36376611,26757,0.832520,-0.334717,0.341309,519
36382053,5442,0.817993,-0.316528,0.345947,519
36387679,5626,0.807617,-0.317749,0.347290,520
36393044,5365,0.000000,0.000000,0.000000,523
36399865,6821,0.801636,-0.315063,0.348877,522
36409873,10008,0.801392,-0.288696,0.350830,528
36419852,9979,0.808472,-0.245972,0.364136,525
36429894,10042,0.832764,-0.196533,0.376465,538
36439874,9980,0.836060,-0.194946,0.391724,537
36449871,9997,0.840454,-0.208252,0.406494,538
36459862,9991,0.846436,-0.218384,0.417603,532
36469848,9986,0.844849,-0.196167,0.424438,540
36479852,10004,0.862915,-0.237549,0.434570,537
36489859,10007,0.878540,-0.246460,0.438599,535
36499849,9990,0.899658,-0.254028,0.444946,533
36509853,10004,0.915649,-0.270630,0.454102,532
36519866,10013,0.930542,-0.282837,0.460083,533
36529864,9998,0.907104,-0.273926,0.465210,525
36539863,9999,0.922607,-0.255005,0.464722,528
36549895,10032,0.911865,-0.237427,0.457520,528
36566360,16465,0.877075,-0.200195,0.446411,534
36571761,5401,0.000000,0.000000,0.000000,532
36579851,8090,0.871338,-0.200195,0.441772,531
36589875,10024,0.864746,-0.208862,0.434326,531
36599856,9981,0.866333,-0.216797,0.433716,528
36609849,9993,0.868164,-0.226318,0.433350,522
36619858,10009,0.869019,-0.232788,0.429077,527
36629857,9999,0.867554,-0.237183,0.424072,521
36639857,10000,0.855713,-0.246460,0.411499,526
36649857,10000,0.849854,-0.250244,0.404663,515
36659872,10015,0.842041,-0.253174,0.400146,517
36669855,9983,0.838135,-0.256226,0.393555,519
36679849,9994,0.837280,-0.258789,0.382568,516
36689867,10018,0.836060,-0.262085,0.378052,517
36699868,10001,0.834473,-0.258301,0.369263,516
36709874,10006,0.831421,-0.253418,0.364746,511
36719880,10006,0.833374,-0.247437,0.354736,513
36729869,9989,0.839600,-0.240601,0.350342,514
36739859,9990,0.839478,-0.239258,0.354614,512
36749864,10005,0.849243,-0.245361,0.353027,513
36759869,10005,0.851807,-0.250244,0.353882,511
36769862,9993,0.850830,-0.254639,0.352905,506
36779868,10006,0.848999,-0.255981,0.349487,510
36789862,9994,0.843994,-0.251953,0.345581,504
36799864,10002,0.839355,-0.249512,0.344116,505
36809868,10004,0.833740,-0.248657,0.343506,502
36819872,10004,0.832031,-0.249878,0.344727,506
36829862,9990,0.836914,-0.251099,0.345459,507
36839863,10001,0.846558,-0.254883,0.348022,508
36849857,9994,0.857178,-0.260864,0.349243,509
36859851,9994,0.865845,-0.271484,0.346802,502
36869864,10013,0.872559,-0.273560,0.345581,510
