t_us,dt_us,ax,ay,az,ppg
19608582,10017,-0.324585,-0.722290,0.628784,536
19618590,10008,-0.324219,-0.722900,0.627930,541
19628587,9997,-0.323120,-0.722168,0.627319,544
19638589,10002,-0.323486,-0.720947,0.627075,544
19648588,9999,-0.322876,-0.720093,0.626587,548
19658592,10004,-0.323730,-0.721313,0.628052,543
19668586,9994,-0.324585,-0.719727,0.629395,565
19678569,9983,-0.323486,-0.719849,0.629761,548
19688579,10010,-0.323730,-0.720947,0.630249,546
19698565,9986,-0.322998,-0.721802,0.629395,540
19708565,10000,-0.323608,-0.723145,0.626099,541
19718572,10007,-0.323730,-0.723877,0.628418,535
19728588,10016,-0.323730,-0.722412,0.626465,539
19738574,9986,-0.324097,-0.722778,0.627686,531
19748586,10012,-0.322632,-0.723145,0.627319,530
19758573,9987,-0.321533,-0.721680,0.625366,529
19768575,10002,-0.320435,-0.721680,0.625610,521
19778580,10005,-0.323975,-0.723999,0.628174,523
19788569,9989,-0.326294,-0.723267,0.627686,517
19798576,10007,-0.324829,-0.719971,0.625488,520
19808588,10012,-0.321533,-0.720581,0.624756,516
19818591,10003,-0.320923,-0.722656,0.629883,520
19828613,10022,-0.321777,-0.723633,0.629761,514
19838594,9981,-0.325073,-0.721924,0.627930,516
19848583,9989,-0.325073,-0.720337,0.627686,515
19858583,10000,-0.323975,-0.719482,0.626343,514
19868565,9982,-0.322388,-0.725342,0.628906,511
19878585,10020,-0.323608,-0.723022,0.627808,514
19888588,10003,-0.324219,-0.719482,0.625488,511
19898571,9983,-0.323120,-0.718140,0.624634,515
19908588,10017,-0.322754,-0.720581,0.625854,514
19918573,9985,-0.323975,-0.723999,0.628052,516
19928575,10002,-0.324463,-0.722900,0.626465,506
19938568,9993,-0.322388,-0.719360,0.626465,508
19948572,10004,-0.322876,-0.719360,0.627075,512
19958604,10032,-0.323608,-0.721436,0.627930,512
19968577,9973,-0.322876,-0.723633,0.628174,508
19978593,10016,-0.324219,-0.721802,0.627319,502
19988572,9979,-0.324585,-0.719604,0.626709,508
19998568,9996,-0.323730,-0.721680,0.626465,504
20008570,10002,-0.323364,-0.723633,0.626709,500
20018587,10017,-0.322266,-0.723999,0.627441,505
20028579,9992,-0.324097,-0.720459,0.626221,500
20038580,10001,-0.323364,-0.719604,0.627075,504
20048585,10005,-0.323975,-0.720947,0.627319,503
20058581,9996,-0.323853,-0.722656,0.629028,501
20068589,10008,-0.323730,-0.720825,0.628906,502
20078576,9987,-0.323608,-0.720581,0.629639,502
20088609,10033,-0.324341,-0.721313,0.628052,494
20098595,9986,-0.323853,-0.721436,0.627319,503
20108582,9987,-0.324219,-0.721069,0.628296,499
20118583,10001,-0.323120,-0.723022,0.627563,494
20128573,9990,-0.322021,-0.722168,0.625732,490
20138581,10008,-0.324219,-0.721802,0.626099,498
20148583,10002,-0.324585,-0.723633,0.627197,496
20158568,9985,-0.323120,-0.723877,0.628540,500
20168569,10001,-0.324341,-0.721924,0.626221,495
20178567,9998,-0.323853,-0.721558,0.626587,493
20188568,10001,-0.324585,-0.720825,0.626831,495
20198573,10005,-0.324219,-0.722778,0.627075,495
20208583,10010,-0.323730,-0.722900,0.627808,491
20218571,9988,-0.323975,-0.723389,0.626587,493
20228581,10010,-0.323730,-0.721436,0.625977,496
20238565,9984,-0.323608,-0.720825,0.625732,494
20248566,10001,-0.324219,-0.721924,0.627441,491
20258575,10009,-0.322510,-0.723145,0.627075,489
20268592,10017,-0.323120,-0.721436,0.626343,493
20278566,9974,-0.324219,-0.722900,0.626709,490
20288592,10026,-0.323730,-0.722534,0.626953,491
20298573,9981,-0.323730,-0.722534,0.625854,493
20308590,10017,-0.324097,-0.721680,0.626465,497
20318582,9992,-0.323730,-0.721191,0.627808,497
20328580,9998,-0.323853,-0.721313,0.626953,496
20338578,9998,-0.323853,-0.722534,0.627563,493
20348581,10003,-0.323853,-0.723755,0.627197,500
20358592,10011,-0.323975,-0.723633,0.625854,501
20368594,10002,-0.323608,-0.723511,0.626099,509
20378589,9995,-0.324707,-0.722168,0.626099,508
20388591,10002,-0.324951,-0.722656,0.626465,519
20398572,9981,-0.324219,-0.722412,0.627075,525
20408565,9993,-0.322754,-0.722290,0.627930,526
20418591,10026,-0.324585,-0.723022,0.628540,534
20428575,9984,-0.324463,-0.723633,0.627441,535
20438593,10018,-0.324463,-0.723511,0.627563,525
20448590,9997,-0.324219,-0.723267,0.626831,546
20458571,9981,-0.323730,-0.722046,0.626831,547
20468571,10000,-0.322754,-0.721558,0.626221,548
20478582,10011,-0.323853,-0.721313,0.626099,548
20488581,9999,-0.323975,-0.722778,0.626099,545
20498613,10032,-0.323608,-0.721558,0.625366,546
20508565,9952,-0.324219,-0.723267,0.625732,542
20518581,10016,-0.324219,-0.723145,0.625977,539
20528585,10004,-0.324829,-0.723755,0.625488,536
20538579,9994,-0.323853,-0.722656,0.625854,536
20548571,9992,-0.324341,-0.723022,0.625610,535
20558585,10014,-0.324219,-0.722168,0.626831,525
20568580,9995,-0.323730,-0.722290,0.627441,532
20578591,10011,-0.322754,-0.721558,0.626221,537
20588594,10003,-0.324463,-0.721191,0.626587,526
20598571,9977,-0.323486,-0.722412,0.627563,525
20608572,10001,-0.324585,-0.723633,0.628418,524
20618570,9998,-0.323975,-0.723511,0.626587,517
20628573,10003,-0.324341,-0.724121,0.627075,519
20638578,10005,-0.325684,-0.724487,0.630005,513
20648581,10003,-0.325073,-0.724121,0.628540,515
20658583,10002,-0.322998,-0.722046,0.625366,505
20668570,9987,-0.322876,-0.720337,0.626221,513
20678569,9999,-0.324097,-0.720947,0.626465,510
20688592,10023,-0.324585,-0.722778,0.626465,507
20698583,9991,-0.325073,-0.722534,0.626343,509
20708582,9999,-0.325684,-0.722046,0.626587,508
20718575,9993,-0.324219,-0.721924,0.627319,507
20728590,10015,-0.322754,-0.724487,0.626709,501
20738588,9998,-0.324219,-0.722900,0.626343,504
20748565,9977,-0.324951,-0.721436,0.625854,509
20758575,10010,-0.324829,-0.720703,0.625122,506
20768572,9997,-0.324097,-0.722168,0.625732,511
20778605,10033,-0.323853,-0.723877,0.626465,501
20788581,9976,-0.323853,-0.723145,0.625610,505
20798586,10005,-0.324585,-0.722412,0.624878,504
20808582,9996,-0.323975,-0.722168,0.625610,501
20818587,10005,-0.324463,-0.722412,0.627197,501
20828570,9983,-0.325195,-0.723389,0.626465,499
20838583,10013,-0.323853,-0.721558,0.627808,501
20848584,10001,-0.324585,-0.721069,0.627441,501
20858586,10002,-0.323975,-0.722046,0.627319,493
20868579,9993,-0.323730,-0.722900,0.627197,500
20878566,9987,-0.324219,-0.723755,0.626221,499
20888569,10003,-0.324463,-0.722656,0.626343,497
20898574,10005,-0.323975,-0.722412,0.627563,495
20908581,10007,-0.324097,-0.722656,0.629028,497
20918595,10014,-0.324097,-0.723877,0.628296,497
20928567,9972,-0.324097,-0.722168,0.627197,495
20938576,10009,-0.324829,-0.722534,0.626709,501
20948576,10000,-0.324951,-0.722656,0.626221,500
20958589,10013,-0.324097,-0.722656,0.626343,501
20968595,10006,-0.324219,-0.723145,0.626221,501
20978591,9996,-0.325073,-0.723389,0.626831,495
20988573,9982,-0.324341,-0.722900,0.626831,495
20998585,10012,-0.323975,-0.722900,0.627808,497
21008584,9999,-0.324219,-0.723633,0.627808,501
21018577,9993,-0.323242,-0.722046,0.628174,495
21028594,10017,-0.323853,-0.721436,0.626343,502
21038590,9996,-0.323608,-0.722046,0.625000,499
21048589,9999,-0.324707,-0.723267,0.626343,499
21058619,10030,-0.325195,-0.724243,0.627563,498
21068566,9947,-0.324463,-0.723633,0.628662,497
21078579,10013,-0.323853,-0.722534,0.628174,498
21088565,9986,-0.323853,-0.721069,0.627808,497
21098573,10008,-0.323364,-0.722168,0.627563,496
21108581,10008,-0.323730,-0.721802,0.625977,492
21118596,10015,-0.324951,-0.721191,0.625244,498
21128567,9971,-0.324829,-0.721680,0.626099,501
21138565,9998,-0.324463,-0.722046,0.625977,497
21148577,10012,-0.323364,-0.721680,0.626465,491
21158575,9998,-0.324341,-0.724121,0.627563,497
21168595,10020,-0.325073,-0.723755,0.628052,497
21178589,9994,-0.324707,-0.723022,0.626831,503
21188574,9985,-0.325073,-0.722168,0.626099,504
21198565,9991,-0.323242,-0.722168,0.625122,510
21208587,10022,-0.322266,-0.722412,0.625977,510
21218568,9981,-0.325195,-0.721069,0.626099,522
21228573,10005,-0.324341,-0.720459,0.626709,527
21238577,10004,-0.323730,-0.721069,0.627930,536
21248573,9996,-0.324463,-0.722534,0.629150,535
21258565,9992,-0.325195,-0.723389,0.630371,547
21268576,10011,-0.324341,-0.723755,0.628418,547
21278582,10006,-0.324707,-0.723022,0.626587,544
21288585,10003,-0.324341,-0.722168,0.626099,546
21298591,10006,-0.324219,-0.721069,0.626587,546
21308574,9983,-0.324097,-0.721313,0.627075,550
21318583,10009,-0.323975,-0.720825,0.625488,550
21328565,9982,-0.325073,-0.722656,0.626221,546
21338583,10018,-0.324585,-0.722046,0.625732,542
21348616,10033,-0.324585,-0.722412,0.627930,542
21358571,9955,-0.324585,-0.723389,0.626221,535
21368572,10001,-0.324585,-0.723267,0.626343,537
21378576,10004,-0.324463,-0.722534,0.627563,538
21388591,10015,-0.324463,-0.722534,0.628052,537
21398594,10003,-0.326172,-0.721680,0.627197,530
21408582,9988,-0.324829,-0.720825,0.628540,535
21418584,10002,-0.324219,-0.720581,0.627808,534
21428578,9994,-0.323853,-0.720703,0.627441,532
21438586,10008,-0.324585,-0.722534,0.627563,528
21448580,9994,-0.324341,-0.722412,0.627563,519
21458594,10014,-0.324707,-0.722290,0.627563,525
21468566,9972,-0.324219,-0.721558,0.627197,524
21478593,10027,-0.325073,-0.723755,0.626831,520
21488577,9984,-0.324341,-0.721191,0.626831,518
21498589,10012,-0.324829,-0.721436,0.626465,512
21508571,9982,-0.324829,-0.723511,0.626465,510
21518587,10016,-0.324829,-0.723511,0.626465,513
21528582,9995,-0.325073,-0.721680,0.625732,506
21538572,9990,-0.324341,-0.722290,0.625732,512
21548593,10021,-0.324585,-0.721802,0.626587,511
21558590,9997,-0.323853,-0.720337,0.627075,511
21568579,9989,-0.322876,-0.720337,0.626465,512
21578567,9988,-0.325806,-0.722046,0.627441,509
21588573,10006,-0.325317,-0.724731,0.629395,512
21598593,10020,-0.328369,-0.720581,0.623291,512
21608593,10000,-0.323242,-0.722534,0.625122,502
21618582,9989,-0.321655,-0.720215,0.626465,509
21628590,10008,-0.325195,-0.723511,0.626465,499
21638568,9978,-0.325317,-0.724365,0.626953,507
21648591,10023,-0.325195,-0.718628,0.626343,498
21658569,9978,-0.322754,-0.720703,0.626343,504
21668588,10019,-0.322632,-0.723145,0.625610,498
21678589,10001,-0.324829,-0.723877,0.628662,498
21688576,9987,-0.326172,-0.723511,0.628418,495
21698587,10011,-0.326294,-0.720459,0.627441,493
21708579,9992,-0.324951,-0.722778,0.628052,499
21718566,9987,-0.323853,-0.725342,0.630005,500
21728585,10019,-0.323853,-0.723267,0.628296,499
21738591,10006,-0.324097,-0.721313,0.625244,498
21748581,9990,-0.324829,-0.721191,0.625244,497
21758574,9993,-0.325684,-0.723755,0.625732,490
21768613,10039,-0.325195,-0.723755,0.626831,487
21778573,9960,-0.324951,-0.722900,0.625977,491
21788589,10016,-0.324219,-0.720581,0.624634,496
21798579,9990,-0.325684,-0.720093,0.626221,492
21808579,10000,-0.324951,-0.723755,0.630005,495
21818565,9986,-0.324219,-0.723999,0.629639,495
21828590,10025,-0.324341,-0.722900,0.628662,494
21838583,9993,-0.324951,-0.721436,0.626343,496
21848579,9996,-0.323242,-0.721558,0.624146,491
21858587,10008,-0.324341,-0.723755,0.627075,495
21868593,10006,-0.324463,-0.722412,0.625610,488
21878568,9975,-0.326050,-0.721191,0.625732,495
21888568,10000,-0.326294,-0.721558,0.626343,487
21898619,10051,-0.325684,-0.722534,0.628418,494
21908589,9970,-0.324463,-0.722778,0.626831,492
21918578,9989,-0.323975,-0.723511,0.626831,494
21928585,10007,-0.324219,-0.721680,0.625122,492
21938573,9988,-0.324829,-0.722290,0.624390,493
21948575,10002,-0.326538,-0.722656,0.625488,489
21958568,9993,-0.325073,-0.723145,0.626343,489
21968595,10027,-0.325684,-0.723022,0.625977,490
21978590,9995,-0.325928,-0.721436,0.627197,493
21988568,9978,-0.325806,-0.723267,0.628418,494
21998573,10005,-0.324585,-0.721313,0.628418,494
22008586,10013,-0.324463,-0.721802,0.627563,490
22018580,9994,-0.324219,-0.721069,0.625854,493
22028587,10007,-0.324585,-0.721069,0.626221,492
22038577,9990,-0.324829,-0.722046,0.625000,491
22048571,9994,-0.325928,-0.723022,0.626831,489
22058573,10002,-0.325562,-0.722168,0.626953,497
22068579,10006,-0.325195,-0.721924,0.627930,491
22078588,10009,-0.326172,-0.723511,0.629761,497
22088567,9979,-0.325928,-0.722900,0.628296,495
22098578,10011,-0.325928,-0.723267,0.626465,504
22108585,10007,-0.324707,-0.722656,0.625000,510
22118593,10008,-0.324219,-0.722168,0.625366,513
22128566,9973,-0.323853,-0.721436,0.624634,517
22138567,10001,-0.324097,-0.721924,0.625244,529
22148589,10022,-0.324951,-0.721191,0.626221,534
22158569,9980,-0.326538,-0.723511,0.627441,539
22168568,9999,-0.325317,-0.723022,0.627441,548
22178566,9998,-0.326416,-0.723145,0.628540,545
22188592,10026,-0.325684,-0.723511,0.628418,554
22198584,9992,-0.325806,-0.722168,0.627197,550
22208587,10003,-0.325317,-0.722778,0.627197,555
22218595,10008,-0.325195,-0.721680,0.625854,553
22228569,9974,-0.324585,-0.720947,0.625610,551
22238586,10017,-0.325439,-0.722046,0.626099,547
22248565,9979,-0.324829,-0.722534,0.625854,550
22258587,10022,-0.324707,-0.722534,0.626099,546
22268590,10003,-0.325562,-0.722534,0.626465,544
22278590,10000,-0.325684,-0.722290,0.626709,540
22288593,10003,-0.324585,-0.719849,0.625854,537
22298577,9984,-0.325806,-0.721802,0.626831,538
22308575,9998,-0.326050,-0.723999,0.631348,534
22318568,9993,-0.326660,-0.723145,0.629761,534
22328591,10023,-0.326172,-0.721313,0.624756,525
22338575,9984,-0.324585,-0.721191,0.627197,522
22348588,10013,-0.326172,-0.724121,0.629028,527
22358574,9986,-0.327026,-0.724731,0.627808,525
22370411,11837,-0.326172,-0.724487,0.625854,514
22378568,8157,-0.325928,-0.720337,0.626343,520
22388567,9999,-0.324707,-0.720581,0.626587,513
22398592,10025,-0.324707,-0.725952,0.626831,514
22408568,9976,-0.325073,-0.722900,0.626831,512
22418590,10022,-0.325806,-0.719971,0.625000,512
22428588,9998,-0.325928,-0.719360,0.625366,506
22438581,9993,-0.326172,-0.722046,0.627441,512
22448572,9991,-0.324829,-0.723511,0.630615,513
22458583,10011,-0.324829,-0.720703,0.627930,512
22468592,10009,-0.325195,-0.719360,0.626831,513
22478579,9987,-0.325195,-0.720703,0.627319,510
22488578,9999,-0.324707,-0.723511,0.628174,513
22498584,10006,-0.325195,-0.724365,0.626587,513
22508585,10001,-0.325439,-0.721313,0.625000,511
22518591,10006,-0.324829,-0.721558,0.624390,507
22528588,9997,-0.324463,-0.720825,0.624878,509
22538571,9983,-0.325806,-0.723267,0.625488,510
22548580,10009,-0.325195,-0.723267,0.627319,508
22558565,9985,-0.325806,-0.723145,0.626587,506
22568585,10020,-0.326782,-0.722046,0.627075,506
22578601,10016,-0.325439,-0.723511,0.627075,502
22588592,9991,-0.325439,-0.722900,0.626587,504
22598577,9985,-0.325806,-0.721802,0.625000,504
22608574,9997,-0.325195,-0.720947,0.626221,506
22618592,10018,-0.325317,-0.720581,0.627197,501
22628581,9989,-0.325073,-0.722412,0.627075,505
22638582,10001,-0.325928,-0.723755,0.627319,505
22648582,10000,-0.325928,-0.723145,0.626831,505
22658586,10004,-0.326050,-0.721436,0.627808,496
22668583,9997,-0.325439,-0.722412,0.627563,501
22678575,9992,-0.326294,-0.722168,0.626343,500
22688582,10007,-0.325317,-0.722900,0.625610,493
22698582,10000,-0.325684,-0.723145,0.625854,503
22708590,10008,-0.325195,-0.722656,0.626709,499
22718603,10013,-0.325806,-0.721313,0.626221,492
22728587,9984,-0.325928,-0.722656,0.627319,499
22738581,9994,-0.326294,-0.722900,0.628662,494
22748572,9991,-0.325684,-0.722046,0.627930,498
22758582,10010,-0.326172,-0.721802,0.626953,499
22768587,10005,-0.325684,-0.721802,0.627930,499
22778674,10087,-0.327759,-0.722534,0.626831,499
22788571,9897,-0.325195,-0.722046,0.625854,494
22798581,10010,-0.325684,-0.721313,0.625610,495
22808582,10001,-0.324707,-0.722534,0.625732,498
22818581,9999,-0.325684,-0.722778,0.625732,496
22828570,9989,-0.326660,-0.722778,0.627197,498
22838584,10014,-0.326294,-0.723389,0.627075,492
22848609,10025,-0.326050,-0.722412,0.625977,497
22858568,9959,-0.324829,-0.721558,0.625000,492
22868592,10024,-0.318848,-0.716797,0.621460,493
22878570,9978,-0.332275,-0.724854,0.633789,495
22889265,10695,-0.330933,-0.727905,0.628540,495
22898568,9303,-0.325928,-0.723145,0.626343,493
22908583,10015,-0.323120,-0.718018,0.622803,494
22918589,10006,-0.321045,-0.716919,0.625488,487
22928573,9984,-0.324951,-0.725708,0.627686,493
22938592,10019,-0.329956,-0.724731,0.626099,491
22948566,9974,-0.329102,-0.719482,0.626465,489
22958569,10003,-0.326050,-0.718872,0.628052,497
22968583,10014,-0.324585,-0.722412,0.627319,487
22980746,12163,-0.324463,-0.725098,0.626343,488
22988617,7871,-0.327026,-0.719482,0.624512,494
22998575,9958,-0.326782,-0.718140,0.625122,497
23008577,10002,-0.327393,-0.722046,0.626709,497
23018592,10015,-0.326172,-0.727051,0.629883,502
23028576,9984,-0.325684,-0.725708,0.630371,507
23038590,10014,-0.327026,-0.718262,0.625000,510
23048572,9982,-0.326172,-0.719971,0.625244,516
23058587,10015,-0.325684,-0.724243,0.626465,516
23068572,9985,-0.326538,-0.725708,0.627441,522
23078570,9998,-0.325562,-0.724731,0.626221,533
23088587,10017,-0.325684,-0.721802,0.623535,532
23099009,10422,-0.325562,-0.720825,0.626343,544
23108581,9572,-0.325806,-0.722656,0.625000,549
23118569,9988,-0.327026,-0.721802,0.627686,555
23128594,10025,-0.326416,-0.721802,0.628052,556
23138585,9991,-0.326904,-0.722534,0.627441,551
23148575,9990,-0.326050,-0.724243,0.628052,556
23158595,10020,-0.325928,-0.724609,0.627197,554
23168592,9997,-0.325684,-0.723633,0.625732,552
23178577,9985,-0.326660,-0.723511,0.625488,546
23188590,10013,-0.326050,-0.722412,0.625244,544
23198595,10005,-0.327271,-0.720825,0.626099,543
23208567,9972,-0.325562,-0.722412,0.626099,539
23218566,9999,-0.325928,-0.722534,0.626343,541
23228572,10006,-0.326660,-0.722046,0.626343,536
23238573,10001,-0.327515,-0.722168,0.626831,538
23248587,10014,-0.325562,-0.722168,0.627686,538
23258591,10004,-0.325195,-0.723877,0.625854,536
23268577,9986,-0.325562,-0.722534,0.626099,535
23278580,10003,-0.327148,-0.722168,0.624634,527
23288574,9994,-0.328247,-0.722534,0.625488,530
23298568,9994,-0.326050,-0.722778,0.625732,527
23308587,10019,-0.325439,-0.721924,0.626099,525
23318588,10001,-0.324829,-0.723389,0.625732,526
23328578,9990,-0.324951,-0.722168,0.624268,518
23338574,9996,-0.325195,-0.722412,0.625366,518
23348569,9995,-0.327271,-0.723267,0.625854,518
23358577,10008,-0.327026,-0.723267,0.626831,518
23368582,10005,-0.327148,-0.722168,0.627808,515
23378714,10132,-0.326416,-0.722656,0.628052,514
23388574,9860,-0.326294,-0.722534,0.626343,508
23398578,10004,-0.326050,-0.722168,0.626465,515
23408571,9993,-0.326050,-0.722412,0.626221,507
23418619,10048,-0.326172,-0.723755,0.623901,511
23428594,9975,-0.326416,-0.723267,0.626221,507
23438581,9987,-0.326172,-0.724243,0.626343,508
23448583,10002,-0.326538,-0.722900,0.625000,509
23458583,10000,-0.327271,-0.723267,0.626221,509
23468586,10003,-0.327026,-0.723022,0.625244,506
23478598,10012,-0.326904,-0.722412,0.625488,508
23488581,9983,-0.326050,-0.723145,0.626465,507
23498585,10004,-0.325317,-0.721924,0.627075,510
23508567,9982,-0.326172,-0.721069,0.625366,512
23518569,10002,-0.326050,-0.721436,0.626343,507
23528587,10018,-0.326294,-0.723022,0.626587,508
23538567,9980,-0.327026,-0.723145,0.626465,506
23548585,10018,-0.327271,-0.722168,0.626831,503
23558579,9994,-0.327393,-0.722534,0.627808,506
23568594,10015,-0.327759,-0.723022,0.626709,503
23578578,9984,-0.326416,-0.722900,0.626099,504
23588595,10017,-0.326294,-0.723511,0.625854,502
23598570,9975,-0.326904,-0.723022,0.625977,494
23608587,10017,-0.327393,-0.722656,0.626221,501
23618575,9988,-0.327515,-0.722290,0.626343,500
23628588,10013,-0.327026,-0.720581,0.625488,499
23638568,9980,-0.326904,-0.721191,0.625854,499
23648591,10023,-0.326904,-0.720215,0.625732,501
23658591,10000,-0.325806,-0.720581,0.625732,496
23668584,9993,-0.326294,-0.721680,0.626709,501
23678571,9987,-0.325928,-0.723633,0.626465,502
23688621,10050,-0.325684,-0.724487,0.625854,499
23699349,10728,-0.325073,-0.723877,0.624023,497
23708587,9238,-0.326660,-0.722778,0.623047,498
23718577,9990,-0.325806,-0.721069,0.624878,495
23728589,10012,-0.326660,-0.722046,0.624023,494
23738580,9991,-0.327759,-0.721680,0.626099,497
23748569,9989,-0.327026,-0.722046,0.628784,491
23758581,10012,-0.325806,-0.723389,0.629517,493
23768574,9993,-0.325195,-0.724487,0.628540,495
23778567,9993,-0.325928,-0.723877,0.627808,494
23788576,10009,-0.327881,-0.723022,0.624634,494
23798570,9994,-0.326782,-0.722412,0.624146,494
23808568,9998,-0.326660,-0.721436,0.625000,493
23818591,10023,-0.326782,-0.720581,0.625854,487
23828584,9993,-0.325806,-0.721558,0.625610,486
23838581,9997,-0.325806,-0.722900,0.626587,492
23848572,9991,-0.326416,-0.723022,0.629028,494
23858583,10011,-0.326416,-0.723511,0.628906,492
23868578,9995,-0.327026,-0.723633,0.629028,493
23878576,9998,-0.326904,-0.724487,0.626221,490
23888581,10005,-0.325806,-0.722656,0.625610,489
23898577,9996,-0.325439,-0.721680,0.624512,492
23908565,9988,-0.325806,-0.720581,0.625122,496
23918572,10007,-0.326538,-0.720947,0.626709,486
23928591,10019,-0.326904,-0.721924,0.627075,494
23938583,9992,-0.326904,-0.721802,0.629150,489
23948589,10006,-0.326050,-0.723145,0.627441,496
23958614,10025,-0.325073,-0.722290,0.625854,496
23968578,9964,-0.326416,-0.721680,0.625977,490
23978571,9993,-0.326416,-0.722656,0.625488,495
23988572,10001,-0.327759,-0.724976,0.624512,496
23998565,9993,-0.326294,-0.725464,0.625000,500
24008576,10011,-0.325195,-0.722900,0.625732,496
24018601,10025,-0.325684,-0.721802,0.625244,504
24028590,9989,-0.326050,-0.720947,0.625000,508
24038580,9990,-0.328247,-0.720215,0.624634,514
24048593,10013,-0.327393,-0.722656,0.625854,519
24058573,9980,-0.328247,-0.723999,0.626953,529
24068582,10009,-0.326904,-0.723999,0.626221,534
24078576,9994,-0.325562,-0.723389,0.626465,540
24088568,9992,-0.324585,-0.722656,0.626221,545
24098586,10018,-0.324585,-0.723022,0.625854,547
24108590,10004,-0.324341,-0.721680,0.594116,550
24118591,10001,-0.328247,-0.722656,0.625366,547
24128590,9999,-0.329468,-0.722900,0.626465,555
24138566,9976,-0.328247,-0.724365,0.629272,556
24148608,10042,-0.327148,-0.725342,0.628662,548
24158572,9964,-0.326782,-0.723267,0.626709,545
24168592,10020,-0.323853,-0.721191,0.625000,549
24178584,9992,-0.325195,-0.722534,0.625244,548
24188583,9999,-0.326172,-0.723022,0.625610,543
24198587,10004,-0.327637,-0.723267,0.623779,541
24208574,9987,-0.327515,-0.722778,0.625000,539
24218581,10007,-0.325439,-0.722656,0.627930,536
24228610,10029,-0.326538,-0.722290,0.628174,536
24238589,9979,-0.326050,-0.722290,0.628540,533
24248587,9998,-0.327026,-0.723267,0.628052,530
24258577,9990,-0.327393,-0.722412,0.626465,528
24268591,10014,-0.326416,-0.723022,0.625610,523
24278583,9992,-0.325317,-0.724609,0.626587,516
24288583,10000,-0.324585,-0.724365,0.626221,517
24298579,9996,-0.324829,-0.724121,0.625977,515
24308584,10005,-0.326416,-0.723389,0.625488,516
24318587,10003,-0.326538,-0.722778,0.623779,514
24328579,9992,-0.327515,-0.723145,0.627563,517
24338565,9986,-0.327271,-0.722656,0.626709,513
24348583,10018,-0.326172,-0.722412,0.625977,510
24358593,10010,-0.325195,-0.721436,0.626465,507
24368573,9980,-0.325073,-0.722778,0.625854,503
24378580,10007,-0.325073,-0.724365,0.626831,505
24388580,10000,-0.325684,-0.724243,0.626953,503
24398566,9986,-0.327026,-0.725464,0.626465,509
24408584,10018,-0.327515,-0.722534,0.625610,509
24418570,9986,-0.325073,-0.721191,0.626221,506
24428582,10012,-0.323853,-0.720947,0.625977,504
24438580,9998,-0.326416,-0.722290,0.627319,503
24448587,10007,-0.327271,-0.722900,0.627197,500
24458589,10002,-0.327026,-0.724609,0.626221,504
24468577,9988,-0.326416,-0.724365,0.625488,503
24478581,10004,-0.325928,-0.724243,0.626221,503
24488568,9987,-0.324585,-0.722778,0.625122,496
24498565,9997,-0.324829,-0.722412,0.625977,502
24508588,10023,-0.325439,-0.723267,0.625854,500
24518574,9986,-0.325073,-0.723877,0.624878,498
24528581,10007,-0.324707,-0.723877,0.625244,500
24538594,10013,-0.324341,-0.723877,0.626709,501
24548573,9979,-0.325684,-0.724365,0.628174,500
24558592,10019,-0.324585,-0.723267,0.627563,503
24568565,9973,-0.323242,-0.721069,0.624634,504
24578566,10001,-0.326782,-0.721069,0.626709,499
24588585,10019,-0.325195,-0.721313,0.626221,503
24598581,9996,-0.325195,-0.722778,0.627441,502
24608576,9995,-0.324707,-0.723633,0.625977,492
24619408,10832,-0.324829,-0.723511,0.626953,499
24628580,9172,-0.325928,-0.724243,0.625732,495
24638621,10041,-0.327026,-0.723877,0.625732,496
24648573,9952,-0.326538,-0.724487,0.626587,496
24658585,10012,-0.326050,-0.723877,0.625854,496
24668586,10001,-0.324829,-0.724121,0.626099,490
24678580,9994,-0.323730,-0.722412,0.625854,494
24688584,10004,-0.324585,-0.722412,0.624756,492
24698609,10025,-0.324341,-0.722046,0.624878,492
24708573,9964,-0.323975,-0.722900,0.625488,492
24718581,10008,-0.324707,-0.723145,0.626221,494
24728572,9991,-0.325317,-0.723267,0.625732,487
24738585,10013,-0.325928,-0.723389,0.625488,492
24748594,10009,-0.326050,-0.723267,0.626953,490
24758576,9982,-0.325806,-0.723755,0.625854,489
24768594,10018,-0.324829,-0.723511,0.626587,490
24778598,10004,-0.325195,-0.722900,0.625122,490
24788573,9975,-0.325195,-0.722534,0.625366,491
24798592,10019,-0.325928,-0.723633,0.626831,482
24808579,9987,-0.326050,-0.724121,0.627930,489
24818586,10007,-0.325928,-0.723877,0.626221,489
24828578,9992,-0.323486,-0.723511,0.627075,491
24838610,10032,-0.324585,-0.721436,0.626221,490
24848566,9956,-0.324463,-0.721680,0.625122,489
24858578,10012,-0.325195,-0.723267,0.626099,492
24868593,10015,-0.326294,-0.723145,0.625977,485
24878589,9996,-0.327148,-0.722534,0.626343,492
24888580,9991,-0.325317,-0.723633,0.626099,489
24898581,10001,-0.324219,-0.724731,0.626465,494
24908584,10003,-0.324829,-0.725098,0.626099,496
24918587,10003,-0.324219,-0.723633,0.625854,499
24928589,10002,-0.323975,-0.723511,0.624146,499
24938587,9998,-0.325073,-0.722534,0.624390,511
24948585,9998,-0.325317,-0.722412,0.625122,518
24958584,9999,-0.326050,-0.723022,0.625854,524
24968583,9999,-0.325684,-0.722778,0.626343,530
24978572,9989,-0.325439,-0.723389,0.628296,533
24988594,10022,-0.324707,-0.723633,0.629150,538
24998569,9975,-0.324951,-0.724365,0.627441,539
25008575,10006,-0.325317,-0.724609,0.625488,538
25018573,9998,-0.326172,-0.723145,0.625610,537
25028583,10010,-0.325195,-0.722778,0.625488,536
25038578,9995,-0.324341,-0.722778,0.625122,541
25048596,10018,-0.323730,-0.723145,0.625488,542
25058576,9980,-0.325439,-0.722534,0.626709,536
25068578,10002,-0.325684,-0.723145,0.625610,531
25078588,10010,-0.324707,-0.723877,0.626831,536
25088576,9988,-0.325806,-0.724487,0.626953,537
25098566,9990,-0.324707,-0.724243,0.626953,534
25108605,10039,-0.323975,-0.723511,0.625977,534
25118571,9966,-0.324219,-0.723267,0.625366,530
25128591,10020,-0.323975,-0.722656,0.625732,523
25138570,9979,-0.324829,-0.721680,0.624390,519
25148569,9999,-0.325317,-0.722778,0.624390,526
25158582,10013,-0.326538,-0.724365,0.628784,522
25168594,10012,-0.327026,-0.727051,0.630127,522
25178593,9999,-0.325073,-0.724854,0.628174,519
25188581,9988,-0.323364,-0.721313,0.625732,517
25198565,9984,-0.324463,-0.722778,0.627808,511
25208575,10010,-0.324951,-0.723389,0.627319,512
25218592,10017,-0.324707,-0.723999,0.625488,511
25228589,9997,-0.326294,-0.722656,0.625000,514
25238592,10003,-0.325684,-0.723145,0.626587,514
25248609,10017,-0.328125,-0.721558,0.624634,507
25258565,9956,-0.324829,-0.726440,0.627808,513
25268570,10005,-0.322388,-0.721680,0.626221,512
25278583,10013,-0.326538,-0.723511,0.625366,507
25288583,10000,-0.325439,-0.723022,0.627808,502
25298594,10011,-0.324951,-0.722656,0.625610,506
25308575,9981,-0.323364,-0.723022,0.626953,509
25318578,10003,-0.324219,-0.724121,0.625000,508
25328604,10026,-0.325684,-0.723511,0.625610,507
25338571,9967,-0.326050,-0.723877,0.625488,507
25348571,10000,-0.324097,-0.724731,0.625977,504
25358578,10007,-0.324341,-0.724365,0.626831,506
25368582,10004,-0.324585,-0.723633,0.626709,502
25378581,9999,-0.325439,-0.723389,0.625244,507
25388606,10025,-0.325439,-0.721191,0.625610,505
25398587,9981,-0.326538,-0.722656,0.628174,506
25408589,10002,-0.325073,-0.723389,0.627197,505
25418571,9982,-0.325439,-0.723267,0.627441,506
25428595,10024,-0.325073,-0.723511,0.627563,508
25438584,9989,-0.325317,-0.723022,0.627686,506
25448579,9995,-0.324951,-0.722534,0.625488,501
25458586,10007,-0.325317,-0.723999,0.626587,500
25468569,9983,-0.324829,-0.723877,0.626343,498
25478589,10020,-0.326416,-0.722778,0.624634,497
25488571,9982,-0.326172,-0.722046,0.626221,497
25498578,10007,-0.324585,-0.722046,0.626587,500
25508570,9992,-0.324829,-0.724731,0.625488,493
25518593,10023,-0.325195,-0.723267,0.625488,494
25528601,10008,-0.325684,-0.723633,0.624756,496
25538579,9978,-0.325684,-0.722900,0.626465,494
25548579,10000,-0.325928,-0.723755,0.627319,497
25558586,10007,-0.325806,-0.724243,0.626465,496
25568577,9991,-0.325928,-0.722534,0.627075,491
25578570,9993,-0.325806,-0.722534,0.625977,494
25588579,10009,-0.326172,-0.722168,0.626221,497
25598608,10029,-0.325439,-0.722900,0.626831,492
25608575,9967,-0.325684,-0.722534,0.626099,497
25618568,9993,-0.325195,-0.723022,0.625122,493
25628577,10009,-0.325562,-0.723633,0.624146,494
25638572,9995,-0.326294,-0.724121,0.624390,494
25648584,10012,-0.326050,-0.725830,0.625732,486
25658597,10013,-0.326904,-0.725708,0.625610,486
25668586,9989,-0.325928,-0.723267,0.627197,492
25678565,9979,-0.325073,-0.723267,0.625854,493
25688579,10014,-0.325562,-0.721802,0.625732,492
25698594,10015,-0.325073,-0.722290,0.625610,503
25708579,9985,-0.325317,-0.721191,0.625977,509
25718570,9991,-0.325195,-0.723022,0.625488,513
25728595,10025,-0.325928,-0.723389,0.626221,519
25738592,9997,-0.326172,-0.723511,0.626709,530
25748568,9976,-0.327026,-0.724121,0.627930,527
25758579,10011,-0.325562,-0.724365,0.627075,536
25768565,9986,-0.326538,-0.723755,0.626465,537
25778566,10001,-0.324951,-0.723755,0.625854,544
25788584,10018,-0.325073,-0.723633,0.625854,547
25798594,10010,-0.325317,-0.723389,0.626221,550
25808570,9976,-0.325439,-0.722534,0.625366,542
25818574,10004,-0.325073,-0.722412,0.626221,547
25828591,10017,-0.326416,-0.722900,0.626465,545
25838580,9989,-0.327148,-0.723022,0.626343,541
25848595,10015,-0.325684,-0.722168,0.626953,542
25858570,9975,-0.327148,-0.723877,0.625732,535
25868568,9998,-0.326294,-0.724243,0.626221,538
25878589,10021,-0.326172,-0.724121,0.628052,527
25888579,9990,-0.325562,-0.724365,0.625732,533
25898571,9992,-0.326172,-0.723389,0.623901,526
25908609,10038,-0.325073,-0.722534,0.622803,522
25918577,9968,-0.325928,-0.722168,0.623901,524
25928576,9999,-0.326294,-0.721924,0.624878,529
25938589,10013,-0.325806,-0.721191,0.626953,526
25948584,9995,-0.326660,-0.722534,0.627197,524
25958589,10005,-0.326172,-0.723999,0.628174,516
25968591,10002,-0.326294,-0.723389,0.627441,522
25978622,10031,-0.326904,-0.723633,0.627808,519
25988591,9969,-0.326660,-0.723511,0.625488,517
25998585,9994,-0.325928,-0.723389,0.624756,509
26008590,10005,-0.325562,-0.723755,0.623535,514
26018585,9995,-0.326416,-0.723511,0.623901,511
26028588,10003,-0.325928,-0.722168,0.623779,510
26038570,9982,-0.325928,-0.722900,0.625732,511
26048593,10023,-0.327271,-0.723267,0.625854,511
26058587,9994,-0.325562,-0.723022,0.625610,511
26068567,9980,-0.325806,-0.722900,0.626709,510
26078585,10018,-0.325317,-0.722778,0.628052,512
26088589,10004,-0.322510,-0.719482,0.624023,512
26098572,9983,-0.332153,-0.724854,0.630981,512
26108613,10041,-0.328613,-0.727783,0.627319,511
26118589,9976,-0.327148,-0.726318,0.625977,512
26128580,9991,-0.324707,-0.719971,0.623779,510
26138585,10005,-0.322632,-0.719604,0.622314,509
26150983,12398,-0.326172,-0.725342,0.626831,505
26158569,7586,-0.328613,-0.726074,0.625732,507
26168585,10016,-0.330078,-0.723999,0.625854,505
26178584,9999,-0.328857,-0.722290,0.625610,505
26188593,10009,-0.324951,-0.723633,0.625000,501
26198565,9972,-0.323364,-0.725952,0.626099,505
26208578,10013,-0.326172,-0.721436,0.624268,497
26218581,10003,-0.328613,-0.719604,0.624390,500
26228578,9997,-0.328369,-0.721313,0.625000,495
26238567,9989,-0.327393,-0.725952,0.628906,495
26248603,10036,-0.325928,-0.725830,0.630249,502
26258566,9963,-0.325317,-0.720825,0.623901,497
26268595,10029,-0.325928,-0.719849,0.623901,504
26278578,9983,-0.327759,-0.721069,0.624756,502
26288584,10006,-0.327026,-0.722168,0.625366,503
26298584,10000,-0.326050,-0.723755,0.627686,497
26308607,10023,-0.326294,-0.723511,0.628174,502
26318566,9959,-0.327881,-0.723999,0.626831,496
26328580,10014,-0.326904,-0.723633,0.625488,501
26339204,10624,-0.326782,-0.724365,0.625854,500
26348585,9381,-0.326660,-0.723022,0.626221,492
26358574,9989,-0.325806,-0.722046,0.625732,499
26368580,10006,-0.325562,-0.720947,0.625488,492
26378579,9999,-0.325195,-0.723022,0.625977,490
26388580,10001,-0.327026,-0.724243,0.625000,491
26398593,10013,-0.326782,-0.723633,0.624390,494
26408590,9997,-0.326904,-0.723267,0.625854,496
26418578,9988,-0.325439,-0.722656,0.625732,489
26431923,13345,-0.326050,-0.723022,0.626099,498
26438577,6654,-0.325073,-0.722290,0.626953,495
26448586,10009,-0.323120,-0.720459,0.622925,497
26458571,9985,-0.330200,-0.724731,0.624268,504
26468583,10012,-0.328735,-0.724609,0.629639,511
26478579,9996,-0.325562,-0.723999,0.625854,516
26488582,10003,-0.323975,-0.721313,0.623413,522
26498574,9992,-0.324463,-0.720581,0.620483,521
26508580,10006,-0.326660,-0.723999,0.624878,533
26518594,10014,-0.328125,-0.726929,0.624268,538
26531226,12632,-0.327515,-0.723267,0.625732,539
26538594,7368,-0.325806,-0.722412,0.629028,545
26548582,9988,-0.324219,-0.723267,0.627563,546
26558593,10011,-0.323853,-0.723999,0.626953,556
26568582,9989,-0.324951,-0.723999,0.625977,556
26578570,9988,-0.326172,-0.720459,0.624023,557
26588575,10005,-0.327759,-0.723022,0.626221,558
26598572,9997,-0.326904,-0.726685,0.627075,553
26608586,10014,-0.326172,-0.724976,0.626587,555
26618569,9983,-0.325317,-0.723022,0.625000,554
26628589,10020,-0.326050,-0.720825,0.624268,551
26638574,9985,-0.326294,-0.721436,0.624878,547
26648614,10040,-0.327637,-0.724121,0.626099,546
26658566,9952,-0.326294,-0.725464,0.626465,539
26668579,10013,-0.326050,-0.723633,0.627563,540
26678569,9990,-0.325928,-0.723267,0.625488,533
26688572,10003,-0.325562,-0.724487,0.624146,529
26698583,10011,-0.326904,-0.723389,0.626221,534
26708585,10002,-0.325562,-0.723145,0.625854,534
26718591,10006,-0.326782,-0.722290,0.625122,530
26728592,10001,-0.327148,-0.722412,0.624878,527
26738572,9980,-0.326172,-0.723267,0.626465,523
26748581,10009,-0.326050,-0.723511,0.625610,525
26758590,10009,-0.327881,-0.723999,0.625488,524
26768578,9988,-0.327271,-0.724365,0.626099,520
26778585,10007,-0.325684,-0.723022,0.625977,520
26788585,10000,-0.325684,-0.724731,0.625244,514
26798593,10008,-0.326172,-0.722412,0.624390,517
26808585,9992,-0.326416,-0.723267,0.625122,519
26818576,9991,-0.326050,-0.723267,0.625977,514
26828578,10002,-0.325195,-0.723633,0.625732,517
26838588,10010,-0.327393,-0.724121,0.625366,516
26848585,9997,-0.326782,-0.723267,0.626221,516
26858571,9986,-0.326538,-0.722412,0.625122,512
26868571,10000,-0.326050,-0.722168,0.624634,502
26878566,9995,-0.325195,-0.721924,0.625122,510
26888591,10025,-0.325073,-0.721680,0.623901,512
26898569,9978,-0.327881,-0.722656,0.655029,505
26908575,10006,-0.327271,-0.724731,0.625366,505
26918617,10042,-0.327271,-0.725098,0.625610,509
26928579,9962,-0.327515,-0.724731,0.625000,503
26938579,10000,-0.326538,-0.722656,0.626709,509
26948570,9991,-0.325439,-0.722656,0.625854,507
26958587,10017,-0.326050,-0.723999,0.625488,507
26968574,9987,-0.325684,-0.722778,0.625488,504
26978593,10019,-0.326294,-0.723022,0.625610,508
26988585,9992,-0.324463,-0.723999,0.626465,506
26998565,9980,-0.326172,-0.723389,0.625366,504
27008575,10010,-0.327637,-0.721313,0.625488,505
27018576,10001,-0.327148,-0.720459,0.626221,499
27028567,9991,-0.327026,-0.720947,0.625610,498
27038591,10024,-0.325562,-0.722778,0.626587,497
27048571,9980,-0.326782,-0.723755,0.626587,503
27058590,10019,-0.327271,-0.725464,0.626099,501
27068591,10001,-0.326538,-0.724731,0.625854,501
27078594,10003,-0.326294,-0.723877,0.626465,503
27088583,9989,-0.325195,-0.723267,0.624634,495
27098573,9990,-0.325439,-0.722656,0.624023,496
27108582,10009,-0.325195,-0.720703,0.624268,501
27118565,9983,-0.325195,-0.720947,0.625244,505
27128570,10005,-0.328491,-0.722656,0.624878,501
27138590,10020,-0.325562,-0.723877,0.626831,502
27148592,10002,-0.328613,-0.723877,0.625366,502
27158589,9997,-0.326172,-0.724854,0.625732,503
27168566,9977,-0.326782,-0.722534,0.625000,502
27178593,10027,-0.327026,-0.723755,0.626099,501
27188593,10000,-0.327759,-0.724243,0.627197,501
27198585,9992,-0.327881,-0.723511,0.626587,502
27208586,10001,-0.327637,-0.723267,0.624634,494
27218587,10001,-0.326294,-0.720459,0.622559,498
27228587,10000,-0.328003,-0.725464,0.626831,496
27238570,9983,-0.326172,-0.724609,0.625488,506
27248602,10032,-0.327148,-0.722900,0.622803,504
27258578,9976,-0.327271,-0.722412,0.624634,507
27268591,10013,-0.327271,-0.723022,0.626343,504
27278578,9987,-0.328003,-0.725464,0.625122,515
27288590,10012,-0.327759,-0.724976,0.624390,516
27298566,9976,-0.327515,-0.724243,0.624268,524
27308577,10011,-0.326294,-0.722534,0.624756,535
27318569,9992,-0.324341,-0.722900,0.625122,540
27328593,10024,-0.325195,-0.723633,0.625244,545
27338568,9975,-0.327637,-0.721924,0.625854,543
27348585,10017,-0.328491,-0.722534,0.626221,554
27358567,9982,-0.328125,-0.723633,0.626953,564
27368565,9998,-0.327515,-0.721802,0.627197,564
27378599,10034,-0.326294,-0.721558,0.625732,564
27388574,9975,-0.328003,-0.722656,0.623657,563
27398571,9997,-0.328857,-0.724731,0.625488,562
27408585,10014,-0.328491,-0.724731,0.627441,560
27418586,10001,-0.328003,-0.725708,0.626953,556
27428580,9994,-0.327515,-0.725464,0.625854,557
27438576,9996,-0.325195,-0.723389,0.623291,551
27448590,10014,-0.324829,-0.722534,0.622192,554
27458584,9994,-0.326416,-0.720581,0.621338,551
27468574,9990,-0.328491,-0.720825,0.625488,543
27478566,9992,-0.327881,-0.721436,0.627197,552
27488579,10013,-0.326904,-0.722656,0.627686,548
27498593,10014,-0.326904,-0.723877,0.625854,541
27508582,9989,-0.325562,-0.724365,0.624634,539
27518572,9990,-0.325928,-0.724854,0.624390,533
27528579,10007,-0.327881,-0.724854,0.623535,525
27538584,10005,-0.327759,-0.724976,0.625732,519
27548568,9984,-0.326416,-0.723877,0.623779,523
27558583,10015,-0.327271,-0.722534,0.624146,516
27568586,10003,-0.327393,-0.721924,0.625366,514
27578612,10026,-0.325806,-0.720459,0.627686,517
27588593,9981,-0.326782,-0.721558,0.627319,517
27598577,9984,-0.327393,-0.723389,0.625366,523
27608565,9988,-0.326660,-0.723755,0.625000,523
27618593,10028,-0.328247,-0.724976,0.625488,518
27628588,9995,-0.327271,-0.724976,0.624512,520
27638565,9977,-0.325806,-0.723511,0.623901,519
27648571,10006,-0.325562,-0.722290,0.624878,518
27658580,10009,-0.326538,-0.722656,0.626709,510
27668578,9998,-0.326782,-0.721924,0.625977,514
27678566,9988,-0.326660,-0.723145,0.626343,516
27688583,10017,-0.328003,-0.723511,0.626709,519
27698568,9985,-0.328247,-0.723022,0.625732,519
27708588,10020,-0.326538,-0.723511,0.626831,516
27718587,9999,-0.326416,-0.723511,0.626587,517
27728579,9992,-0.326538,-0.723267,0.626221,514
27738577,9998,-0.327393,-0.722778,0.626099,509
27748567,9990,-0.326904,-0.723145,0.625000,508
27758583,10016,-0.326660,-0.724243,0.622681,494
27768590,10007,-0.326294,-0.724365,0.624512,506
27778567,9977,-0.327148,-0.723511,0.624390,504
27788571,10004,-0.326294,-0.723022,0.625854,507
27798589,10018,-0.328125,-0.722412,0.625732,499
27808595,10006,-0.328735,-0.723633,0.629272,503
27818580,9985,-0.328125,-0.726807,0.630371,499
27828577,9997,-0.328125,-0.726440,0.628174,505
27838583,10006,-0.328369,-0.725708,0.625732,503
27848577,9994,-0.326538,-0.725586,0.622192,502
27858568,9991,-0.326904,-0.722534,0.621948,496
27868570,10002,-0.323975,-0.719849,0.621704,505
27878592,10022,-0.323242,-0.717529,0.623047,505
27888591,9999,-0.324707,-0.717529,0.624146,501
27898586,9995,-0.325562,-0.719116,0.627319,509
27908594,10008,-0.326904,-0.720825,0.630249,508
27918576,9982,-0.326294,-0.723145,0.629028,508
27928584,10008,-0.327148,-0.725220,0.627808,501
27938579,9995,-0.326660,-0.725586,0.627563,507
27948581,10002,-0.326172,-0.725586,0.625000,506
27958580,9999,-0.326538,-0.724243,0.624023,501
27968578,9998,-0.326904,-0.724121,0.622803,495
27978574,9996,-0.326538,-0.722534,0.622803,498
27988594,10020,-0.326660,-0.721558,0.624146,500
27998576,9982,-0.326782,-0.723145,0.625977,500
28008586,10010,-0.326416,-0.723022,0.626099,494
28018577,9991,-0.325928,-0.722412,0.625488,492
28028592,10015,-0.324707,-0.722290,0.625854,491
28038579,9987,-0.326172,-0.723389,0.625977,496
28048595,10016,-0.326538,-0.723877,0.626465,492
28058577,9982,-0.326782,-0.724365,0.626343,499
28068580,10003,-0.326904,-0.724365,0.625977,489
28078575,9995,-0.326904,-0.724854,0.626465,493
28088576,10001,-0.326294,-0.723999,0.626221,492
28098572,9996,-0.327026,-0.723999,0.625488,503
28108579,10007,-0.325562,-0.723511,0.625977,503
28118574,9995,-0.325928,-0.723267,0.624146,511
28128574,10000,-0.325562,-0.722534,0.624146,518
28138591,10017,-0.326050,-0.722778,0.625000,524
28148590,9999,-0.326172,-0.723389,0.625977,527
28158574,9984,-0.326294,-0.723755,0.626343,538
28168573,9999,-0.324951,-0.723877,0.627563,539
28178568,9995,-0.326660,-0.724609,0.627930,546
28188566,9998,-0.326172,-0.724243,0.626709,549
28198569,10003,-0.327271,-0.724487,0.626343,552
28208574,10005,-0.326538,-0.723267,0.625366,553
28218583,10009,-0.325317,-0.722656,0.625000,552
28228575,9992,-0.325195,-0.722046,0.624634,557
28238571,9996,-0.325195,-0.722656,0.624512,555
28248568,9997,-0.325684,-0.722656,0.626343,555
28258575,10007,-0.325195,-0.723877,0.626221,554
28268605,10030,-0.325928,-0.724731,0.626709,549
28278568,9963,-0.326538,-0.723633,0.626099,551
28288587,10019,-0.325562,-0.723877,0.625854,548
28298589,10002,-0.325562,-0.724121,0.625732,542
28308591,10002,-0.325195,-0.723389,0.624756,542
28318572,9981,-0.325439,-0.723022,0.624512,537
28328576,10004,-0.326538,-0.723389,0.625488,538
28338606,10030,-0.326904,-0.723511,0.626221,538
28348570,9964,-0.326782,-0.723755,0.627563,533
28358581,10011,-0.325562,-0.724121,0.626831,549
28368584,10003,-0.324829,-0.724243,0.626831,516
28378573,9989,-0.325562,-0.724609,0.627075,522
28388581,10008,-0.325684,-0.724365,0.627441,520
28398569,9988,-0.327026,-0.724487,0.624756,525
28408618,10049,-0.326660,-0.723755,0.624512,520
28418594,9976,-0.324341,-0.721558,0.624268,523
28428586,9992,-0.323975,-0.722534,0.625366,519
28438578,9992,-0.324707,-0.723267,0.624512,516
28448581,10003,-0.324829,-0.722290,0.623657,519
28458590,10009,-0.326050,-0.724854,0.627319,517
28468583,9993,-0.329712,-0.723877,0.623413,511
28478598,10015,-0.329712,-0.726685,0.629639,517
28488580,9982,-0.326172,-0.725464,0.627808,514
28498587,10007,-0.323242,-0.726562,0.627686,515
28508593,10006,-0.324585,-0.721924,0.620117,514
28518569,9976,-0.323608,-0.720459,0.622437,514
28528582,10013,-0.324097,-0.723145,0.623779,516
28538621,10039,-0.324463,-0.724731,0.624023,512
28548593,9972,-0.326294,-0.724976,0.626099,513
28558593,10000,-0.327026,-0.723877,0.626343,512
28568593,10000,-0.325562,-0.726440,0.628052,504
28578584,9991,-0.325806,-0.725220,0.628052,511
28588584,10000,-0.325195,-0.724976,0.628296,507
28598581,9997,-0.325195,-0.724121,0.625854,508
28608605,10024,-0.325073,-0.722900,0.624023,508
28618572,9967,-0.324829,-0.723755,0.624268,507
28628588,10016,-0.324707,-0.725098,0.624023,508
28638591,10003,-0.324463,-0.723755,0.625366,502
28648578,9987,-0.325195,-0.722656,0.625122,507
28658589,10011,-0.325073,-0.720459,0.625122,507
28668583,9994,-0.325439,-0.720459,0.623535,507
28678578,9995,-0.325195,-0.724731,0.629028,503
28688581,10003,-0.325317,-0.725098,0.628418,495
28698582,10001,-0.324829,-0.725952,0.626953,494
28708580,9998,-0.325317,-0.725342,0.625244,500
28718589,10009,-0.324951,-0.723999,0.624023,501
28728592,10003,-0.325684,-0.723877,0.623047,499
28738588,9996,-0.324707,-0.722900,0.625488,501
28748609,10021,-0.325073,-0.721680,0.624756,502
28758567,9958,-0.325317,-0.722046,0.627441,495
28768568,10001,-0.325928,-0.721802,0.627930,507
28778570,10002,-0.325317,-0.724365,0.627930,504
28788573,10003,-0.324829,-0.724365,0.627197,494
28798574,10001,-0.325439,-0.724609,0.625488,492
28808567,9993,-0.325073,-0.723267,0.623413,498
28818574,10007,-0.324341,-0.723145,0.622314,494
28828571,9997,-0.324097,-0.724609,0.624023,493
28838575,10004,-0.325806,-0.726562,0.627197,492
28848581,10006,-0.325684,-0.726562,0.626709,491
28858585,10004,-0.326172,-0.725342,0.626953,491
28868584,9999,-0.325806,-0.723999,0.625977,490
28878585,10001,-0.325073,-0.723511,0.624390,493
28888600,10015,-0.323486,-0.723022,0.622559,490
28898568,9968,-0.322876,-0.722656,0.622803,491
28908587,10019,-0.324219,-0.721802,0.624390,497
28918577,9990,-0.324951,-0.723389,0.626221,498
28928575,9998,-0.324829,-0.724731,0.627075,500
28938578,10003,-0.324707,-0.726318,0.626587,500
28948587,10009,-0.325684,-0.724609,0.625732,505
28958602,10015,-0.326294,-0.724731,0.626465,506
28968589,9987,-0.324951,-0.724121,0.626099,513
28978589,10000,-0.325073,-0.726196,0.626221,519
28988590,10001,-0.323975,-0.724609,0.625244,518
28998591,10001,-0.324341,-0.722656,0.625244,534
29008577,9986,-0.325195,-0.722900,0.624146,533
29018577,10000,-0.325562,-0.723145,0.626221,546
29028598,10021,-0.324951,-0.724121,0.626587,545
29038589,9991,-0.325317,-0.723999,0.626099,553
29048573,9984,-0.325073,-0.724365,0.625977,553
29058573,10000,-0.324585,-0.724487,0.626221,551
29068576,10003,-0.324463,-0.724243,0.625732,551
29078573,9997,-0.324463,-0.724609,0.625244,552
29088568,9995,-0.324707,-0.724609,0.624390,541
29098583,10015,-0.324463,-0.723877,0.624146,546
29108584,10001,-0.324341,-0.723877,0.625000,541
29118580,9996,-0.324829,-0.723877,0.624268,536
29128582,10002,-0.325195,-0.723022,0.627197,538
29138594,10012,-0.325684,-0.723389,0.628418,540
29148591,9997,-0.325684,-0.724365,0.627319,538
29158575,9984,-0.324707,-0.724365,0.625732,540
29168581,10006,-0.323364,-0.723389,0.625366,531
29178587,10006,-0.324463,-0.724487,0.624512,530
29188594,10007,-0.324585,-0.725098,0.624878,531
29198590,9996,-0.323975,-0.724854,0.626221,526
29208575,9985,-0.318970,-0.725098,0.622192,522
29218575,10000,-0.328125,-0.725586,0.626709,521
29228578,10003,-0.329590,-0.725708,0.625000,518
29238586,10008,-0.325195,-0.724854,0.627563,512
29248575,9989,-0.325073,-0.723511,0.626343,515
29258575,10000,-0.323120,-0.721924,0.624146,515
29268594,10019,-0.322632,-0.722168,0.625854,513
29278569,9975,-0.324951,-0.724243,0.626953,514
29288589,10020,-0.327393,-0.724243,0.626831,498
29298572,9983,-0.327393,-0.723877,0.624512,512
29308565,9993,-0.326172,-0.723389,0.625610,506
29318580,10015,-0.323242,-0.725098,0.625732,511
29328590,10010,-0.323486,-0.723755,0.626221,512
29338569,9979,-0.326904,-0.722290,0.629272,508
29348586,10017,-0.324707,-0.726929,0.618164,513
29358596,10010,-0.326294,-0.735107,0.620850,508
29368572,9976,-0.325928,-0.719971,0.625854,504
29378588,10016,-0.322754,-0.725098,0.622803,506
29388568,9980,-0.323608,-0.723633,0.626709,498
29398578,10010,-0.323730,-0.719849,0.631348,498
29408590,10012,-0.326050,-0.715332,0.629517,499
29418590,10000,-0.327515,-0.732056,0.622681,506
29428580,9990,-0.326782,-0.724731,0.623779,503
29438591,10011,-0.322876,-0.725464,0.624023,508
29448593,10002,-0.326172,-0.727905,0.622192,507
29458592,9999,-0.325439,-0.724609,0.626465,506
29468583,9991,-0.324585,-0.721069,0.627686,499
29478586,10003,-0.325317,-0.725464,0.623901,506
29488610,10024,-0.325317,-0.723267,0.625000,503
29498592,9982,-0.324463,-0.722778,0.622559,500
29508569,9977,-0.325684,-0.724243,0.622437,499
29518571,10002,-0.324951,-0.722778,0.624268,503
29528574,10003,-0.326416,-0.721680,0.626465,500
29538570,9996,-0.325317,-0.724976,0.626465,496
29548567,9997,-0.324707,-0.725586,0.629761,499
29558595,10028,-0.324097,-0.726929,0.629272,480
29568575,9980,-0.326050,-0.725586,0.628662,512
29578573,9998,-0.326538,-0.725098,0.625610,501
29588578,10005,-0.325684,-0.723633,0.624756,496
29599871,11293,-0.323242,-0.722778,0.623779,494
29608571,8700,-0.324707,-0.723267,0.622437,497
29618586,10015,-0.325195,-0.722534,0.623535,492
29628586,10000,-0.326172,-0.722412,0.623047,496
29638572,9986,-0.325928,-0.723145,0.624634,496
29648572,10000,-0.326050,-0.724121,0.625732,495
29658581,10009,-0.325928,-0.725586,0.628296,497
29668594,10013,-0.325928,-0.725464,0.627319,498
29678593,9999,-0.326660,-0.724609,0.626587,490
29688568,9975,-0.324707,-0.725586,0.626465,495
29698574,10006,-0.327026,-0.724854,0.625366,500
29708582,10008,-0.327026,-0.723755,0.625732,503
29718571,9989,-0.326050,-0.724243,0.624512,506
29728568,9997,-0.325684,-0.722168,0.625366,508
29738567,9999,-0.324585,-0.721069,0.625000,517
29748584,10017,-0.325195,-0.723022,0.625244,517
29758580,9996,-0.326538,-0.724121,0.624756,525
29768573,9993,-0.326904,-0.724609,0.624756,526
29778589,10016,-0.326782,-0.723633,0.625732,538
29788569,9980,-0.326172,-0.724243,0.624390,541
29798576,10007,-0.324463,-0.723999,0.625366,543
29808585,10009,-0.325684,-0.723877,0.625122,538
29818588,10003,-0.325562,-0.722778,0.625977,538
29828578,9990,-0.325439,-0.723755,0.625366,545
29838572,9994,-0.325073,-0.723511,0.626221,544
29848577,10005,-0.325073,-0.723877,0.626221,543
29858592,10015,-0.326172,-0.723999,0.626709,537
29868588,9996,-0.325684,-0.723389,0.626099,541
29878569,9981,-0.325562,-0.723999,0.625122,543
29888571,10002,-0.325684,-0.725098,0.624146,533
29898575,10004,-0.325806,-0.724243,0.623535,538
29908572,9997,-0.324829,-0.723511,0.624023,534
29918565,9993,-0.325073,-0.723145,0.624512,533
29928565,10000,-0.325684,-0.723755,0.623169,527
29938573,10008,-0.326294,-0.723755,0.623535,526
29948565,9992,-0.326172,-0.722290,0.626343,530
29958571,10006,-0.327026,-0.724976,0.628052,523
29968589,10018,-0.327148,-0.724609,0.629395,523
29978585,9996,-0.325806,-0.725220,0.628906,521
29988590,10005,-0.324829,-0.723755,0.626099,517
29998587,9997,-0.325317,-0.723511,0.623779,517
30008578,9991,-0.325195,-0.722290,0.623169,511
30018572,9994,-0.326050,-0.723755,0.623657,512
30028611,10039,-0.326660,-0.723022,0.623169,510
30038567,9956,-0.326172,-0.721558,0.625122,510
30048570,10003,-0.325439,-0.723389,0.626099,508
30058590,10020,-0.327515,-0.724365,0.627197,503
30068575,9985,-0.327148,-0.724731,0.627441,504
30078572,9997,-0.327148,-0.723022,0.625488,507
30089023,10451,-0.323120,-0.724976,0.625366,507
30098592,9569,-0.322998,-0.723999,0.623413,506
30108590,9998,-0.326050,-0.725708,0.622681,504
30118570,9980,-0.326904,-0.723999,0.621338,497
30128565,9995,-0.326294,-0.722656,0.622437,501
30138585,10020,-0.325317,-0.725098,0.625366,497
30148593,10008,-0.325439,-0.725952,0.626099,503
30158587,9994,-0.326050,-0.725586,0.626099,500
30168578,9991,-0.326782,-0.723877,0.624268,500
30178591,10013,-0.325073,-0.723755,0.624634,500
30188567,9976,-0.325928,-0.726074,0.626709,498
30198569,10002,-0.325439,-0.725220,0.627441,501
30208588,10019,-0.325439,-0.724365,0.625854,497
30218591,10003,-0.325806,-0.724243,0.626221,493
30228575,9984,-0.325806,-0.723267,0.625977,495
30238585,10010,-0.325439,-0.724609,0.624512,492
30248566,9981,-0.325317,-0.724243,0.623047,499
30258590,10024,-0.325684,-0.723755,0.622559,497
30268568,9978,-0.326416,-0.723877,0.623779,491
30278578,10010,-0.327148,-0.723267,0.623291,489
30288613,10035,-0.325928,-0.724731,0.625488,493
30298570,9957,-0.325562,-0.724487,0.626465,484
30308572,10002,-0.327148,-0.724976,0.626465,484
30318569,9997,-0.326416,-0.724854,0.625488,490
30328572,10003,-0.326538,-0.724609,0.625122,485
30338583,10011,-0.325195,-0.724243,0.625366,490
30348587,10004,-0.326172,-0.723877,0.625122,485
30358596,10009,-0.326050,-0.723999,0.624512,490
30368579,9983,-0.325928,-0.723511,0.624390,485
30378575,9996,-0.324829,-0.723022,0.625122,489
30388589,10014,-0.325684,-0.724365,0.625122,489
30398586,9997,-0.324463,-0.724121,0.623657,475
30408576,9990,-0.325562,-0.724976,0.624878,482
30418615,10039,-0.327393,-0.726196,0.623413,490
30428568,9953,-0.328247,-0.726685,0.623169,487
30438565,9997,-0.328735,-0.724976,0.625854,484
30448586,10021,-0.325806,-0.723389,0.625977,486
30458573,9987,-0.324463,-0.722168,0.625122,488
30468580,10007,-0.324951,-0.721558,0.624878,484
30478589,10009,-0.324097,-0.723511,0.624023,490
30488611,10022,-0.328247,-0.723755,0.623657,488
30498565,9954,-0.325806,-0.724121,0.626099,489
30508579,10014,-0.324463,-0.726318,0.626099,485
30518570,9991,-0.325317,-0.724609,0.625732,493
30528591,10021,-0.327759,-0.723877,0.624268,493
30538577,9986,-0.329224,-0.724365,0.624512,500
30548610,10033,-0.324585,-0.723511,0.622559,505
30558588,9978,-0.323975,-0.723755,0.625854,512
30568585,9997,-0.326538,-0.723267,0.624390,519
30578565,9980,-0.325562,-0.723267,0.623901,527
30588566,10001,-0.325684,-0.723755,0.622803,534
30598569,10003,-0.327393,-0.723999,0.624634,540
30608570,10001,-0.326172,-0.724609,0.625244,539
30618602,10032,-0.325195,-0.725464,0.624878,547
30628580,9978,-0.327148,-0.723877,0.625610,548
30638587,10007,-0.328613,-0.723633,0.625000,546
30648573,9986,-0.325806,-0.724121,0.625366,553
30658581,10008,-0.325317,-0.724365,0.625488,551
30668594,10013,-0.325562,-0.723022,0.624023,548
30678569,9975,-0.326904,-0.724365,0.622803,548
30688580,10011,-0.325195,-0.723511,0.624023,546
30698587,10007,-0.327637,-0.724976,0.624268,538
30708565,9978,-0.326172,-0.723389,0.625366,537
30718592,10027,-0.324951,-0.724609,0.625854,541
30728577,9985,-0.327759,-0.724365,0.627197,541
30738594,10017,-0.327026,-0.724609,0.626099,542
30748597,10003,-0.327393,-0.723755,0.623779,535
30758585,9988,-0.324219,-0.725098,0.626587,537
30768584,9999,-0.327393,-0.723755,0.623291,533
30778567,9983,-0.327637,-0.723877,0.624878,527
30788579,10012,-0.328125,-0.724854,0.624512,524
30798575,9996,-0.326782,-0.724854,0.625732,528
30808616,10041,-0.327026,-0.724609,0.625610,526
30818575,9959,-0.324463,-0.724854,0.625610,522
30828574,9999,-0.324829,-0.725220,0.624756,513
30838592,10018,-0.326050,-0.723999,0.623169,513
30848576,9984,-0.327271,-0.724243,0.622925,515
30858587,10011,-0.325073,-0.724243,0.623169,509
30868592,10005,-0.324707,-0.723145,0.624512,510
30878575,9983,-0.326050,-0.722534,0.625732,512
30888584,10009,-0.325684,-0.723511,0.625854,505
30898591,10007,-0.326172,-0.724609,0.625244,507
30908589,9998,-0.326660,-0.724854,0.625366,505
30918580,9991,-0.327881,-0.726074,0.626709,502
30928572,9992,-0.324951,-0.725830,0.625854,505
30938582,10010,-0.326538,-0.724976,0.623535,503
30948617,10035,-0.326050,-0.723511,0.622070,496
30958581,9964,-0.325073,-0.723511,0.622925,503
30968582,10001,-0.324829,-0.723511,0.623169,503
30978589,10007,-0.325684,-0.723633,0.622681,499
30988584,9995,-0.327026,-0.723755,0.623901,502
30998583,9999,-0.328491,-0.724365,0.624634,494
31008573,9990,-0.327026,-0.725342,0.625732,480
31018571,9998,-0.326538,-0.725464,0.625244,500
31028584,10013,-0.325684,-0.724243,0.625732,490
31038586,10002,-0.325684,-0.724121,0.625854,497
31048581,9995,-0.325439,-0.723511,0.625244,495
31058591,10010,-0.326050,-0.724243,0.625977,495
31068571,9980,-0.326782,-0.724487,0.625610,489
31078585,10014,-0.325195,-0.724243,0.625977,486
31088581,9996,-0.326660,-0.723877,0.623901,493
31098587,10006,-0.326904,-0.723022,0.625732,493
31108584,9997,-0.325928,-0.723389,0.625610,493
31118569,9985,-0.327515,-0.722900,0.623291,493
31128585,10016,-0.327271,-0.724243,0.626465,492
31138567,9982,-0.325562,-0.725586,0.625000,491
31148567,10000,-0.326782,-0.725342,0.624268,485
31158574,10007,-0.326294,-0.724609,0.622559,490
31168589,10015,-0.327271,-0.724609,0.623901,491
31178580,9991,-0.326782,-0.724243,0.624512,488
31188571,9991,-0.326538,-0.723877,0.625977,492
31198583,10012,-0.327637,-0.723511,0.625122,491
31208573,9990,-0.326172,-0.723389,0.625610,493
31218570,9997,-0.326782,-0.724487,0.624146,485
31228585,10015,-0.327637,-0.725342,0.626099,487
31238594,10009,-0.325928,-0.724854,0.624268,495
31248570,9976,-0.325928,-0.723633,0.623901,489
31258574,10004,-0.327515,-0.724243,0.623291,492
31268571,9997,-0.326294,-0.724487,0.625732,491
31278579,10008,-0.326782,-0.725952,0.624634,492
31288601,10022,-0.326782,-0.725464,0.624756,490
31298573,9972,-0.325562,-0.724731,0.623535,490
31308584,10011,-0.326172,-0.723755,0.625122,489
31318583,9999,-0.325195,-0.723511,0.625122,491
31328577,9994,-0.325684,-0.723145,0.623535,487
31338572,9995,-0.326904,-0.723755,0.624878,492
31348601,10029,-0.326904,-0.723267,0.626709,490
31358569,9968,-0.327026,-0.724976,0.626465,491
31368583,10014,-0.327759,-0.724487,0.626343,490
31378576,9993,-0.326904,-0.724365,0.625854,485
31388591,10015,-0.326050,-0.725220,0.625000,489
31398583,9992,-0.326294,-0.724609,0.625366,488
31408594,10011,-0.326416,-0.724121,0.625244,491
31418586,9992,-0.326904,-0.724121,0.624268,490
31428577,9991,-0.326782,-0.724243,0.623901,496
31438569,9992,-0.325562,-0.723022,0.624023,500
31448572,10003,-0.326294,-0.722534,0.622681,501
31458584,10012,-0.326050,-0.722900,0.625366,509
31468582,9998,-0.328247,-0.724365,0.625610,516
31478613,10031,-0.327393,-0.723999,0.625366,523
31488570,9957,-0.326294,-0.724854,0.627075,532
31498585,10015,-0.325928,-0.724731,0.626221,537
31508593,10008,-0.327148,-0.725220,0.624512,551
31518567,9974,-0.326050,-0.724487,0.622559,544
31528567,10000,-0.326172,-0.723877,0.622681,546
31538593,10026,-0.326294,-0.723145,0.625000,542
31548571,9978,-0.327026,-0.723389,0.623901,549
31558583,10012,-0.325562,-0.723877,0.625244,549
31568572,9989,-0.327026,-0.724243,0.625732,553
31578576,10004,-0.327881,-0.724243,0.624390,543
31588572,9996,-0.327393,-0.726074,0.624390,547
31598568,9996,-0.326294,-0.724976,0.624146,539
31608576,10008,-0.325684,-0.724365,0.624756,535
31618592,10016,-0.326172,-0.724243,0.624512,542
31628584,9992,-0.326416,-0.723389,0.624512,538
31638590,10006,-0.326660,-0.723267,0.626221,539
31648590,10000,-0.326904,-0.723633,0.625366,538
31658578,9988,-0.325684,-0.723511,0.626343,535
31668587,10009,-0.325806,-0.723022,0.626099,534
31678591,10004,-0.327637,-0.724243,0.624756,531
31688585,9994,-0.327881,-0.724976,0.625366,528
31698584,9999,-0.327393,-0.725220,0.625854,525
31708594,10010,-0.327026,-0.723999,0.625854,521
31718574,9980,-0.326660,-0.723999,0.624878,517
31728582,10008,-0.326050,-0.723999,0.624146,511
31738566,9984,-0.326172,-0.724243,0.623901,507
31748565,9999,-0.326416,-0.723877,0.623169,510
31758585,10020,-0.326416,-0.723633,0.625244,508
31768568,9983,-0.326660,-0.723389,0.625000,502
31778585,10017,-0.326294,-0.723877,0.625854,502
31788582,9997,-0.327148,-0.723511,0.624878,505
31798580,9998,-0.326416,-0.723633,0.625366,504
31808568,9988,-0.324829,-0.724365,0.626465,505
31818595,10027,-0.325928,-0.724487,0.626221,503
31828572,9977,-0.328125,-0.724487,0.625366,504
31838581,10009,-0.325806,-0.723633,0.625122,504
31848576,9995,-0.326172,-0.723511,0.624146,517
31858588,10012,-0.327271,-0.723145,0.624878,500
31868586,9998,-0.326660,-0.723633,0.624390,500
31878566,9980,-0.326294,-0.723267,0.626343,502
31888594,10028,-0.325928,-0.725464,0.625977,504
31898591,9997,-0.326172,-0.724731,0.625244,504
31908576,9985,-0.326416,-0.724731,0.624634,500
31918574,9998,-0.327393,-0.725342,0.623657,502
31928565,9991,-0.326538,-0.723877,0.623047,498
31938581,10016,-0.326538,-0.723267,0.622925,495
31948565,9984,-0.327637,-0.723389,0.624756,499
31958593,10028,-0.326782,-0.723389,0.626709,499
31968577,9984,-0.327148,-0.724365,0.627319,490
31978567,9990,-0.326904,-0.724731,0.626709,494
31988577,10010,-0.326172,-0.724487,0.626953,494
31998585,10008,-0.325684,-0.723511,0.625000,496
32008617,10032,-0.326416,-0.723633,0.624634,495
32018583,9966,-0.325439,-0.723389,0.624512,488
32028589,10006,-0.326538,-0.722290,0.624878,492
32038570,9981,-0.326172,-0.723389,0.624268,486
32048583,10013,-0.326294,-0.723755,0.625732,494
32058581,9998,-0.326660,-0.724609,0.626465,488
32068585,10004,-0.325928,-0.724121,0.624512,486
32078587,10002,-0.325562,-0.723877,0.625610,494
32088571,9984,-0.325562,-0.723755,0.624268,493
32098587,10016,-0.326050,-0.724121,0.624878,493
32108582,9995,-0.327271,-0.723145,0.625366,492
32118583,10001,-0.326294,-0.723267,0.624390,486
32128568,9985,-0.327026,-0.723633,0.625610,493
32138620,10052,-0.325928,-0.723511,0.626831,491
32148590,9970,-0.325806,-0.724121,0.626587,480
32158572,9982,-0.326416,-0.723511,0.625732,491
32168593,10021,-0.328003,-0.723511,0.624878,491
32178589,9996,-0.326538,-0.723633,0.625000,490
32188587,9998,-0.325806,-0.724365,0.625000,488
32198585,9998,-0.326050,-0.724243,0.623779,485
32208567,9982,-0.326538,-0.723999,0.655518,490
32218587,10020,-0.327271,-0.723755,0.625488,488
32228589,10002,-0.326538,-0.724731,0.625610,487
32238577,9988,-0.327515,-0.724121,0.624512,487
32248578,10001,-0.326782,-0.723755,0.625488,481
32258584,10006,-0.326782,-0.722900,0.625366,481
32268591,10007,-0.327515,-0.723389,0.625000,484
32278566,9975,-0.326538,-0.723022,0.624268,485
32288569,10003,-0.326172,-0.723999,0.624268,485
32298567,9998,-0.327148,-0.722900,0.625610,485
32308569,10002,-0.327393,-0.723145,0.625488,487
32318578,10009,-0.327271,-0.723267,0.626465,487
32328593,10015,-0.327148,-0.723633,0.626221,483
32338567,9974,-0.326294,-0.722046,0.625732,484
32348570,10003,-0.326904,-0.723389,0.625610,488
32358587,10017,-0.328003,-0.725342,0.624634,485
32368578,9991,-0.327759,-0.724854,0.624878,478
32378594,10016,-0.326416,-0.724365,0.624756,490
32388575,9981,-0.327026,-0.723267,0.623535,483
32398575,10000,-0.327637,-0.722534,0.624390,487
32408566,9991,-0.327515,-0.722778,0.624756,498
32418575,10009,-0.327881,-0.723389,0.625854,501
32428588,10013,-0.326660,-0.723267,0.624512,501
32438570,9982,-0.326538,-0.723511,0.625610,514
32448588,10018,-0.327026,-0.723267,0.626221,521
32458580,9992,-0.327026,-0.724487,0.625122,529
32468591,10011,-0.326416,-0.724243,0.625732,532
32478572,9981,-0.326904,-0.724609,0.624268,539
32488594,10022,-0.327148,-0.723633,0.625366,541
32498609,10015,-0.326050,-0.722290,0.624878,543
32508567,9958,-0.326416,-0.722900,0.625732,543
32518570,10003,-0.326904,-0.723022,0.625854,548
32528571,10001,-0.327393,-0.723755,0.626587,547
32538591,10020,-0.327148,-0.723389,0.626221,547
32548583,9992,-0.326416,-0.723389,0.625488,544
32558580,9997,-0.326904,-0.723877,0.625610,543
32568588,10008,-0.327393,-0.723511,0.626099,539
32578568,9980,-0.327026,-0.723389,0.627075,539
32588575,10007,-0.327759,-0.723145,0.625488,537
32598575,10000,-0.327026,-0.723633,0.625977,536
32608581,10006,-0.326050,-0.723511,0.626709,532
32618568,9987,-0.326050,-0.723389,0.626343,534
32628569,10001,-0.327148,-0.724243,0.626465,532
32638579,10010,-0.327026,-0.723755,0.655640,528
32648594,10015,-0.328369,-0.723145,0.625977,530
32658582,9988,-0.327148,-0.723511,0.625732,529
32668586,10004,-0.326050,-0.722778,0.626099,526
32678584,9998,-0.327026,-0.721191,0.625610,524
32688567,9983,-0.325562,-0.721069,0.624756,522
32698577,10010,-0.327881,-0.723633,0.625977,520
32708594,10017,-0.326538,-0.724609,0.628296,517
32718586,9992,-0.327637,-0.724976,0.628296,511
32728576,9990,-0.325684,-0.723267,0.627563,509
32738566,9990,-0.327271,-0.722290,0.625977,508
32748581,10015,-0.325928,-0.722900,0.626343,508
32758575,9994,-0.327271,-0.722290,0.624512,503
32768568,9993,-0.328003,-0.721924,0.625977,505
32778582,10014,-0.327881,-0.721191,0.627930,507
32788591,10009,-0.325928,-0.723755,0.628418,506
32798593,10002,-0.325928,-0.723999,0.628174,505
32808591,9998,-0.326904,-0.723511,0.626953,503
32818587,9996,-0.327515,-0.723145,0.625000,502
32828578,9991,-0.326416,-0.723267,0.624756,499
32838570,9992,-0.326904,-0.722290,0.625000,497
32848579,10009,-0.325928,-0.722412,0.624512,504
32858594,10015,-0.328125,-0.722412,0.628296,503
32868569,9975,-0.329102,-0.722534,0.628540,502
32878590,10021,-0.328003,-0.723877,0.629395,499
32888585,9995,-0.327271,-0.724976,0.627319,497
32898566,9981,-0.326904,-0.724365,0.626465,497
32908574,10008,-0.323608,-0.723511,0.623291,489
32918594,10020,-0.325317,-0.722534,0.622925,495
32928577,9983,-0.326538,-0.721924,0.623901,492
32938578,10001,-0.326538,-0.721313,0.625244,494
32948590,10012,-0.328125,-0.721802,0.626099,494
32958572,9982,-0.326172,-0.723267,0.627930,496
32968569,9997,-0.327026,-0.723511,0.626343,496
32978595,10026,-0.326416,-0.723145,0.627075,493
32988584,9989,-0.326782,-0.723511,0.626709,489
32998589,10005,-0.327148,-0.723145,0.624390,496
33008570,9981,-0.331299,-0.726562,0.629883,490
33018571,10001,-0.324951,-0.724487,0.625732,489
33028576,10005,-0.324951,-0.722290,0.624146,487
33038582,10006,-0.324707,-0.721802,0.623413,486
33048576,9994,-0.326416,-0.722534,0.624634,487
33058579,10003,-0.325562,-0.723022,0.625610,492
33068570,9991,-0.327759,-0.723877,0.625732,477
33078590,10020,-0.328857,-0.723633,0.626709,493
33088572,9982,-0.327637,-0.723755,0.625610,488
33098574,10002,-0.325439,-0.725098,0.626465,485
33108611,10037,-0.326538,-0.724365,0.625977,490
33118582,9971,-0.325806,-0.722290,0.624512,485
33128574,9992,-0.324951,-0.723389,0.625122,487
33138593,10019,-0.323975,-0.724487,0.626465,487
33148589,9996,-0.329956,-0.727783,0.627075,480
33158586,9997,-0.328613,-0.725830,0.627319,487
33168582,9996,-0.327393,-0.723999,0.623291,485
33178582,10000,-0.324463,-0.722046,0.626831,484
33188608,10026,-0.324829,-0.723389,0.625732,484
33198582,9974,-0.326172,-0.723877,0.626221,488
33208571,9989,-0.326660,-0.723877,0.624268,484
33218578,10007,-0.327881,-0.723633,0.623291,485
33228569,9991,-0.327515,-0.724731,0.623535,485
33238589,10020,-0.325684,-0.725830,0.625122,485
33248610,10021,-0.325562,-0.723755,0.625488,479
33258577,9967,-0.325439,-0.722778,0.625488,484
33268591,10014,-0.325928,-0.721558,0.625854,479
33278577,9986,-0.326050,-0.722900,0.625610,485
33288569,9992,-0.325562,-0.725952,0.627686,480
33298577,10008,-0.327393,-0.726196,0.626221,487
33308585,10008,-0.325562,-0.724487,0.625488,485
33318592,10007,-0.326904,-0.723633,0.624878,488
33328585,9993,-0.326050,-0.724243,0.625854,488
33338582,9997,-0.326416,-0.724121,0.625488,486
33348569,9987,-0.325073,-0.723633,0.625610,495
33358593,10024,-0.325439,-0.723755,0.625488,500
33368579,9986,-0.325439,-0.723267,0.625122,504
33378617,10038,-0.326294,-0.723877,0.624756,508
33388590,9973,-0.325562,-0.723755,0.624512,511
33398572,9982,-0.325562,-0.722290,0.624878,523
33408586,10014,-0.324951,-0.722168,0.625610,522
33418592,10006,-0.324585,-0.724365,0.627686,529
33428589,9997,-0.325562,-0.725708,0.627563,537
33438576,9987,-0.326782,-0.726074,0.626831,531
33448581,10005,-0.326294,-0.723389,0.625732,539
33458567,9986,-0.325684,-0.722412,0.624512,542
33468587,10020,-0.325806,-0.723145,0.625122,542
33478574,9987,-0.325317,-0.723389,0.625366,550
33488584,10010,-0.324707,-0.723999,0.625854,539
33498568,9984,-0.326172,-0.725586,0.625977,538
33508576,10008,-0.325562,-0.725098,0.625488,532
33518587,10011,-0.324707,-0.725220,0.623047,535
33528589,10002,-0.325195,-0.724854,0.624512,531
33538570,9981,-0.325073,-0.723633,0.624146,525
33548579,10009,-0.325439,-0.723633,0.624512,525
33558587,10008,-0.325439,-0.723389,0.625610,528
33568582,9995,-0.325928,-0.723877,0.625366,524
33578584,10002,-0.325562,-0.724121,0.626709,526
33588572,9988,-0.325317,-0.724731,0.626953,523
33598577,10005,-0.324951,-0.723999,0.627075,523
33608578,10001,-0.325439,-0.723877,0.626709,522
33618575,9997,-0.324585,-0.723511,0.628052,522
33628569,9994,-0.325439,-0.723145,0.626465,517
33638569,10000,-0.325439,-0.724365,0.626831,516
33648572,10003,-0.324829,-0.723511,0.626709,517
33658601,10029,-0.325684,-0.723511,0.626465,509
33668592,9991,-0.325928,-0.724976,0.626221,516
33678577,9985,-0.325195,-0.724487,0.625122,511
33688590,10013,-0.325195,-0.724854,0.623779,509
33698577,9987,-0.325317,-0.724121,0.624146,506
33708590,10013,-0.324951,-0.723877,0.624512,507
33718585,9995,-0.326172,-0.724854,0.625000,505
33728588,10003,-0.324951,-0.723755,0.625977,507
33738598,10010,-0.325562,-0.723389,0.626221,505
33748575,9977,-0.325562,-0.724365,0.625610,505
33758588,10013,-0.325928,-0.723022,0.625366,504
33768576,9988,-0.325439,-0.724487,0.627441,506
33778592,10016,-0.325806,-0.725708,0.626343,500
33788587,9995,-0.324951,-0.724854,0.623901,500
33798591,10004,-0.325195,-0.724976,0.623169,503
33808570,9979,-0.325195,-0.725586,0.623291,500
33818575,10005,-0.324707,-0.725342,0.624268,500
33828594,10019,-0.325562,-0.723877,0.623657,499
33838575,9981,-0.325195,-0.723022,0.625488,498
33848572,9997,-0.325317,-0.722778,0.626343,497
33858587,10015,-0.325439,-0.723633,0.625610,499
33868589,10002,-0.325806,-0.723877,0.625366,491
33878588,9999,-0.326294,-0.725464,0.627075,491
33888585,9997,-0.325806,-0.724731,0.626343,494
33898584,9999,-0.325073,-0.723999,0.625732,485
33908586,10002,-0.324219,-0.724121,0.625977,494
33918593,10007,-0.324707,-0.725098,0.626221,494
33928595,10002,-0.324097,-0.722656,0.621338,492
33938581,9986,-0.326660,-0.723877,0.626221,490
33948565,9984,-0.325806,-0.723999,0.624756,492
33958580,10015,-0.324707,-0.724609,0.625854,492
33968592,10012,-0.324951,-0.723022,0.626099,495
33978579,9987,-0.325073,-0.723389,0.624756,493
33988581,10002,-0.325195,-0.724121,0.625366,493
33998585,10004,-0.325806,-0.724487,0.625488,488
34008567,9982,-0.327881,-0.724243,0.625854,492
34018585,10018,-0.325806,-0.725220,0.626465,491
34028575,9990,-0.326050,-0.725098,0.623657,488
34038591,10016,-0.325073,-0.726318,0.623901,490
34048590,9999,-0.325928,-0.724487,0.623169,489
34058594,10004,-0.325562,-0.723999,0.624146,492
34068591,9997,-0.326538,-0.723267,0.623657,487
34078589,9998,-0.326172,-0.724243,0.624878,485
34088582,9993,-0.324951,-0.724121,0.626099,489
34098578,9996,-0.325317,-0.723999,0.626099,490
34108588,10010,-0.326782,-0.723877,0.624878,490
34118571,9983,-0.325439,-0.723633,0.624756,490
34128577,10006,-0.326050,-0.723755,0.625488,489
34138591,10014,-0.326172,-0.725342,0.626587,490
34148583,9992,-0.325928,-0.724609,0.625366,493
34158582,9999,-0.326538,-0.724121,0.625854,492
34168589,10007,-0.325073,-0.724976,0.625732,495
34178590,10001,-0.324829,-0.725220,0.624390,498
34188575,9985,-0.325439,-0.725098,0.623779,499
34198586,10011,-0.326660,-0.722900,0.622925,510
34208591,10005,-0.323120,-0.720337,0.623169,514
34218592,10001,-0.326538,-0.724365,0.626343,519
34228573,9981,-0.328613,-0.726929,0.631348,524
34238568,9995,-0.328613,-0.729614,0.629517,527
34248566,9998,-0.326294,-0.727783,0.628174,533
34258576,10010,-0.322754,-0.720703,0.621826,535
34268573,9997,-0.322876,-0.720337,0.623413,537
34278607,10034,-0.325439,-0.723755,0.624023,537
34288566,9959,-0.326538,-0.723267,0.623047,538
34298571,10005,-0.327881,-0.722412,0.624146,536
34308574,10003,-0.325928,-0.724609,0.627075,528
34318579,10005,-0.325684,-0.726196,0.627563,534
34328579,10000,-0.325562,-0.726685,0.626953,533
34338595,10016,-0.325684,-0.723633,0.624634,526
34348584,9989,-0.326782,-0.720825,0.623779,525
34358591,10007,-0.326904,-0.725464,0.626831,520
34368571,9980,-0.325195,-0.726074,0.626709,526
34378576,10005,-0.325806,-0.725708,0.623901,520
34388578,10002,-0.324951,-0.723389,0.622925,520
34398586,10008,-0.324707,-0.723267,0.623779,522
34408570,9984,-0.326416,-0.722412,0.623657,510
34418569,9999,-0.326538,-0.723999,0.626831,515
34428580,10011,-0.325684,-0.724731,0.625732,507
34438566,9986,-0.328003,-0.723145,0.625732,497
34448594,10028,-0.328003,-0.724487,0.626099,512
34458583,9989,-0.327026,-0.724243,0.625000,508
34468606,10023,-0.324707,-0.724609,0.626587,507
34478570,9964,-0.325073,-0.723145,0.624878,509
34488568,9998,-0.325562,-0.722412,0.622559,504
34498578,10010,-0.325195,-0.721558,0.622925,508
34508578,10000,-0.325806,-0.723145,0.623413,509
34518578,10000,-0.327148,-0.724121,0.626831,505
34528570,9992,-0.327881,-0.724976,0.628296,509
34538570,10000,-0.326782,-0.723877,0.628418,503
34548593,10023,-0.325684,-0.723267,0.627808,509
34558579,9986,-0.325439,-0.723511,0.627075,510
34568592,10013,-0.325439,-0.723022,0.625977,509
34578583,9991,-0.326782,-0.724976,0.624878,501
34588583,10000,-0.327759,-0.723022,0.624756,505
34598577,9994,-0.325684,-0.722900,0.622803,504
34608610,10033,-0.326050,-0.722534,0.624878,498
34618568,9958,-0.327148,-0.724487,0.625122,495
34628589,10021,-0.328247,-0.723877,0.623779,493
34638577,9988,-0.328125,-0.724243,0.626343,498
34648586,10009,-0.327881,-0.725342,0.626709,493
34658590,10004,-0.327881,-0.726440,0.625854,497
34668587,9997,-0.326294,-0.726685,0.625610,496
34678586,9999,-0.325806,-0.725952,0.624756,492
34688602,10016,-0.328125,-0.723877,0.625610,494
34698569,9967,-0.326050,-0.722778,0.623779,497
34708594,10025,-0.326904,-0.722534,0.625366,493
34718593,9999,-0.326294,-0.723511,0.625854,495
34728581,9988,-0.326904,-0.723877,0.625244,521
34738584,10003,-0.327271,-0.724487,0.625000,494
34748574,9990,-0.326904,-0.724609,0.625488,486
34758576,10002,-0.325806,-0.724121,0.625366,491
34768577,10001,-0.326050,-0.723633,0.623169,494
34778574,9997,-0.326782,-0.723267,0.623291,487
34788590,10016,-0.326416,-0.724121,0.624756,495
34798577,9987,-0.326660,-0.724487,0.624634,494
34808565,9988,-0.326660,-0.723022,0.624634,497
34818584,10019,-0.327148,-0.723145,0.626099,496
34828593,10009,-0.327515,-0.723267,0.627930,495
34838583,9990,-0.325562,-0.723145,0.627686,490
34848587,10004,-0.326538,-0.722900,0.624512,497
34858594,10007,-0.331299,-0.728271,0.631958,492
34868594,10000,-0.332153,-0.731445,0.633545,499
34878573,9979,-0.326294,-0.725830,0.624878,492
34888594,10021,-0.323364,-0.719360,0.619019,489
34898568,9974,-0.325195,-0.722534,0.626953,482
34908587,10019,-0.324951,-0.727661,0.626221,483
34918585,9998,-0.328735,-0.726440,0.623413,488
34928565,9980,-0.328369,-0.722290,0.623047,483
34938592,10027,-0.329712,-0.719116,0.625977,484
34948571,9979,-0.326538,-0.723999,0.628418,496
34958571,10000,-0.324219,-0.728394,0.626343,501
34968597,10026,-0.325928,-0.718994,0.624146,500
34978565,9968,-0.326538,-0.715576,0.621704,512
34988590,10025,-0.326782,-0.719604,0.621582,516
34998592,10002,-0.327637,-0.726929,0.626465,516
35008577,9985,-0.327881,-0.726196,0.625732,519
35018573,9996,-0.328125,-0.722778,0.623657,525
35028594,10021,-0.327026,-0.721436,0.624634,530
35038585,9991,-0.326172,-0.724365,0.626465,535
35048568,9983,-0.325806,-0.725586,0.626953,533
35058574,10006,-0.325928,-0.723022,0.625000,532
35068593,10019,-0.327637,-0.721069,0.624390,536
35078586,9993,-0.326050,-0.721069,0.624268,534
35088582,9996,-0.327148,-0.724609,0.625244,534
35098573,9991,-0.326782,-0.725342,0.627075,538
35108583,10010,-0.327515,-0.724609,0.626099,533
35118582,9999,-0.326538,-0.721558,0.623413,535
35128580,9998,-0.327759,-0.723022,0.624878,534
35138581,10001,-0.326050,-0.723267,0.624512,532
35148573,9992,-0.327393,-0.724609,0.626343,531
35158575,10002,-0.326782,-0.724365,0.625732,532
35168593,10018,-0.326416,-0.722900,0.622681,521
35178586,9993,-0.324707,-0.721680,0.623047,525
35188574,9988,-0.325195,-0.721558,0.623413,520
35198589,10015,-0.325806,-0.722412,0.626831,521
35208590,10001,-0.326050,-0.722656,0.627808,522
35218583,9993,-0.326904,-0.722656,0.624390,521
35228594,10011,-0.325684,-0.721680,0.624268,520
35238565,9971,-0.323853,-0.720947,0.623657,511
35248579,10014,-0.323486,-0.723145,0.622559,516
35258594,10015,-0.325439,-0.723633,0.622437,516
35268583,9989,-0.329956,-0.727417,0.627075,515
35278586,10003,-0.333008,-0.731445,0.631592,506
35288570,9984,-0.331787,-0.729736,0.630371,505
35298590,10020,-0.328125,-0.726440,0.628418,502
35308581,9991,-0.323975,-0.721436,0.625122,512
35318595,10014,-0.321899,-0.719116,0.622681,503
35328565,9970,-0.326050,-0.720337,0.622070,510
35338583,10018,-0.328003,-0.720459,0.623413,512
35348577,9994,-0.329102,-0.723633,0.625732,504
35358588,10011,-0.329102,-0.726196,0.628174,510
35368580,9992,-0.327515,-0.727661,0.627686,510
35378591,10011,-0.325195,-0.725952,0.624146,512
35388587,9996,-0.324829,-0.720581,0.622070,509
35399213,10626,-0.325928,-0.720215,0.623047,505
35408577,9364,-0.327515,-0.721558,0.625610,501
35418586,10009,-0.327393,-0.725098,0.625488,501
35428569,9983,-0.325317,-0.727417,0.626465,504
35438575,10006,-0.324951,-0.725342,0.624756,505
35448574,9999,-0.325806,-0.725464,0.623413,501
35458571,9997,-0.326782,-0.724609,0.623657,497
35468570,9999,-0.327515,-0.723755,0.626465,499
35478588,10018,-0.328613,-0.722778,0.628784,498
35488578,9990,-0.333618,-0.721802,0.625488,495
35498579,10001,-0.330078,-0.724121,0.629150,491
35508584,10005,-0.328247,-0.724487,0.628174,499
35518571,9987,-0.326294,-0.725464,0.626343,498
35528576,10005,-0.324707,-0.724121,0.624390,490
35538578,10002,-0.324219,-0.722900,0.621704,490
35548569,9991,-0.324707,-0.723145,0.622070,496
35558576,10007,-0.326172,-0.724365,0.620972,495
35568592,10016,-0.328613,-0.724731,0.623291,498
35578584,9992,-0.330811,-0.724609,0.626465,496
35588586,10002,-0.329590,-0.724854,0.626709,492
35598578,9992,-0.325684,-0.725464,0.628540,494
35608589,10011,-0.325928,-0.723877,0.627319,499
35618591,10002,-0.327271,-0.723389,0.625854,501
35628573,9982,-0.327881,-0.725342,0.625610,499
35638568,9995,-0.327148,-0.729126,0.624512,506
35648593,10025,-0.326294,-0.719971,0.623413,503
35658574,9981,-0.324829,-0.718994,0.624878,509
35668590,10016,-0.324341,-0.718994,0.625244,511
35678570,9980,-0.324707,-0.717529,0.623535,510
35688583,10013,-0.325195,-0.717651,0.622314,509
35698590,10007,-0.323730,-0.722168,0.621216,508
35708588,9998,-0.330200,-0.731934,0.630005,497
35718575,9987,-0.329468,-0.730103,0.624268,505
35728610,10035,-0.329102,-0.725830,0.621704,501
35738586,9976,-0.327515,-0.723633,0.624878,501
35748572,9986,-0.327515,-0.723999,0.625610,500
35758590,10018,-0.326904,-0.724731,0.624634,506
35768574,9984,-0.327637,-0.720093,0.622314,504
35778584,10010,-0.327148,-0.718628,0.623047,516
35788575,9991,-0.326416,-0.721191,0.624146,522
35798592,10017,-0.325562,-0.726196,0.626831,523
35808573,9981,-0.326660,-0.728760,0.625732,531
35818583,10010,-0.328125,-0.720825,0.623291,533
35828577,9994,-0.328125,-0.720581,0.623047,539
35838580,10003,-0.328125,-0.723145,0.625488,539
35848574,9994,-0.327026,-0.725952,0.626953,540
35858590,10016,-0.327881,-0.725098,0.625610,537
35868592,10002,-0.328125,-0.723877,0.623291,537
35878565,9973,-0.327637,-0.724487,0.623657,537
35888578,10013,-0.325806,-0.725220,0.624023,538
35898569,9991,-0.325684,-0.724121,0.623535,537
35908577,10008,-0.326660,-0.723755,0.623657,535
35918569,9992,-0.328247,-0.721558,0.624634,536
35928589,10020,-0.328613,-0.723022,0.625977,535
35938589,10000,-0.329102,-0.722168,0.626099,532
35948589,10000,-0.326538,-0.725342,0.628906,531
35958593,10004,-0.324463,-0.724854,0.628052,532
35968579,9986,-0.329224,-0.724121,0.594238,532
35978578,9999,-0.327881,-0.722656,0.623047,528
35988569,9991,-0.325439,-0.722412,0.622925,521
35998621,10052,-0.325806,-0.723755,0.625610,519
36008577,9956,-0.327515,-0.724487,0.625610,523
36018565,9988,-0.328491,-0.724731,0.626709,516
36028583,10018,-0.328491,-0.724121,0.625488,520
36038572,9989,-0.328125,-0.724731,0.626221,512
36048570,9998,-0.326172,-0.724976,0.625610,513
36058582,10012,-0.325562,-0.723755,0.625732,514
36068581,9999,-0.326782,-0.721924,0.623657,513
36078586,10005,-0.328003,-0.723022,0.625732,514
36089794,11208,-0.326904,-0.723633,0.625977,512
36098569,8775,-0.327026,-0.724609,0.624512,513
36108590,10021,-0.327393,-0.724243,0.624756,510
36118573,9983,-0.327393,-0.724121,0.624268,517
36128571,9998,-0.328125,-0.723999,0.625854,509
36138568,9997,-0.327393,-0.722046,0.623901,509
36148572,10004,-0.326660,-0.722412,0.624268,505
36158581,10009,-0.325806,-0.723389,0.625732,510
36168588,10007,-0.327393,-0.722778,0.624756,505
36178579,9991,-0.328247,-0.723999,0.625488,509
36188566,9987,-0.328125,-0.725342,0.626709,507
36198594,10028,-0.327393,-0.725342,0.625977,507
36208589,9995,-0.327637,-0.725952,0.625244,507
36218601,10012,-0.326782,-0.724121,0.624756,505
36228580,9979,-0.327271,-0.723999,0.624390,505
36238580,10000,-0.326538,-0.723389,0.624390,505
36248583,10003,-0.328125,-0.722534,0.624512,504
36258589,10006,-0.327515,-0.723389,0.625977,498
36268571,9982,-0.328003,-0.723511,0.626099,504
36278586,10015,-0.327881,-0.724609,0.627808,501
36288565,9979,-0.327271,-0.725220,0.626465,501
36298572,10007,-0.326782,-0.723511,0.625732,501
36308593,10021,-0.326538,-0.723145,0.625366,496
36318577,9984,-0.327637,-0.722534,0.624512,493
36328587,10010,-0.327759,-0.722656,0.624390,499
36338568,9981,-0.326782,-0.723511,0.625122,489
36348579,10011,-0.326782,-0.724365,0.625122,497
36358592,10013,-0.326416,-0.725464,0.624390,497
36368579,9987,-0.327881,-0.726196,0.623779,496
36378574,9995,-0.327515,-0.724854,0.625366,489
36388579,10005,-0.327271,-0.724487,0.626465,495
36398569,9990,-0.327515,-0.723389,0.623535,491
36408572,10003,-0.325684,-0.721680,0.624512,488
36418593,10021,-0.325928,-0.722778,0.624634,494
36428576,9983,-0.328003,-0.724365,0.627075,496
36438578,10002,-0.328857,-0.724731,0.626831,494
36448572,9994,-0.328979,-0.724609,0.626587,488
36458586,10014,-0.326782,-0.724121,0.624634,496
36468574,9988,-0.325562,-0.723022,0.622803,487
36478567,9993,-0.326782,-0.723755,0.624878,494
36488586,10019,-0.327148,-0.722900,0.624146,493
36498576,9990,-0.327515,-0.723389,0.623535,494
36508568,9992,-0.327271,-0.723633,0.623779,492
36518593,10025,-0.327881,-0.725220,0.624268,494
36528584,9991,-0.327271,-0.725708,0.626221,495
36538581,9997,-0.328125,-0.724976,0.625977,496
36548595,10014,-0.327393,-0.724365,0.625122,489
36558580,9985,-0.327393,-0.724365,0.625122,497
36568591,10011,-0.326416,-0.723145,0.625244,498
36578590,9999,-0.327515,-0.723755,0.625488,503
36588590,10000,-0.327026,-0.724365,0.626587,503
36598568,9978,-0.328003,-0.723389,0.625244,514
36608565,9997,-0.328857,-0.723755,0.625122,517
36618571,10006,-0.327271,-0.723755,0.624878,519
36628596,10025,-0.326660,-0.724121,0.626343,532
36638592,9996,-0.326294,-0.723877,0.624634,536
36648569,9977,-0.326904,-0.724243,0.623535,536
36658583,10014,-0.328247,-0.723633,0.624023,542
36668568,9985,-0.325439,-0.718994,0.620239,541
36678613,10045,-0.326782,-0.722168,0.621948,543
36688572,9959,-0.332520,-0.726807,0.629639,545
36698584,10012,-0.333374,-0.732788,0.632202,548
36708581,9997,-0.331665,-0.731567,0.628784,538
36718573,9992,-0.328857,-0.726807,0.625610,540
36728582,10009,-0.324463,-0.719604,0.625122,543
36738579,9997,-0.322388,-0.721191,0.623169,545
36748565,9986,-0.329102,-0.719482,0.619263,544
36758592,10027,-0.328613,-0.722412,0.625488,536
36768567,9975,-0.328003,-0.718628,0.623901,539
36778590,10023,-0.328369,-0.728149,0.629272,539
36788571,9981,-0.327515,-0.729492,0.627808,530
36798581,10010,-0.323853,-0.722900,0.625610,541
36808576,9995,-0.324341,-0.719238,0.619019,530
36818585,10009,-0.325073,-0.718994,0.618530,528
36828586,10001,-0.325562,-0.720703,0.625610,528
36838590,10004,-0.329224,-0.725342,0.626587,522
36848567,9977,-0.328125,-0.726685,0.625977,521
36858572,10005,-0.326782,-0.724609,0.624756,521
36868569,9997,-0.326660,-0.725586,0.624268,511
36878584,10015,-0.327637,-0.725098,0.625854,513
36888588,10004,-0.328735,-0.724854,0.626587,514
36898581,9993,-0.328003,-0.723267,0.628052,512
36908575,9994,-0.329102,-0.723389,0.626343,517
36918567,9992,-0.327759,-0.723145,0.625610,509
36928591,10024,-0.325562,-0.724243,0.624512,518
36938587,9996,-0.327393,-0.723511,0.626099,516
36948571,9984,-0.327759,-0.721558,0.623901,515
36958581,10010,-0.327881,-0.721191,0.624023,512
36968574,9993,-0.326050,-0.721436,0.624512,513
36978579,10005,-0.326172,-0.722778,0.623291,491
36988585,10006,-0.327026,-0.724365,0.656128,507
36998565,9980,-0.326660,-0.726440,0.625000,502
37008578,10013,-0.329346,-0.726318,0.627441,503
37018587,10009,-0.330811,-0.726318,0.626831,504
37028566,9979,-0.328491,-0.726074,0.625977,502
37038606,10040,-0.327026,-0.725830,0.625244,502
37048571,9965,-0.326904,-0.720947,0.622925,499
37058570,9999,-0.327515,-0.721558,0.623047,504
37068572,10002,-0.327881,-0.723145,0.625000,503
37078568,9996,-0.327515,-0.724609,0.625244,504
37088622,10054,-0.326904,-0.724243,0.625488,498
37098576,9954,-0.325562,-0.724609,0.625488,497
37108579,10003,-0.326904,-0.724487,0.624268,502
37118568,9989,-0.327393,-0.725098,0.625000,501
37128566,9998,-0.328003,-0.724243,0.623535,498
37138592,10026,-0.327148,-0.723633,0.623169,489
37148586,9994,-0.327637,-0.724731,0.626099,492
37158569,9983,-0.327393,-0.724976,0.625000,492
37168582,10013,-0.326416,-0.723511,0.624390,490
37178591,10009,-0.326172,-0.723389,0.624023,496
37188580,9989,-0.326416,-0.723267,0.624146,496
37198567,9987,-0.326416,-0.724487,0.624146,497
37208594,10027,-0.325684,-0.723999,0.625854,492
37218593,9999,-0.325073,-0.723999,0.626099,496
37228600,10007,-0.326416,-0.724121,0.625610,496
37238581,9981,-0.326416,-0.725220,0.625977,496
37248588,10007,-0.326660,-0.726074,0.623901,495
37258574,9986,-0.326538,-0.724121,0.624390,492
37268582,10008,-0.326172,-0.724731,0.625000,496
37278591,10009,-0.326172,-0.724976,0.624023,496
37288577,9986,-0.326050,-0.724121,0.622192,495
37298578,10001,-0.325562,-0.723145,0.622803,493
37308590,10012,-0.326660,-0.723022,0.623779,488
37318584,9994,-0.326782,-0.725586,0.628174,493
37328578,9994,-0.326782,-0.725464,0.627319,492
37338573,9995,-0.325684,-0.723877,0.625732,494
37348566,9993,-0.322876,-0.721558,0.621216,495
37358566,10000,-0.326172,-0.725830,0.623291,496
37368586,10020,-0.329468,-0.727661,0.624268,496
37378569,9983,-0.326172,-0.723633,0.620117,496
37388574,10005,-0.324463,-0.719727,0.621094,496
37398570,9996,-0.324951,-0.723022,0.624878,500
37408593,10023,-0.326660,-0.725952,0.627808,498
37418579,9986,-0.327148,-0.729004,0.623657,524
37428587,10008,-0.327271,-0.721680,0.623535,515
37438577,9990,-0.325317,-0.720093,0.623779,519
37448600,10023,-0.323486,-0.725220,0.625244,523
37458577,9977,-0.322876,-0.728027,0.625366,531
37468571,9994,-0.324463,-0.723877,0.623413,536
37478588,10017,-0.326782,-0.719849,0.622437,543
37488573,9985,-0.328247,-0.726074,0.626587,547
37498600,10027,-0.327148,-0.729736,0.629028,543
37508581,9981,-0.328003,-0.730103,0.629272,545
37518582,10001,-0.328125,-0.728271,0.627686,552
37529101,10519,-0.325928,-0.725342,0.625854,550
37538585,9484,-0.325439,-0.723999,0.625488,545
37548586,10001,-0.323853,-0.723267,0.625488,546
37558588,10002,-0.323120,-0.722168,0.624634,539
37568595,10007,-0.324097,-0.721924,0.623535,543
37578604,10009,-0.325562,-0.721802,0.622437,538
37588573,9969,-0.325562,-0.724731,0.624878,536
37598581,10008,-0.323975,-0.724854,0.623901,535
37608584,10003,-0.325439,-0.724243,0.624878,534
37618565,9981,-0.325928,-0.725098,0.624756,526
37628594,10029,-0.326782,-0.724609,0.624756,525
37638589,9995,-0.325684,-0.724121,0.624512,530
37648588,9999,-0.326050,-0.725098,0.626465,529
37658582,9994,-0.327515,-0.725586,0.626343,522
37668579,9997,-0.326050,-0.725708,0.626587,519
37678594,10015,-0.324219,-0.724487,0.626587,518
37688575,9981,-0.325073,-0.723389,0.625244,521
37698587,10012,-0.325317,-0.723267,0.625488,520
37708588,10001,-0.325806,-0.723999,0.624878,513
37718586,9998,-0.326416,-0.724731,0.625854,514
37728569,9983,-0.326416,-0.723999,0.626343,514
37738585,10016,-0.327148,-0.724609,0.625977,515
37748576,9991,-0.325439,-0.725708,0.625854,514
37758587,10011,-0.325806,-0.725708,0.624634,513
37768578,9991,-0.325806,-0.724243,0.624756,512
37778617,10039,-0.325684,-0.724243,0.624512,510
37788591,9974,-0.324829,-0.724243,0.624756,504
37798581,9990,-0.324219,-0.723999,0.624756,511
37808574,9993,-0.326050,-0.724121,0.624756,510
37818573,9999,-0.325317,-0.724487,0.623779,505
37828590,10017,-0.326782,-0.724365,0.624756,502
37838591,10001,-0.327026,-0.724243,0.625610,508
37848582,9991,-0.324951,-0.724243,0.624390,510
37858576,9994,-0.324829,-0.723511,0.624390,501
37868572,9996,-0.325195,-0.723877,0.623779,505
37878582,10010,-0.325195,-0.724121,0.624634,504
37888587,10005,-0.325806,-0.724609,0.626587,499
37898567,9980,-0.325684,-0.725586,0.625488,500
37908590,10023,-0.326538,-0.725830,0.626221,493
37918593,10003,-0.325073,-0.724976,0.623657,494
37937483,18890,-0.325195,-0.725098,0.625732,497
37945120,7637,-0.326660,-0.724365,0.625977,500
37951059,5939,-0.326294,-0.725586,0.625610,494
37958593,7534,0.000000,0.000000,0.000000,499
37968580,9987,-0.324463,-0.724243,0.624756,498
37978588,10008,-0.324951,-0.724487,0.623047,497
37988611,10023,-0.324585,-0.724976,0.625000,499
37998592,9981,-0.327393,-0.725464,0.624878,499
38008569,9977,-0.326172,-0.725098,0.623901,491
38018576,10007,-0.326416,-0.725098,0.623413,494
38028583,10007,-0.325439,-0.726440,0.625732,498
38038616,10033,-0.325684,-0.725830,0.624756,494
38048572,9956,-0.325195,-0.727417,0.626587,498
38058584,10012,-0.325073,-0.725830,0.625732,497
38068585,10001,-0.324829,-0.725098,0.625000,497
38078575,9990,-0.325684,-0.724854,0.625977,498
38088578,10003,-0.326294,-0.725708,0.624634,495
38098568,9990,-0.326416,-0.724243,0.624512,490
38108579,10011,-0.325928,-0.723511,0.624023,496
38118569,9990,-0.325195,-0.723999,0.624878,495
38128587,10018,-0.325562,-0.725342,0.625854,497
38138591,10004,-0.325439,-0.727173,0.626221,498
38148593,10002,-0.326172,-0.725952,0.625244,502
38158586,9993,-0.326416,-0.725464,0.623413,505
38168594,10008,-0.325195,-0.724731,0.622803,507
38178572,9978,-0.325195,-0.724976,0.623535,512
38188581,10009,-0.325195,-0.725220,0.622803,519
38198570,9989,-0.326660,-0.723389,0.622070,525
38208587,10017,-0.326782,-0.723633,0.623047,532
38218584,9997,-0.326416,-0.723999,0.625732,534
38228570,9986,-0.326050,-0.727783,0.628296,539
38238589,10019,-0.325439,-0.727295,0.627197,534
38248568,9979,-0.325073,-0.725830,0.626099,541
38258590,10022,-0.324341,-0.724976,0.623291,542
38268593,10003,-0.325317,-0.724609,0.622437,540
38278582,9989,-0.324829,-0.724365,0.622803,535
38288566,9984,-0.325684,-0.724854,0.624512,539
38298620,10054,-0.327393,-0.724121,0.624390,538
38308580,9960,-0.325806,-0.724243,0.625244,538
38318574,9994,-0.326172,-0.724731,0.625366,537
38328827,10253,-0.326660,-0.725098,0.625977,536
38338565,9738,-0.325439,-0.724731,0.625122,527
38348593,10028,-0.325806,-0.724487,0.623901,525
38358579,9986,-0.325928,-0.724609,0.623535,528
38368571,9992,-0.326050,-0.725464,0.621704,527
38378583,10012,-0.325317,-0.726196,0.624023,526
38388586,10003,-0.324951,-0.724487,0.623291,523
38398593,10007,-0.325562,-0.724731,0.623413,518
38408577,9984,-0.326660,-0.723877,0.625732,519
38418567,9990,-0.326050,-0.724121,0.626343,512
38428590,10023,-0.325684,-0.724731,0.626709,518
38438593,10003,-0.324951,-0.724731,0.626099,513
38448584,9991,-0.326660,-0.725220,0.624878,516
38458595,10011,-0.326294,-0.724731,0.624634,512
38468577,9982,-0.325562,-0.725586,0.624023,514
38478585,10008,-0.325317,-0.726074,0.623291,512
38488579,9994,-0.325317,-0.725952,0.623901,512
38498571,9992,-0.325562,-0.723999,0.623657,508
38508572,10001,-0.328735,-0.723022,0.624023,509
38518570,9998,-0.327759,-0.724976,0.625366,508
38531416,12846,-0.327637,-0.725708,0.627197,512
38538582,7166,0.000000,0.000000,0.000000,503
38548593,10011,-0.325684,-0.723999,0.625366,509
38558582,9989,-0.324585,-0.723511,0.624023,510
38568587,10005,-0.325195,-0.724731,0.623291,509
38578582,9995,-0.325806,-0.725586,0.622314,505
38588592,10010,-0.327271,-0.726807,0.623047,507
38598581,9989,-0.326050,-0.726318,0.622192,504
38608576,9995,-0.325928,-0.725952,0.623047,502
38618588,10012,-0.325928,-0.726318,0.622803,501
38628593,10005,-0.326416,-0.725586,0.624756,497
38639384,10791,-0.327759,-0.724609,0.623779,499
38648585,9201,-0.327271,-0.725220,0.624878,498
38658568,9983,-0.325195,-0.723267,0.625732,497
38668575,10007,-0.326172,-0.723877,0.626465,496
38678581,10006,-0.326050,-0.723633,0.626587,499
38688573,9992,-0.326904,-0.723755,0.625732,499
38698608,10035,-0.326294,-0.723633,0.624756,502
38708578,9970,-0.327271,-0.724121,0.624512,501
38718566,9988,-0.327026,-0.724365,0.624268,496
38728573,10007,-0.327393,-0.726562,0.624146,498
38738571,9998,-0.327026,-0.725830,0.624023,493
38748591,10020,-0.327515,-0.726074,0.623047,491
38758587,9996,-0.327881,-0.724854,0.622437,494
38768591,10004,-0.327271,-0.724854,0.625977,488
38778575,9984,-0.326050,-0.724121,0.625244,495
38788578,10003,-0.326538,-0.725098,0.624756,496
38798579,10001,-0.327271,-0.723877,0.624268,492
38808573,9994,-0.328003,-0.724487,0.623779,496
38818581,10008,-0.327271,-0.726074,0.624512,494
38828595,10014,-0.327881,-0.725586,0.624268,497
38838565,9970,-0.327026,-0.725220,0.624390,496
38848569,10004,-0.326294,-0.726318,0.624146,497
38858566,9997,-0.326660,-0.725586,0.625000,498
38868591,10025,-0.325806,-0.725098,0.624268,497
38878573,9982,-0.327148,-0.724854,0.623291,503
38888593,10020,-0.327759,-0.724487,0.624146,513
38898594,10001,-0.328247,-0.725342,0.622803,513
38908601,10007,-0.327026,-0.724731,0.622070,522
38918567,9966,-0.327759,-0.724609,0.622803,532
38928582,10015,-0.326050,-0.724976,0.622925,535
38938595,10013,-0.326538,-0.727173,0.623657,536
38948580,9985,-0.328247,-0.727417,0.625000,545
38958578,9998,-0.328003,-0.727051,0.625000,543
38968568,9990,-0.328491,-0.725342,0.624512,552
38978572,10004,-0.326050,-0.723267,0.624634,549
38988566,9994,-0.325928,-0.723022,0.624023,548
38998567,10001,-0.326538,-0.723267,0.623535,548
39008579,10012,-0.326538,-0.724609,0.623169,545
39018574,9995,-0.327393,-0.724487,0.624756,542
39028566,9992,-0.328613,-0.726440,0.625488,537
39038582,10016,-0.327759,-0.726562,0.625488,547
39048592,10010,-0.327026,-0.726318,0.625244,538
39058581,9989,-0.326904,-0.724731,0.625488,532
39068584,10003,-0.327026,-0.724243,0.627319,535
39078583,9999,-0.327393,-0.723633,0.626099,531
39088574,9991,-0.325317,-0.723755,0.623291,531
39098571,9997,-0.326660,-0.723145,0.622559,524
39108566,9995,-0.326660,-0.723511,0.620117,525
39118588,10022,-0.327637,-0.723755,0.621704,516
39128581,9993,-0.326294,-0.723755,0.622437,519
39138572,9991,-0.330933,-0.723877,0.625610,519
39148586,10014,-0.327637,-0.729126,0.628540,516
39158591,10005,-0.325806,-0.726807,0.628174,512
39168582,9991,-0.328491,-0.727783,0.627319,510
39178610,10028,-0.326538,-0.725220,0.627197,510
39188576,9966,-0.327759,-0.723755,0.622681,506
39198593,10017,-0.325928,-0.722900,0.623901,512
39208584,9991,-0.326294,-0.723877,0.622437,511
39218575,9991,-0.327881,-0.723755,0.623169,513
39228577,10002,-0.328491,-0.724854,0.624390,512
39238579,10002,-0.328369,-0.724731,0.625122,508
39248569,9990,-0.328125,-0.728027,0.625610,506
39258572,10003,-0.326172,-0.727661,0.623779,510
39268572,10000,-0.326294,-0.726318,0.622437,506
39278590,10018,-0.327026,-0.724731,0.619629,504
39288586,9996,-0.327759,-0.725464,0.620361,504
39298588,10002,-0.327637,-0.726807,0.622803,505
39308590,10002,-0.327637,-0.725586,0.624268,500
39318571,9981,-0.327759,-0.724609,0.624756,506
39328591,10020,-0.327393,-0.724243,0.625366,507
39338584,9993,-0.326538,-0.723877,0.625488,505
39348568,9984,-0.326172,-0.725220,0.626099,507
39358588,10020,-0.327759,-0.725342,0.625854,506
39368569,9981,-0.327637,-0.724487,0.623291,499
39378573,10004,-0.327881,-0.725342,0.622803,505
39388580,10007,-0.327881,-0.724854,0.624146,504
39398591,10011,-0.327637,-0.725342,0.625000,498
39408593,10002,-0.326904,-0.725342,0.625000,493
39418587,9994,-0.328125,-0.724731,0.624023,500
39428567,9980,-0.327515,-0.724731,0.623535,499
39438589,10022,-0.327148,-0.725220,0.622192,497
39448593,10004,-0.326294,-0.724976,0.621216,499
39458566,9973,-0.328247,-0.724487,0.622925,500
39468588,10022,-0.328247,-0.724365,0.623291,488
39478590,10002,-0.328247,-0.724365,0.623535,500
39488569,9979,-0.328613,-0.725952,0.624512,498
39498567,9998,-0.327637,-0.726440,0.625488,496
39508594,10027,-0.329102,-0.727051,0.623779,492
39518570,9976,-0.328125,-0.725220,0.625366,497
39528566,9996,-0.326660,-0.724365,0.624268,497
39538590,10024,-0.326294,-0.723755,0.624390,490
39548574,9984,-0.325562,-0.722534,0.625122,494
39558568,9994,-0.327271,-0.723022,0.623047,492
39568580,10012,-0.328491,-0.724365,0.624512,496
39578588,10008,-0.328247,-0.724487,0.625366,498
39588572,9984,-0.328125,-0.726074,0.624878,491
39598591,10019,-0.328125,-0.727173,0.625000,497
39608569,9978,-0.328247,-0.728394,0.625488,499
39618591,10022,-0.327881,-0.726440,0.622437,500
39628584,9993,-0.325806,-0.724487,0.621948,504
39638582,9998,-0.326904,-0.722290,0.621338,513
39648581,9999,-0.325928,-0.721680,0.622925,521
39658586,10005,-0.325928,-0.722046,0.623047,525
39668570,9984,-0.326416,-0.722046,0.623169,534
39678585,10015,-0.328491,-0.723755,0.625854,538
39688575,9990,-0.329224,-0.725464,0.627808,538
39698579,10004,-0.330688,-0.726318,0.629395,546
39708579,10000,-0.328857,-0.727173,0.628174,546
39718585,10006,-0.326660,-0.725586,0.626099,548
39728570,9985,-0.326294,-0.723511,0.619629,549
39738584,10014,-0.327881,-0.723389,0.619995,547
39748591,10007,-0.327515,-0.722656,0.620850,546
39758569,9978,-0.328613,-0.720215,0.622437,544
39768583,10014,-0.328003,-0.723267,0.624023,543
39778575,9992,-0.328369,-0.724731,0.628418,544
39788585,10010,-0.327393,-0.726318,0.626343,538
39798587,10002,-0.328125,-0.725342,0.625732,539
39808584,9997,-0.330200,-0.724243,0.626343,534
39818582,9998,-0.330322,-0.725708,0.626221,536
39828573,9991,-0.328857,-0.725708,0.627197,537
39838572,9999,-0.326416,-0.723999,0.623413,534
39848570,9998,-0.325928,-0.721680,0.621704,525
39858584,10014,-0.324951,-0.724121,0.622192,523
39869388,10804,-0.325806,-0.724976,0.622925,521
39878601,9213,-0.326782,-0.724976,0.622803,520
39888577,9976,-0.329102,-0.723022,0.622803,523
39898576,9999,-0.328369,-0.725708,0.624878,517
39908583,10007,-0.328735,-0.726807,0.626831,520
39918568,9985,-0.328979,-0.725220,0.625977,514
39928603,10035,-0.329590,-0.724731,0.627197,516
39938570,9967,-0.328613,-0.724365,0.625854,513
39948583,10013,-0.327759,-0.725220,0.625122,510
39958594,10011,-0.326172,-0.725830,0.622925,511
39968572,9978,-0.323853,-0.724365,0.622314,510
39978577,10005,-0.325684,-0.724487,0.618774,511
39988584,10007,-0.329346,-0.725220,0.624634,511
39998570,9986,-0.328369,-0.726685,0.625732,510
40008572,10002,-0.328125,-0.724243,0.624146,511
40018566,9994,-0.327026,-0.722900,0.622559,503
40028594,10028,-0.327026,-0.723389,0.624756,510
40038568,9974,-0.325439,-0.724609,0.622559,512
40048576,10008,-0.326294,-0.725830,0.624756,506
40058591,10015,-0.328735,-0.724365,0.622070,507
40068578,9987,-0.328979,-0.725220,0.622437,508
40078582,10004,-0.329346,-0.726318,0.623047,509
40088589,10007,-0.329956,-0.728271,0.624023,507
40098583,9994,-0.328613,-0.727539,0.624023,505
40108591,10008,-0.328735,-0.726318,0.623413,504
40118586,9995,-0.328003,-0.726196,0.624390,503
40128591,10005,-0.328491,-0.725220,0.623657,504
40138594,10003,-0.326660,-0.726074,0.624268,504
40148592,9998,-0.325928,-0.726318,0.623657,503
40158585,9993,-0.328857,-0.722778,0.623901,503
40168586,10001,-0.328735,-0.723633,0.622314,509
40178569,9983,-0.327515,-0.723267,0.624023,507
40188571,10002,-0.327637,-0.723389,0.624756,507
40198595,10024,-0.327881,-0.723145,0.625122,505
40208579,9984,-0.327637,-0.723511,0.594116,507
40218605,10026,-0.328735,-0.724854,0.622437,505
40228568,9963,-0.329102,-0.725708,0.624512,506
40238569,10001,-0.328979,-0.726440,0.625732,497
40248581,10012,-0.328003,-0.727417,0.624634,504
40258588,10007,-0.328003,-0.727783,0.623047,503
40268571,9983,-0.328003,-0.724121,0.622437,505
40278580,10009,-0.327393,-0.723511,0.624390,504
40288572,9992,-0.328125,-0.723511,0.623901,505
40298588,10016,-0.327393,-0.723755,0.624878,503
40308581,9993,-0.328613,-0.724609,0.625000,502
40318580,9999,-0.328979,-0.723511,0.625244,499
40328567,9987,-0.328247,-0.724487,0.625488,501
40338590,10023,-0.328857,-0.726196,0.625732,502
40348621,10031,-0.329224,-0.725952,0.625366,500
40358585,9964,-0.328369,-0.725464,0.625366,498
40368583,9998,-0.328979,-0.724609,0.623169,497
40378593,10010,-0.328613,-0.724976,0.622681,497
40388565,9972,-0.328979,-0.723267,0.624390,496
40398565,10000,-0.327148,-0.725098,0.624634,492
40408588,10023,-0.328125,-0.723755,0.624390,497
40418586,9998,-0.328613,-0.724609,0.625488,504
40428592,10006,-0.328369,-0.724609,0.626343,510
40438589,9997,-0.327271,-0.723267,0.625610,514
40448601,10012,-0.327637,-0.723267,0.622803,520
40458589,9988,-0.327515,-0.721191,0.621582,524
40468588,9999,-0.326660,-0.721436,0.621338,525
40478577,9989,-0.328735,-0.722778,0.622681,531
40488578,10001,-0.324463,-0.724121,0.621582,539
40498591,10013,-0.328979,-0.724731,0.622192,537
40508593,10002,-0.330322,-0.726929,0.627197,537
40518570,9977,-0.331909,-0.728516,0.625977,546
40528571,10001,-0.330200,-0.727417,0.627563,548
40538586,10015,-0.325928,-0.723755,0.624390,544
40548571,9985,-0.328247,-0.722900,0.624634,549
40558591,10020,-0.328613,-0.723755,0.624023,543
40568571,9980,-0.328857,-0.726196,0.625854,549
40578571,10000,-0.330322,-0.724854,0.625732,550
40588590,10019,-0.329224,-0.724365,0.623779,544
40598577,9987,-0.328247,-0.724854,0.623169,541
40608595,10018,-0.327637,-0.726318,0.624512,539
40618568,9973,-0.327637,-0.724365,0.623291,544
40628588,10020,-0.328491,-0.723389,0.622070,536
40638580,9992,-0.328979,-0.723267,0.622559,535
40648580,10000,-0.327759,-0.723999,0.624634,536
40658586,10006,-0.328613,-0.725586,0.625488,533
40668585,9999,-0.328369,-0.725464,0.625366,534
40678586,10001,-0.321899,-0.717041,0.619873,535
40688576,9990,-0.323608,-0.719116,0.617187,533
40698568,9992,-0.333984,-0.734619,0.633057,531
40708583,10015,-0.330566,-0.728516,0.625000,528
40718582,9999,-0.324463,-0.720093,0.620239,519
40728594,10012,-0.325073,-0.717896,0.621948,518
40738586,9992,-0.326172,-0.720947,0.629395,518
40748587,10001,-0.327637,-0.730469,0.623047,519
40758570,9983,-0.330811,-0.724609,0.625122,516
40768568,9998,-0.328979,-0.718506,0.621948,512
40778588,10020,-0.324341,-0.723022,0.625488,514
40788578,9990,-0.326294,-0.729492,0.625977,513
40798570,9992,-0.327881,-0.730713,0.623169,514
40808578,10008,-0.331543,-0.713135,0.619873,514
40818590,10012,-0.329956,-0.719971,0.624634,513
40828571,9981,-0.327759,-0.726807,0.630371,506
40838592,10021,-0.328247,-0.729004,0.629272,513
40848580,9988,-0.328125,-0.726318,0.625488,503
40858589,10009,-0.330566,-0.721436,0.622681,502
40868586,9997,-0.329956,-0.727173,0.624878,508
40878572,9986,-0.328491,-0.727539,0.625366,505
40888577,10005,-0.328979,-0.726196,0.623169,501
40898585,10008,-0.327393,-0.722290,0.622925,499
40908618,10033,-0.328125,-0.723022,0.622803,503
40918572,9954,-0.328613,-0.724976,0.625366,502
40928577,10005,-0.329102,-0.724854,0.623413,501
40938593,10016,-0.329712,-0.725952,0.625610,500
40948576,9983,-0.328491,-0.724243,0.627319,494
40958577,10001,-0.327515,-0.722290,0.623535,502
40968580,10003,-0.328247,-0.723511,0.624634,494
40978588,10008,-0.327759,-0.723999,0.624756,495
40988565,9977,-0.328613,-0.724487,0.624512,498
40998567,10002,-0.328979,-0.725098,0.623779,499
41008589,10022,-0.328613,-0.724731,0.623901,499
41018573,9984,-0.328125,-0.724243,0.623291,496
41028585,10012,-0.328125,-0.724365,0.623657,497
41038590,10005,-0.326416,-0.724609,0.622314,495
41048574,9984,-0.328613,-0.723267,0.624023,495
41058571,9997,-0.328613,-0.724487,0.625610,496
41073157,14586,-0.328125,-0.726440,0.626099,498
41079134,5977,-0.327637,-0.725708,0.625122,496
41088569,9435,-0.327148,-0.724854,0.622681,500
41098571,10002,-0.328247,-0.723633,0.622437,493
41108575,10004,-0.328125,-0.724365,0.623535,500
41118589,10014,-0.328369,-0.723999,0.624390,499
41128575,9986,-0.329712,-0.724976,0.624512,500
41138571,9996,-0.329102,-0.724976,0.624390,498
41148586,10015,-0.327148,-0.723755,0.623291,491
41158572,9986,-0.327759,-0.725708,0.625366,495
41168568,9996,-0.328125,-0.725830,0.623413,494
41178599,10031,-0.328613,-0.725342,0.622803,496
41188590,9991,-0.328613,-0.725342,0.624512,490
41198571,9981,-0.327515,-0.725342,0.625122,498
41208571,10000,-0.327026,-0.724365,0.624634,493
41218595,10024,-0.328247,-0.724609,0.623779,500
41228568,9973,-0.328369,-0.724854,0.623901,497
41238569,10001,-0.329102,-0.723755,0.623535,497
41248585,10016,-0.327881,-0.725220,0.622559,493
41258583,9998,-0.327148,-0.725708,0.623657,498
41268594,10011,-0.328857,-0.726929,0.623291,497
41278587,9993,-0.328613,-0.726196,0.623657,498
41288566,9979,-0.328369,-0.724121,0.623779,493
41298573,10007,-0.327637,-0.725830,0.625122,499
41308575,10002,-0.328125,-0.725708,0.625122,502
41318577,10002,-0.328003,-0.725342,0.623413,509
41328590,10013,-0.327271,-0.723755,0.623291,507
41338589,9999,-0.327271,-0.724365,0.622437,511
41348569,9980,-0.327759,-0.724609,0.621460,517
41358567,9998,-0.327759,-0.726074,0.622314,533
41368579,10012,-0.328613,-0.725464,0.623535,535
41378595,10016,-0.328247,-0.725464,0.623169,537
41388581,9986,-0.328247,-0.725220,0.624268,544
41398566,9985,-0.327271,-0.725586,0.623779,543
41408592,10026,-0.328003,-0.724854,0.623901,547
41418573,9981,-0.327515,-0.724609,0.623291,549
41428575,10002,-0.328003,-0.725098,0.622437,549
41438613,10038,-0.326538,-0.725220,0.622314,548
41448584,9971,-0.326172,-0.725464,0.622681,546
41458591,10007,-0.326050,-0.724365,0.623047,541
41468578,9987,-0.326538,-0.724731,0.622803,546
41478567,9989,-0.327759,-0.725464,0.623657,541
41488883,10316,-0.328735,-0.725952,0.624268,538
41498577,9694,-0.327759,-0.726807,0.624634,541
41508587,10010,-0.327759,-0.725220,0.625244,542
41518582,9995,-0.327393,-0.726440,0.624878,538
41528569,9987,-0.326538,-0.725586,0.623657,538
41538566,9997,-0.325928,-0.725464,0.621826,529
41548588,10022,-0.327026,-0.724365,0.623047,534
41558592,10004,-0.325928,-0.724609,0.622559,524
41568581,9989,-0.325806,-0.724487,0.623779,523
41578620,10039,-0.326904,-0.725830,0.624512,530
41588590,9970,-0.327026,-0.725708,0.625488,519
41598592,10002,-0.328125,-0.724976,0.624512,517
41608582,9990,-0.327393,-0.726440,0.623535,518
41618567,9985,-0.326416,-0.725586,0.624634,520
41628591,10024,-0.326782,-0.725464,0.625122,516
41638568,9977,-0.325806,-0.724976,0.622437,513
41648588,10020,-0.326050,-0.724243,0.621948,515
41658570,9982,-0.326294,-0.723633,0.622437,509
41668567,9997,-0.326294,-0.725342,0.623901,512
41678568,10001,-0.327026,-0.725830,0.624268,515
41688589,10021,-0.327881,-0.727295,0.624390,515
41698592,10003,-0.327759,-0.726562,0.625122,511
41708566,9974,-0.328125,-0.726562,0.624878,512
41718590,10024,-0.326416,-0.726318,0.622925,512
41728578,9988,-0.326172,-0.725220,0.621582,506
41738586,10008,-0.324951,-0.724487,0.621948,511
41748577,9991,-0.325195,-0.724487,0.621704,511
41758586,10009,-0.324585,-0.724121,0.621582,511
41768574,9988,-0.328125,-0.724731,0.623291,509
41778587,10013,-0.328491,-0.726562,0.626099,509
41788592,10005,-0.328247,-0.726074,0.625732,510
41798566,9974,-0.328369,-0.725952,0.625488,510
41808601,10035,-0.327271,-0.724731,0.626221,503
41818573,9972,-0.328003,-0.724487,0.625000,507
41828572,9999,-0.326660,-0.726562,0.625000,505
41838591,10019,-0.325317,-0.725586,0.623657,505
41848584,9993,-0.325562,-0.724243,0.622437,504
41858588,10004,-0.325928,-0.724121,0.622192,503
41868574,9986,-0.326294,-0.725952,0.624146,504
41878580,10006,-0.326538,-0.726807,0.623047,499
41888590,10010,-0.326660,-0.724731,0.623047,498
41898576,9986,-0.326660,-0.724609,0.623169,494
41908577,10001,-0.327148,-0.725464,0.623535,503
41918571,9994,-0.326538,-0.726562,0.624512,500
41928571,10000,-0.325317,-0.725342,0.622192,500
41938585,10014,-0.326416,-0.724609,0.621948,496
41948568,9983,-0.326416,-0.724243,0.622559,497
41958582,10014,-0.326172,-0.725586,0.622314,501
41968565,9983,-0.326172,-0.726685,0.622803,499
41978569,10004,-0.326782,-0.726196,0.622925,495
41988584,10015,-0.326538,-0.726562,0.622437,502
41998584,10000,-0.326538,-0.727173,0.622925,501
42008580,9996,-0.325928,-0.726685,0.622681,501
42018576,9996,-0.327271,-0.726074,0.622070,498
42028573,9997,-0.326050,-0.724365,0.622559,498
42038586,10013,-0.326416,-0.725708,0.622437,500
42048576,9990,-0.327393,-0.727417,0.623291,492
42058584,10008,-0.327515,-0.728149,0.622925,498
42068573,9989,-0.326294,-0.727295,0.622314,491
42078576,10003,-0.327515,-0.726318,0.622559,498
42089377,10801,-0.326416,-0.726440,0.623901,500
42098576,9199,-0.327515,-0.724854,0.624512,497
42108588,10012,-0.326538,-0.725342,0.623169,495
42118570,9982,-0.326904,-0.726440,0.623413,495
42128567,9997,-0.326416,-0.726440,0.622437,497
42138591,10024,-0.327148,-0.726196,0.622192,503
42148593,10002,-0.327271,-0.726196,0.621704,509
42158569,9976,-0.327148,-0.724854,0.622925,513
42168593,10024,-0.327393,-0.725220,0.622437,520
42178571,9978,-0.326172,-0.726196,0.622070,522
42188588,10017,-0.327026,-0.726562,0.623535,525
42198573,9985,-0.328003,-0.727295,0.624756,536
42208577,10004,-0.326904,-0.726807,0.625122,541
42218571,9994,-0.327393,-0.725952,0.624146,540
42228582,10011,-0.326172,-0.726196,0.622681,546
42238565,9983,-0.327148,-0.725098,0.622314,548
42248585,10020,-0.325684,-0.724854,0.620605,552
42258587,10002,-0.326294,-0.724854,0.621826,559
42268569,9982,-0.326294,-0.725220,0.622437,551
42278565,9996,-0.326172,-0.726685,0.622681,552
42288574,10009,-0.325317,-0.725586,0.623169,550
42298568,9994,-0.327881,-0.726807,0.625244,549
42308593,10025,-0.327881,-0.726196,0.624023,545
42318575,9982,-0.327515,-0.726196,0.623535,544
42328573,9998,-0.325928,-0.726318,0.622681,540
42338577,10004,-0.326660,-0.724854,0.621460,537
42348566,9989,-0.324097,-0.722656,0.620850,534
42358577,10011,-0.325317,-0.727051,0.623169,531
42368568,9991,-0.328369,-0.727661,0.627441,528
42378566,9998,-0.329956,-0.729004,0.625732,521
42388589,10023,-0.327271,-0.726807,0.623657,526
42398591,10002,-0.324829,-0.724854,0.623657,520
42408590,9999,-0.325806,-0.725708,0.624268,517
42418590,10000,-0.324951,-0.724976,0.621216,519
42428573,9983,-0.324707,-0.722412,0.619629,519
42438567,9994,-0.326538,-0.722534,0.623291,519
42448572,10005,-0.325806,-0.724976,0.624268,511
42458570,9998,-0.326050,-0.727661,0.623413,517
42468580,10010,-0.327026,-0.727051,0.622681,515
42478592,10012,-0.327881,-0.725586,0.622070,514
42488592,10000,-0.328369,-0.725220,0.623291,529
42498582,9990,-0.328003,-0.728149,0.625366,513
42508576,9994,-0.326660,-0.727905,0.623657,510
42518574,9998,-0.327393,-0.725952,0.621948,511
42528583,10009,-0.326172,-0.724609,0.621582,507
42538569,9986,-0.326660,-0.726440,0.622681,510
42548585,10016,-0.326782,-0.726685,0.623901,511
42558586,10001,-0.326416,-0.726929,0.623657,506
42568592,10006,-0.327515,-0.726685,0.622559,506
42578586,9994,-0.327393,-0.724976,0.623169,509
42588566,9980,-0.327148,-0.726318,0.622314,507
42598583,10017,-0.327393,-0.725342,0.622192,511
42608580,9997,-0.327148,-0.725342,0.621460,509
42619892,11312,-0.327148,-0.725586,0.622314,509
42628598,8706,0.000000,0.000000,0.000000,503
42638569,9971,-0.327881,-0.726562,0.623535,506
42648577,10008,-0.327271,-0.727173,0.623291,507
42658581,10004,-0.328369,-0.726440,0.624756,508
42668593,10012,-0.328857,-0.725464,0.624390,500
42678587,9994,-0.327393,-0.725952,0.593750,503
42688593,10006,-0.326782,-0.725464,0.622192,499
42698568,9975,-0.325928,-0.723877,0.622314,504
42708592,10024,-0.324463,-0.723877,0.622192,498
42718580,9988,-0.325928,-0.725220,0.625000,499
42728584,10004,-0.327393,-0.726562,0.625244,497
42738582,9998,-0.328247,-0.728149,0.625366,503
42748580,9998,-0.327271,-0.727295,0.624146,501
42758570,9990,-0.325195,-0.726318,0.623535,500
42768611,10041,-0.325806,-0.724609,0.621216,501
42778580,9969,-0.327393,-0.724976,0.621948,499
42788586,10006,-0.327271,-0.725952,0.624878,493
42799051,10465,-0.328369,-0.725952,0.623901,501
42808575,9524,-0.327881,-0.727173,0.623901,499
42818614,10039,-0.326660,-0.727661,0.624146,496
42828571,9957,-0.325439,-0.727051,0.622314,492
42838581,10010,-0.325684,-0.725342,0.620972,494
42848567,9986,-0.325806,-0.723755,0.619873,486
42858588,10021,-0.326172,-0.724487,0.622925,487
42868590,10002,-0.327881,-0.726807,0.624878,497
42878571,9981,-0.328125,-0.728638,0.626343,498
42888581,10010,-0.328125,-0.726807,0.625854,501
42898593,10012,-0.326660,-0.724365,0.624146,503
42908571,9978,-0.326294,-0.725220,0.623169,506
42918567,9996,-0.326294,-0.723999,0.622681,504
42928588,10021,-0.325562,-0.725586,0.622192,513
42938586,9998,-0.325684,-0.724365,0.621460,522
42948574,9988,-0.328979,-0.725220,0.622070,531
42958579,10005,-0.326904,-0.726196,0.623901,526
42968586,10007,-0.324829,-0.726807,0.624268,539
42978594,10008,-0.327271,-0.727051,0.623901,541
42988582,9988,-0.328125,-0.725830,0.624023,539
42998570,9988,-0.327881,-0.725342,0.625488,548
43008587,10017,-0.326904,-0.725586,0.623901,545
43018568,9981,-0.326050,-0.726196,0.621704,548
43028570,10002,-0.325684,-0.725586,0.620605,548
43038570,10000,-0.327026,-0.724121,0.621582,547
43048585,10015,-0.327637,-0.724609,0.621704,544
43058574,9989,-0.327881,-0.725098,0.623657,542
43068581,10007,-0.327515,-0.727173,0.624878,545
43078586,10005,-0.325806,-0.727661,0.623413,542
43088567,9981,-0.327393,-0.725708,0.623657,540
43098615,10048,-0.327026,-0.724243,0.623779,539
43108586,9971,-0.326660,-0.724976,0.624878,537
43118574,9988,-0.326782,-0.724731,0.622070,534
43128575,10001,-0.326172,-0.724121,0.622437,526
43138583,10008,-0.326904,-0.725220,0.622559,530
43148584,10001,-0.327271,-0.725464,0.622925,528
43158581,9997,-0.327759,-0.726807,0.624878,526
43168572,9991,-0.327393,-0.725708,0.625488,519
43178587,10015,-0.327148,-0.726318,0.625732,522
43188578,9991,-0.326416,-0.726807,0.625366,515
43198600,10022,-0.327148,-0.725220,0.623535,518
43208574,9974,-0.326782,-0.724609,0.623047,516
43218578,10004,-0.326538,-0.725098,0.621704,515
43228584,10006,-0.328491,-0.725220,0.623047,512
43238606,10022,-0.328003,-0.725464,0.622681,509
43248573,9967,-0.327637,-0.726196,0.622925,510
43258572,9999,-0.326538,-0.725464,0.623535,513
43268594,10022,-0.327393,-0.727173,0.623779,508
43278566,9972,-0.327881,-0.727417,0.624146,510
43288568,10002,-0.327637,-0.726074,0.623291,511
43298572,10004,-0.326782,-0.724854,0.624634,507
43308610,10038,-0.327271,-0.723633,0.624756,511
43318581,9971,-0.326294,-0.724854,0.623901,510
43328567,9986,-0.326538,-0.725830,0.622314,510
43338568,10001,-0.327759,-0.725586,0.622192,507
43348590,10022,-0.328003,-0.725708,0.621826,506
43358592,10002,-0.328125,-0.726074,0.623047,504
43368581,9989,-0.327637,-0.726318,0.622803,504
43378591,10010,-0.326782,-0.725586,0.621582,504
43388575,9984,-0.326538,-0.726196,0.623291,503
43398578,10003,-0.328125,-0.727173,0.623047,502
43408579,10001,-0.328125,-0.727173,0.624023,501
43418592,10013,-0.328247,-0.726562,0.623413,501
43428566,9974,-0.327881,-0.726074,0.624146,494
43438586,10020,-0.327271,-0.723999,0.623779,499
43448576,9990,-0.325684,-0.723755,0.622925,494
43458588,10012,-0.327148,-0.723755,0.622925,501
43468565,9977,-0.326904,-0.723999,0.622681,501
43478595,10030,-0.327271,-0.724487,0.622192,500
43488594,9999,-0.327759,-0.726196,0.622437,478
43498585,9991,-0.327271,-0.726562,0.623901,497
43508593,10008,-0.327393,-0.726440,0.622925,499
43518585,9992,-0.328125,-0.726807,0.622070,497
43528593,10008,-0.328369,-0.726685,0.622192,498
43538588,9995,-0.326416,-0.726440,0.622925,494
43548586,9998,-0.325806,-0.725952,0.622559,497
43558579,9993,-0.326172,-0.725708,0.622681,494
43568581,10002,-0.327637,-0.724121,0.622925,497
43578586,10005,-0.327148,-0.722778,0.622925,496
43588585,9999,-0.326782,-0.725220,0.624878,490
43598580,9995,-0.329712,-0.727661,0.623535,496
43608610,10030,-0.328491,-0.727173,0.625244,498
43618566,9956,-0.328491,-0.726562,0.622070,510
43628570,10004,-0.327515,-0.724243,0.620972,494
43638580,10010,-0.327515,-0.726318,0.622070,495
43648569,9989,-0.328003,-0.726196,0.621338,497
43658565,9996,-0.327271,-0.725342,0.622803,495
43668587,10022,-0.327637,-0.724121,0.621460,495
43678585,9998,-0.326416,-0.724731,0.622925,500
43688569,9984,-0.326782,-0.725708,0.624756,501
43698572,10003,-0.328247,-0.726196,0.622803,509
43708590,10018,-0.325806,-0.725098,0.623535,512
43718574,9984,-0.327271,-0.725098,0.622803,520
43728571,9997,-0.328247,-0.724487,0.622803,527
43738585,10014,-0.328491,-0.725342,0.622803,534
43748585,10000,-0.327515,-0.726074,0.624634,534
43758586,10001,-0.327393,-0.725464,0.624878,536
43768570,9984,-0.326660,-0.725586,0.623779,547
43778584,10014,-0.328003,-0.724365,0.624390,548
43788574,9990,-0.325928,-0.725952,0.623169,549
43798609,10035,-0.327393,-0.725464,0.623291,549
43808575,9966,-0.327026,-0.725098,0.621460,549
43818581,10006,-0.327271,-0.726318,0.622192,550
43828582,10001,-0.327148,-0.726562,0.623291,545
43838577,9995,-0.327515,-0.725098,0.622192,545
43848594,10017,-0.327637,-0.726196,0.623535,546
43858587,9993,-0.328369,-0.727295,0.622559,542
43868577,9990,-0.327515,-0.725464,0.622192,541
43878572,9995,-0.327515,-0.724487,0.622070,540
43888574,10002,-0.327515,-0.724976,0.622559,538
43898571,9997,-0.325439,-0.724976,0.623901,532
43908583,10012,-0.326050,-0.724487,0.622803,536
43921078,12495,-0.328613,-0.725220,0.623169,536
43928588,7510,-0.328491,-0.725952,0.623901,534
43938601,10013,-0.328491,-0.728027,0.624512,531
43948582,9981,-0.327515,-0.727661,0.625488,521
43958571,9989,-0.327759,-0.726562,0.624512,527
43968587,10016,-0.327148,-0.725342,0.622070,523
43978589,10002,-0.323730,-0.723633,0.622070,519
43988581,9992,-0.328125,-0.724121,0.619507,520
43998575,9994,-0.331177,-0.726562,0.627075,520
44008570,9995,-0.330688,-0.726807,0.623535,518
44019592,11022,-0.325562,-0.724121,0.622681,514
44028593,9001,0.000000,0.000000,0.000000,508
44038573,9980,-0.325806,-0.724487,0.623535,513
44048594,10021,-0.326294,-0.727173,0.622559,509
44058567,9973,-0.327759,-0.726685,0.622803,503
44068571,10004,-0.327759,-0.724609,0.623047,511
44078610,10039,-0.328857,-0.723999,0.621460,509
44088572,9962,-0.328125,-0.727417,0.626465,510
44098568,9996,-0.328979,-0.731079,0.626343,508
44108572,10004,-0.328979,-0.729614,0.625366,504
44118593,10021,-0.328369,-0.726807,0.622559,503
44128593,10000,-0.328003,-0.724609,0.621826,504
44138585,9992,-0.325073,-0.727417,0.623535,507
44148567,9982,-0.328613,-0.725708,0.620361,502
44158568,10001,-0.328247,-0.724243,0.621948,508
44168585,10017,-0.326660,-0.720703,0.619751,505
44178583,9998,-0.327759,-0.721436,0.621216,506
44188577,9994,-0.328247,-0.728027,0.625732,508
44198589,10012,-0.327271,-0.727417,0.625854,506
44208570,9981,-0.326782,-0.726929,0.622925,502
44218587,10017,-0.327026,-0.727417,0.622803,499
44228570,9983,-0.328003,-0.727173,0.624390,495
44238566,9996,-0.327881,-0.726562,0.622681,498
44248735,10169,-0.327637,-0.726196,0.622192,494
44258588,9853,-0.327515,-0.723267,0.621948,491
44268571,9983,-0.327637,-0.723267,0.621826,489
44278569,9998,-0.328247,-0.723999,0.621704,498
44288588,10019,-0.327881,-0.725220,0.622559,496
44298568,9980,-0.326416,-0.725708,0.623535,495
44308593,10025,-0.326782,-0.726807,0.623169,491
44318579,9986,-0.326538,-0.726074,0.622192,498
44328594,10015,-0.328003,-0.726318,0.622192,491
44338581,9987,-0.327881,-0.724609,0.624512,499
44348577,9996,-0.330078,-0.724976,0.624878,496
44358581,10004,-0.328857,-0.725342,0.624634,498
44368589,10008,-0.327759,-0.726074,0.624146,491
44378582,9993,-0.327148,-0.725220,0.623169,498
44388591,10009,-0.327637,-0.725708,0.623169,489
44398569,9978,-0.327759,-0.725830,0.623047,496
44408579,10010,-0.328125,-0.727051,0.622070,489
44418580,10001,-0.328491,-0.725708,0.622070,495
44428573,9993,-0.326782,-0.724609,0.621826,496
44439830,11257,-0.327881,-0.723511,0.624023,497
44448589,8759,-0.328369,-0.724976,0.625122,495
44458599,10010,-0.327637,-0.725708,0.622925,496
44468571,9972,-0.328247,-0.726807,0.623901,493
44478593,10022,-0.328369,-0.726807,0.622681,498
44488594,10001,-0.328003,-0.726685,0.620972,497
44498603,10009,-0.328247,-0.725220,0.623047,496
44508575,9972,-0.326538,-0.725464,0.623413,497
44518576,10001,-0.328369,-0.725342,0.623413,502
44528585,10009,-0.327881,-0.725098,0.625244,505
44538581,9996,-0.328735,-0.724121,0.623779,511
44549516,10935,-0.327637,-0.725586,0.623535,510
44558567,9051,-0.327271,-0.725220,0.623535,519
44568566,9999,-0.327026,-0.725464,0.623291,529
44578571,10005,-0.328003,-0.724609,0.622681,531
44588573,10002,-0.328491,-0.723999,0.622070,542
44598569,9996,-0.328369,-0.725830,0.624390,543
44608580,10011,-0.328491,-0.726807,0.625000,546
44618592,10012,-0.327515,-0.725220,0.624878,548
44628585,9993,-0.328003,-0.725220,0.623779,553
44638586,10001,-0.327393,-0.725342,0.622681,553
44648573,9987,-0.327881,-0.725952,0.622437,552
44658578,10005,-0.326782,-0.724731,0.622314,552
44668570,9992,-0.326538,-0.723755,0.622192,550
44678584,10014,-0.327515,-0.723267,0.622314,542
44688585,10001,-0.327148,-0.723999,0.624756,546
44698590,10005,-0.327271,-0.725708,0.625000,544
44708578,9988,-0.328247,-0.726074,0.624512,538
44718576,9998,-0.328735,-0.726562,0.623413,543
44728583,10007,-0.327026,-0.726807,0.624756,540
44738594,10011,-0.326538,-0.725342,0.624756,539
44748591,9997,-0.327393,-0.724243,0.623657,540
44758572,9981,-0.327759,-0.723755,0.622559,538
44768568,9996,-0.327148,-0.723022,0.622070,534
44778589,10021,-0.327515,-0.723877,0.625977,535
44788588,9999,-0.328613,-0.725098,0.626953,531
44798570,9982,-0.328857,-0.725098,0.625610,529
44808571,10001,-0.328125,-0.725830,0.623901,524
44818574,10003,-0.327881,-0.725342,0.623291,524
44828579,10005,-0.327515,-0.725952,0.623413,522
44838577,9998,-0.326660,-0.725098,0.622192,513
