t_us,dt_us,ax,ay,az,ppg
15193081,10022,-0.076660,0.577515,-0.812500,508
15203076,9995,-0.077637,0.575684,-0.812134,508
15213061,9985,-0.076538,0.576172,-0.810425,509
15223087,10026,-0.074707,0.575806,-0.809692,511
15233089,10002,-0.073364,0.576416,-0.807861,510
15243080,9991,-0.072144,0.576172,-0.807251,510
15253079,9999,-0.071655,0.575806,-0.806274,513
15263074,9995,-0.071655,0.575562,-0.806274,513
15273064,9990,-0.070435,0.576416,-0.807739,516
15283088,10024,-0.070923,0.578491,-0.808228,515
15293065,9977,-0.070435,0.578369,-0.809692,519
15303079,10014,-0.070557,0.577271,-0.809448,516
15313080,10001,-0.071655,0.578125,-0.809204,520
15323085,10005,-0.073608,0.576416,-0.810913,521
15333059,9974,-0.074463,0.578247,-0.810791,516
15343069,10010,-0.075073,0.577393,-0.809937,518
15353082,10013,-0.075195,0.577881,-0.810547,523
15363088,10006,-0.075806,0.577271,-0.810669,513
15373070,9982,-0.074585,0.574585,-0.809570,513
15383076,10006,-0.073975,0.574829,-0.809814,518
15393076,10000,-0.073242,0.575439,-0.809570,512
15403087,10011,-0.075195,0.575928,-0.808105,517
15413088,10001,-0.072876,0.576416,-0.806763,516
15423081,9993,-0.071045,0.576538,-0.805908,511
15433065,9984,-0.070435,0.576660,-0.806274,514
15443075,10010,-0.071289,0.577148,-0.808594,514
15453059,9984,-0.073364,0.578247,-0.809082,510
15463063,10004,-0.073608,0.577881,-0.810425,503
15473085,10022,-0.075562,0.578003,-0.811890,512
15484069,10984,-0.074463,0.577148,-0.808716,510
15493062,8993,-0.074097,0.575317,-0.809204,511
15503074,10012,-0.074097,0.574341,-0.812256,506
15513075,10001,-0.074219,0.574585,-0.811279,510
15523062,9987,-0.074341,0.575439,-0.812012,512
15533072,10010,-0.074585,0.574829,-0.811646,510
15543061,9989,-0.072754,0.576294,-0.809570,504
15553074,10013,-0.071777,0.578369,-0.808594,512
15563068,9994,-0.071533,0.576782,-0.806030,511
15573063,9995,-0.070923,0.577637,-0.805542,511
15583062,9999,-0.070923,0.578979,-0.807495,512
15593083,10021,-0.071167,0.579590,-0.807007,512
15603066,9983,-0.072021,0.577515,-0.808228,513
15613087,10021,-0.072754,0.576050,-0.810059,513
15623087,10000,-0.073853,0.574707,-0.809204,514
15633064,9977,-0.075439,0.575562,-0.842529,512
15643068,10004,-0.080566,0.575806,-0.812866,514
15653082,10014,-0.080688,0.578369,-0.809570,505
15663081,9999,-0.079590,0.580200,-0.807983,511
15673061,9980,-0.074951,0.579956,-0.807251,512
15683076,10015,-0.071777,0.581421,-0.805786,505
15693079,10003,-0.069214,0.575439,-0.809204,510
15703079,10000,-0.068848,0.575439,-0.807983,509
15713065,9986,-0.068726,0.575317,-0.805786,509
15723086,10021,-0.070312,0.573853,-0.807373,505
15733064,9978,-0.071533,0.574829,-0.808472,503
15743088,10024,-0.071411,0.580688,-0.813843,510
15753059,9971,-0.071289,0.579102,-0.811890,511
15763067,10008,-0.072021,0.579590,-0.809937,511
15773060,9993,-0.073608,0.580200,-0.808960,507
15783064,10004,-0.073486,0.579224,-0.808594,512
15793072,10008,-0.075439,0.576416,-0.802246,512
15803081,10009,-0.071899,0.577271,-0.803589,503
15813073,9992,-0.070068,0.580200,-0.805298,511
15823062,9989,-0.070312,0.583984,-0.805664,512
15833079,10017,-0.071167,0.586060,-0.806519,509
15843084,10005,-0.070679,0.584106,-0.805176,511
15853065,9981,-0.070923,0.581055,-0.807617,506
15863070,10005,-0.073486,0.575684,-0.811646,504
15873069,9999,-0.074219,0.571777,-0.813110,504
15883060,9991,-0.073853,0.570557,-0.810425,512
15893078,10018,-0.075073,0.572021,-0.808838,503
15903072,9994,-0.070435,0.583374,-0.806396,511
15913083,10011,-0.070679,0.584595,-0.804199,512
15923066,9983,-0.070190,0.580322,-0.803101,508
15933072,10006,-0.068848,0.581055,-0.802246,509
15943079,10007,-0.068359,0.582153,-0.803345,512
15953063,9984,-0.067627,0.581177,-0.809204,510
15963077,10014,-0.070190,0.574219,-0.812988,512
15973077,10000,-0.072266,0.572754,-0.813232,505
15983085,10008,-0.074219,0.574341,-0.812378,510
15993072,9987,-0.076050,0.578003,-0.809937,511
16003064,9992,-0.075684,0.583252,-0.808105,512
16013064,10000,-0.073608,0.585449,-0.801636,511
16023060,9996,-0.072021,0.581665,-0.801025,507
16033078,10018,-0.070557,0.579102,-0.802124,511
16043081,10003,-0.070068,0.574585,-0.802734,511
16053079,9998,-0.069458,0.570312,-0.804321,514
16063080,10001,-0.066895,0.579102,-0.809448,515
16073068,9988,-0.066895,0.582520,-0.811035,517
16083083,10015,-0.068848,0.580688,-0.810791,517
16093061,9978,-0.071167,0.581543,-0.807617,520
16103083,10022,-0.072144,0.583374,-0.804321,517
16113083,10000,-0.073608,0.584717,-0.804199,519
16123063,9980,-0.075317,0.581787,-0.807861,518
16133080,10017,-0.071899,0.578735,-0.809814,520
16143060,9980,-0.072876,0.578003,-0.811157,521
16153077,10017,-0.073486,0.577393,-0.811890,519
16163078,10001,-0.073853,0.576660,-0.809082,514
16173075,9997,-0.071167,0.579468,-0.805908,515
16183088,10013,-0.071045,0.579590,-0.803833,516
16193089,10001,-0.073486,0.580811,-0.804443,516
16203059,9970,-0.072510,0.580078,-0.804443,516
16213068,10009,-0.073486,0.577515,-0.805054,512
16223065,9997,-0.071777,0.575562,-0.808594,507
16233060,9995,-0.071899,0.576538,-0.810181,513
16243065,10005,-0.071533,0.578979,-0.811279,512
16253072,10007,-0.072876,0.579956,-0.808838,515
16263071,9999,-0.072876,0.579712,-0.805542,512
16273059,9988,-0.073975,0.581543,-0.803833,512
16283079,10020,-0.070923,0.583984,-0.804199,510
16293069,9990,-0.072876,0.584106,-0.805298,510
16303083,10014,-0.073120,0.581543,-0.806030,504
16313069,9986,-0.073364,0.579468,-0.809082,507
16323060,9991,-0.073730,0.578125,-0.809326,507
16333101,10041,-0.072144,0.581543,-0.805054,511
16343079,9978,-0.072388,0.582520,-0.806030,510
16353083,10004,-0.070923,0.579834,-0.805786,510
16363066,9983,-0.070679,0.578003,-0.808716,512
16373072,10006,-0.069824,0.576904,-0.812012,514
16383084,10012,-0.070801,0.572876,-0.813110,507
16393103,10019,-0.070190,0.573608,-0.812256,513
16403063,9960,-0.070679,0.574829,-0.809448,514
16413081,10018,-0.070923,0.577515,-0.806396,513
16423083,10002,-0.071167,0.579956,-0.803833,513
16433086,10003,-0.071533,0.584839,-0.802246,508
16443079,9993,-0.069824,0.586914,-0.801514,513
16453077,9998,-0.070679,0.586304,-0.803467,512
16463070,9993,-0.070679,0.581055,-0.805054,513
16473074,10004,-0.072998,0.576538,-0.809082,514
16483066,9992,-0.073364,0.572632,-0.811646,512
16493726,10660,-0.073486,0.570923,-0.818359,512
16503061,9335,-0.075073,0.572632,-0.817017,509
16513068,10007,-0.074951,0.575073,-0.813477,505
16523073,10005,-0.074463,0.576660,-0.811523,511
16533076,10003,-0.072876,0.580811,-0.807373,509
16543083,10007,-0.068604,0.584961,-0.800903,512
16553075,9992,-0.067505,0.582153,-0.801392,503
16563080,10005,-0.066528,0.579956,-0.801514,508
16573085,10005,-0.066406,0.580933,-0.801758,505
16583091,10006,-0.069092,0.582031,-0.803711,509
16593071,9980,-0.070435,0.579590,-0.805786,505
16603075,10004,-0.074097,0.576294,-0.810425,509
16613068,9993,-0.075684,0.576050,-0.811157,511
16623072,10004,-0.077759,0.574829,-0.810181,511
16633066,9994,-0.076294,0.574585,-0.811523,505
16643084,10018,-0.074219,0.577026,-0.811035,511
16653063,9979,-0.069824,0.578613,-0.806519,511
16663084,10021,-0.069702,0.579224,-0.802979,512
16673068,9984,-0.067871,0.580444,-0.801392,511
16683073,10005,-0.069458,0.581787,-0.801758,510
16693088,10015,-0.068481,0.582275,-0.805542,509
16703082,9994,-0.070068,0.579590,-0.811401,507
16713063,9981,-0.075073,0.579712,-0.810913,507
16723083,10020,-0.076172,0.578491,-0.810425,511
16733064,9981,-0.077393,0.578247,-0.809204,512
16743062,9998,-0.076294,0.578735,-0.809570,512
16753087,10025,-0.074341,0.578003,-0.809570,511
16763079,9992,-0.072510,0.573120,-0.810059,511
16773104,10025,-0.071167,0.572998,-0.809204,514
16783083,9979,-0.070679,0.572510,-0.809082,513
16793060,9977,-0.069824,0.574097,-0.806763,517
16803071,10011,-0.068970,0.578003,-0.804932,515
16813059,9988,-0.070068,0.588135,-0.801758,510
16823060,10001,-0.070068,0.588501,-0.800171,519
16833063,10003,-0.070557,0.586914,-0.800903,521
16843087,10024,-0.071533,0.583252,-0.804077,517
16853068,9981,-0.071655,0.579712,-0.810059,524
16863081,10013,-0.072266,0.574707,-0.814819,513
16873080,9999,-0.072876,0.571777,-0.813110,517
16883064,9984,-0.073364,0.570801,-0.812012,521
16893079,10015,-0.072998,0.573608,-0.809814,516
16903064,9985,-0.072510,0.577148,-0.806763,521
16913062,9998,-0.070190,0.579712,-0.802246,514
16923069,10007,-0.071899,0.583618,-0.803345,519
16933072,10003,-0.072388,0.583618,-0.804443,510
16943059,9987,-0.072388,0.582642,-0.804321,507
16953067,10008,-0.071167,0.580078,-0.807129,514
16963104,10037,-0.071289,0.577393,-0.810425,513
16973085,9981,-0.073853,0.575684,-0.813599,513
16983074,9989,-0.074219,0.576660,-0.812256,514
16993064,9990,-0.075195,0.576782,-0.810059,511
17003070,10006,-0.073975,0.579346,-0.807617,512
17013060,9990,-0.073730,0.581787,-0.804932,505
17023071,10011,-0.071411,0.581787,-0.801270,511
17033085,10014,-0.069580,0.579468,-0.801758,510
17043061,9976,-0.069946,0.579102,-0.803467,510
17053085,10024,-0.070312,0.578735,-0.807251,505
17063080,9995,-0.072754,0.578125,-0.808716,511
17073082,10002,-0.074097,0.578369,-0.808960,512
17083072,9990,-0.074219,0.577881,-0.808350,512
17093070,9998,-0.073486,0.576538,-0.808350,512
17103078,10008,-0.072510,0.576172,-0.808350,512
17113074,9996,-0.072021,0.577271,-0.809570,518
17123063,9989,-0.071533,0.578003,-0.810791,514
17133062,9999,-0.071655,0.580200,-0.810059,512
17143077,10015,-0.072998,0.580444,-0.807007,514
17153086,10009,-0.073242,0.580811,-0.806274,512
17163083,9997,-0.074341,0.580566,-0.804199,508
17173070,9987,-0.074585,0.581665,-0.804932,511
17183064,9994,-0.074951,0.580078,-0.804810,507
17193063,9999,-0.072144,0.578857,-0.804199,513
17203062,9999,-0.070923,0.578979,-0.803955,514
17213060,9998,-0.069824,0.578491,-0.804932,507
17223097,10037,-0.069824,0.578613,-0.805298,513
17233086,9989,-0.070679,0.576538,-0.807983,507
17243072,9986,-0.072998,0.575684,-0.813232,511
17253084,10012,-0.073608,0.575195,-0.812134,512
17263061,9977,-0.074463,0.576538,-0.810059,508
17273084,10023,-0.074097,0.578003,-0.809692,509
17283073,9989,-0.072998,0.581543,-0.807129,509
17293063,9990,-0.069580,0.585083,-0.802734,510
17303074,10011,-0.069702,0.584595,-0.802246,512
17313069,9995,-0.069580,0.582520,-0.801514,507
17323072,10003,-0.068726,0.579468,-0.801636,512
17333060,9988,-0.069702,0.578125,-0.803711,512
17343068,10008,-0.071533,0.576416,-0.806030,512
17353076,10008,-0.077881,0.575562,-0.809814,505
17363087,10011,-0.076782,0.577148,-0.811401,512
17373068,9981,-0.076904,0.575806,-0.811646,506
17383081,10013,-0.075195,0.575317,-0.808960,506
17393061,9980,-0.074829,0.576538,-0.808228,512
17403087,10026,-0.070190,0.577515,-0.809814,512
17413075,9988,-0.068481,0.578247,-0.807373,512
17423068,9993,-0.067749,0.578003,-0.805176,512
17433085,10017,-0.067627,0.579468,-0.804932,510
17443061,9976,-0.070068,0.582275,-0.805786,512
17453076,10015,-0.076416,0.585571,-0.804687,511
17463084,10008,-0.077148,0.583130,-0.805176,513
17473067,9983,-0.076660,0.582153,-0.804077,509
17483088,10021,-0.074707,0.578003,-0.804077,514
17494592,11504,-0.073486,0.576050,-0.805542,504
17503064,8472,-0.072266,0.574097,-0.807129,508
17513083,10019,-0.072632,0.571045,-0.809570,514
17523082,9999,-0.070679,0.570312,-0.810181,512
17533059,9977,-0.069336,0.573120,-0.810547,514
17543105,10046,-0.070801,0.576050,-0.811523,513
17553079,9974,-0.072388,0.578857,-0.809448,519
17563075,9996,-0.073242,0.583618,-0.807373,517
17573081,10006,-0.071777,0.583862,-0.806152,523
17583078,9997,-0.072510,0.581421,-0.806030,522
17593061,9983,-0.070679,0.578491,-0.807007,532
17603090,10029,-0.071655,0.576172,-0.808105,527
17613063,9973,-0.071777,0.573975,-0.807007,524
17623082,10019,-0.073853,0.573242,-0.806763,521
17633084,10002,-0.075684,0.571411,-0.807373,519
17643074,9990,-0.077026,0.571777,-0.811523,522
17653060,9986,-0.080322,0.573730,-0.815308,520
17663082,10022,-0.082153,0.575073,-0.816162,520
17673082,10000,-0.079224,0.577881,-0.811035,514
17683088,10006,-0.075073,0.580566,-0.806274,517
17693060,9972,-0.070557,0.581177,-0.805054,510
17703078,10018,-0.067261,0.581909,-0.804565,516
17713062,9984,-0.066040,0.583008,-0.803589,509
17723066,10004,-0.067871,0.581177,-0.804199,508
17733081,10015,-0.069580,0.580322,-0.806641,514
17743084,10003,-0.070923,0.581787,-0.804687,514
17753086,10002,-0.070801,0.581055,-0.805786,513
17763077,9991,-0.072876,0.578125,-0.807495,508
17773075,9998,-0.076050,0.572998,-0.810913,509
17783062,9987,-0.076782,0.571899,-0.810913,514
17793061,9999,-0.077148,0.572632,-0.811035,513
17803104,10043,-0.076538,0.574707,-0.809326,510
17813087,9983,-0.074585,0.576294,-0.807495,505
17823087,10000,-0.071899,0.578979,-0.805786,513
17833075,9988,-0.072510,0.581177,-0.803345,513
17843085,10010,-0.070801,0.581787,-0.802856,515
17853064,9979,-0.073242,0.583252,-0.803223,509
17863069,10005,-0.073364,0.581299,-0.807373,516
17873077,10008,-0.073975,0.578247,-0.808960,515
17883066,9989,-0.073853,0.577881,-0.812378,517
17893068,10002,-0.074097,0.576660,-0.812012,515
17903080,10012,-0.074341,0.574341,-0.811890,507
17913074,9994,-0.073608,0.573853,-0.810547,514
17923074,10000,-0.074097,0.574097,-0.809937,512
17933089,10015,-0.072754,0.575928,-0.807373,509
17943102,10013,-0.072754,0.576904,-0.804932,515
17953061,9959,-0.071655,0.577515,-0.803223,505
17963063,10002,-0.070923,0.580566,-0.802124,513
17973060,9997,-0.071411,0.580566,-0.802368,514
17983086,10026,-0.072144,0.579102,-0.805786,509
17993084,9998,-0.075073,0.578979,-0.813232,513
18003102,10018,-0.075073,0.577637,-0.814331,511
18013066,9964,-0.075439,0.574829,-0.812500,510
18023068,10002,-0.074951,0.573608,-0.810669,510
18033086,10018,-0.073486,0.572144,-0.808838,512
18043078,9992,-0.072388,0.577515,-0.803345,509
18053059,9981,-0.072388,0.580566,-0.801514,504
18063073,10014,-0.075439,0.583130,-0.801392,511
18073095,10022,-0.076782,0.583984,-0.801147,512
18083059,9964,-0.078125,0.584717,-0.802490,510
18093078,10019,-0.077393,0.582520,-0.806519,509
18103079,10001,-0.074707,0.574219,-0.810913,511
18113065,9986,-0.073486,0.573853,-0.810547,509
18123082,10017,-0.072266,0.572144,-0.809814,512
18133077,9995,-0.071411,0.573242,-0.809082,510
18143070,9993,-0.070312,0.574829,-0.811157,510
18153075,10005,-0.070190,0.574585,-0.811279,512
18163062,9987,-0.071655,0.575439,-0.810669,512
18173074,10012,-0.073486,0.578125,-0.810303,513
18183088,10014,-0.074585,0.580566,-0.808716,512
18193071,9983,-0.074097,0.581665,-0.806885,512
18203065,9994,-0.073120,0.580078,-0.807495,510
18213066,10001,-0.071899,0.578247,-0.810303,510
18223071,10005,-0.071899,0.575439,-0.811401,517
18233073,10002,-0.074097,0.571533,-0.812134,515
18243081,10008,-0.073730,0.571167,-0.811279,517
18253113,10032,-0.073730,0.573853,-0.812134,517
18263059,9946,-0.071045,0.572388,-0.810913,525
18273068,10009,-0.070312,0.574585,-0.808716,518
18283079,10011,-0.070190,0.577637,-0.806885,519
18293077,9998,-0.071045,0.580078,-0.805542,528
18303060,9983,-0.070923,0.581665,-0.803589,527
18313076,10016,-0.071777,0.585205,-0.806152,522
18323097,10021,-0.075073,0.583618,-0.806396,529
18333082,9985,-0.077881,0.580811,-0.807495,525
18343078,9996,-0.078491,0.578857,-0.806885,519
18353087,10009,-0.078979,0.578491,-0.805054,524
18363083,9996,-0.074707,0.576904,-0.802734,521
18373070,9987,-0.072510,0.578857,-0.805176,522
18383064,9994,-0.072388,0.579590,-0.806274,519
18393071,10007,-0.074097,0.576782,-0.806030,521
18403080,10009,-0.073608,0.573853,-0.809082,518
18413066,9986,-0.073853,0.574829,-0.808960,518
18423088,10022,-0.072388,0.576050,-0.808960,509
18433081,9993,-0.072021,0.577881,-0.808472,517
18443078,9997,-0.072510,0.580078,-0.804687,515
18453089,10011,-0.071777,0.581055,-0.798828,515
18463080,9991,-0.068481,0.581665,-0.797852,514
18473068,9988,-0.075317,0.580444,-0.803345,512
18483081,10013,-0.074219,0.575562,-0.805542,507
18493063,9982,-0.076172,0.583740,-0.812988,509
18503113,10050,-0.076782,0.575317,-0.813721,501
18513086,9973,-0.076050,0.566772,-0.810547,506
18523079,9993,-0.074463,0.575684,-0.809692,505
18533076,9997,-0.071655,0.573120,-0.808228,508
18543080,10004,-0.069824,0.573975,-0.806030,506
18553059,9979,-0.070312,0.577515,-0.805054,506
18563061,10002,-0.070923,0.578125,-0.807007,508
18573065,10004,-0.072266,0.578613,-0.808105,509
18583073,10008,-0.075806,0.582153,-0.809570,511
18593077,10004,-0.076050,0.581909,-0.810181,505
18603070,9993,-0.077881,0.581543,-0.809814,513
18613069,9999,-0.077148,0.579102,-0.810547,514
18623061,9992,-0.077393,0.578491,-0.810791,515
18633086,10025,-0.076050,0.574097,-0.809814,517
18643076,9990,-0.074341,0.573730,-0.808228,512
18653060,9984,-0.074097,0.574219,-0.807251,515
18663088,10028,-0.072510,0.575684,-0.807129,522
18673072,9984,-0.072021,0.576172,-0.806152,518
18683073,10001,-0.071533,0.580078,-0.805176,522
18693084,10011,-0.071167,0.580322,-0.805786,521
18703090,10006,-0.071899,0.580688,-0.807007,515
18713083,9993,-0.072266,0.579956,-0.807983,519
18723079,9996,-0.071777,0.579834,-0.808838,520
18733077,9998,-0.072021,0.578125,-0.808716,518
18743071,9994,-0.072754,0.577271,-0.805054,519
18753102,10031,-0.074097,0.578979,-0.803589,514
18763072,9970,-0.073364,0.580444,-0.803467,517
18773075,10003,-0.074097,0.580566,-0.804932,509
18783062,9987,-0.073730,0.580322,-0.806396,515
18793086,10024,-0.075928,0.577271,-0.808594,513
18803087,10001,-0.075439,0.579102,-0.809204,508
18813063,9976,-0.073853,0.577515,-0.810181,511
18823079,10016,-0.075073,0.575928,-0.809570,514
18833088,10009,-0.076416,0.576782,-0.808350,511
18843062,9974,-0.074219,0.580811,-0.803467,512
18853079,10017,-0.071411,0.580688,-0.802490,510
18863061,9982,-0.068481,0.581055,-0.802368,510
18873096,10035,-0.068237,0.580566,-0.804932,507
18883083,9987,-0.068481,0.578491,-0.808105,509
18893080,9997,-0.070435,0.575439,-0.809082,510
18903060,9980,-0.075684,0.575195,-0.810425,507
18913086,10026,-0.077148,0.576904,-0.809326,512
18923074,9988,-0.077515,0.578491,-0.810181,512
18933079,10005,-0.076782,0.578979,-0.809692,506
18943082,10003,-0.076050,0.576660,-0.811890,513
18953081,9999,-0.072632,0.576904,-0.808350,510
18963084,10003,-0.070435,0.576904,-0.806274,519
18973060,9976,-0.069946,0.577637,-0.807007,521
18983080,10020,-0.068359,0.578369,-0.807495,521
18993105,10025,-0.069092,0.579224,-0.806030,525
19003061,9956,-0.069214,0.580322,-0.806030,528
19013076,10015,-0.071167,0.581299,-0.807617,528
19023084,10008,-0.072754,0.579712,-0.807251,524
19033074,9990,-0.075317,0.578491,-0.808594,524
19043063,9989,-0.076538,0.577759,-0.809814,530
19053087,10024,-0.076416,0.576416,-0.809570,522
19063099,10012,-0.073975,0.578735,-0.806030,529
19073081,9982,-0.073730,0.580933,-0.804810,525
19083081,10000,-0.073242,0.576904,-0.804321,525
19093074,9993,-0.072632,0.574219,-0.806030,523
19103088,10014,-0.071655,0.575073,-0.808228,524
19113064,9976,-0.075195,0.579468,-0.807739,512
19123061,9997,-0.076416,0.578247,-0.810059,521
19133075,10014,-0.077271,0.575562,-0.810181,517
19143061,9986,-0.075928,0.575439,-0.809692,511
19153061,10000,-0.073975,0.576294,-0.809326,517
19163081,10020,-0.073364,0.576782,-0.808105,518
19173087,10006,-0.072632,0.577637,-0.805298,518
19183087,10000,-0.072998,0.580933,-0.804810,518
19193065,9978,-0.072510,0.579834,-0.804443,513
19203084,10019,-0.072510,0.579468,-0.805054,517
19213077,9993,-0.071777,0.578857,-0.806519,514
19223070,9993,-0.073730,0.577148,-0.808594,510
19233067,9997,-0.074463,0.576416,-0.809326,512
19243071,10004,-0.074097,0.574219,-0.809937,509
19253092,10021,-0.073486,0.573975,-0.809692,511
19263080,9988,-0.072754,0.573975,-0.808838,513
19273065,9985,-0.071655,0.573975,-0.809570,513
19283076,10011,-0.072998,0.575317,-0.810791,507
19293085,10009,-0.074951,0.577148,-0.811401,512
19303066,9981,-0.076538,0.578613,-0.810303,513
19313075,10009,-0.076538,0.580688,-0.809082,507
19323059,9984,-0.076294,0.581421,-0.806152,514
19333085,10026,-0.074585,0.581543,-0.804565,514
19343066,9981,-0.073975,0.580566,-0.804810,511
19353067,10001,-0.073730,0.578735,-0.805420,514
19363084,10017,-0.073608,0.577271,-0.805786,513
19373072,9988,-0.073120,0.575195,-0.806274,513
19383079,10007,-0.073486,0.575317,-0.807129,509
19393071,9992,-0.073486,0.575562,-0.808228,512
19403063,9992,-0.072876,0.575562,-0.808838,506
19413085,10022,-0.073975,0.576172,-0.808594,513
19423075,9990,-0.074463,0.577026,-0.808472,505
19433062,9987,-0.072876,0.578247,-0.807983,511
19443070,10008,-0.073608,0.578979,-0.806641,508
19453074,10004,-0.073486,0.578369,-0.805542,513
19463088,10014,-0.072876,0.578369,-0.807129,505
19473079,9991,-0.073364,0.576904,-0.810303,510
19483066,9987,-0.073975,0.578247,-0.810059,506
19493071,10005,-0.074829,0.575806,-0.809448,510
19503097,10026,-0.075439,0.576172,-0.807007,509
19515484,12387,-0.077148,0.577148,-0.804321,504
19523074,7590,-0.075928,0.578125,-0.803101,510
19533066,9992,-0.073853,0.580444,-0.801392,509
19543072,10006,-0.071167,0.578979,-0.803589,505
19553075,10003,-0.072388,0.578369,-0.804443,511
19563069,9994,-0.072876,0.576050,-0.805298,509
19573082,10013,-0.072266,0.574951,-0.802612,512
19583082,10000,-0.071289,0.575928,-0.803345,512
19593065,9983,-0.071411,0.578857,-0.809814,511
19603066,10001,-0.073730,0.578491,-0.812866,506
19613075,10009,-0.075684,0.577026,-0.813965,503
19623074,9999,-0.077759,0.576050,-0.813843,503
19633067,9993,-0.078125,0.576050,-0.811279,503
19643070,10003,-0.077515,0.578003,-0.809204,512
19653088,10018,-0.072144,0.579468,-0.806763,512
19663063,9975,-0.069824,0.579102,-0.806763,516
19673082,10019,-0.069336,0.576050,-0.806519,510
19683062,9980,-0.067871,0.574707,-0.807007,518
19693085,10023,-0.068848,0.575317,-0.807495,517
19703063,9978,-0.069336,0.576172,-0.807007,517
19713073,10010,-0.070068,0.576172,-0.807251,526
19723079,10006,-0.071289,0.575684,-0.808960,527
19733088,10009,-0.074585,0.576538,-0.809204,527
19743081,9993,-0.075928,0.574951,-0.812866,524
19753084,10003,-0.074585,0.576294,-0.815796,528
19763062,9978,-0.073975,0.576660,-0.814819,529
19773080,10018,-0.073120,0.577515,-0.811890,526
19783072,9992,-0.071655,0.580078,-0.806030,520
19793085,10013,-0.073120,0.581421,-0.801147,526
19803083,9998,-0.072388,0.582275,-0.796753,519
19813088,10005,-0.071899,0.582642,-0.801147,523
19823076,9988,-0.072510,0.581665,-0.804565,521
19833073,9997,-0.076538,0.578979,-0.809326,521
19843078,10005,-0.080200,0.575562,-0.809937,519
19853073,9995,-0.081543,0.574341,-0.809448,518
19863059,9986,-0.080322,0.577393,-0.809082,519
19873112,10053,-0.078613,0.575806,-0.807129,518
19883074,9962,-0.076660,0.577026,-0.806519,514
19893074,10000,-0.075562,0.579956,-0.804810,514
19903085,10011,-0.074341,0.581909,-0.802612,515
19913063,9978,-0.074097,0.583374,-0.800415,513
19923083,10020,-0.071045,0.583984,-0.801025,515
19933073,9990,-0.071289,0.583252,-0.804932,513
19943064,9991,-0.071045,0.582275,-0.806763,513
19953083,10019,-0.072510,0.577271,-0.807739,514
19963073,9990,-0.074951,0.574951,-0.809570,512
19973075,10002,-0.074463,0.572144,-0.812622,507
19983072,9997,-0.072266,0.574097,-0.814453,512
19993066,9994,-0.070557,0.573486,-0.813599,511
20003088,10022,-0.070435,0.573486,-0.811035,514
20013068,9980,-0.072266,0.574219,-0.808838,513
20023071,10003,-0.072876,0.578491,-0.802856,513
20033080,10009,-0.072754,0.582642,-0.801636,513
20043064,9984,-0.072632,0.582886,-0.802979,513
20053076,10012,-0.072388,0.583252,-0.805664,508
20063075,9999,-0.073120,0.579346,-0.808472,507
20073083,10008,-0.075439,0.574341,-0.811035,512
20083072,9989,-0.078125,0.574463,-0.813354,515
20093087,10015,-0.079956,0.574463,-0.815918,507
20103064,9977,-0.081421,0.574219,-0.816162,507
20113067,10003,-0.080444,0.574707,-0.816040,510
20123084,10017,-0.079834,0.575073,-0.811279,510
20133076,9992,-0.075317,0.575806,-0.804932,508
20143067,9991,-0.073242,0.579346,-0.804321,510
20153060,9993,-0.070435,0.579590,-0.804932,507
20163062,10002,-0.069214,0.578613,-0.805176,509
20173068,10006,-0.069702,0.577026,-0.805908,511
20183072,10004,-0.071045,0.576538,-0.804932,503
20193082,10010,-0.072144,0.576904,-0.806030,503
20203061,9979,-0.071289,0.578247,-0.806885,508
20213084,10023,-0.072876,0.578735,-0.809082,511
20223073,9989,-0.075073,0.577759,-0.808350,509
20233079,10006,-0.077637,0.577148,-0.807739,510
20243069,9990,-0.078247,0.575806,-0.807983,510
20253068,9999,-0.078125,0.576172,-0.807617,509
20263070,10002,-0.078857,0.579468,-0.807495,509
20273081,10011,-0.079224,0.575806,-0.809692,511
20283073,9992,-0.078491,0.573486,-0.811157,509
20293074,10001,-0.077393,0.574829,-0.812012,504
20303081,10007,-0.078125,0.572876,-0.810425,503
20313062,9981,-0.077637,0.573730,-0.805664,513
20323080,10018,-0.077148,0.575439,-0.802002,503
20333083,10003,-0.076050,0.578979,-0.801025,510
20343067,9984,-0.070435,0.580444,-0.805054,509
20353074,10007,-0.072388,0.580322,-0.806763,502
20363068,9994,-0.073486,0.576660,-0.809204,508
20373079,10011,-0.075806,0.575195,-0.810425,512
20383068,9989,-0.077881,0.574219,-0.811890,511
20393065,9997,-0.079590,0.575073,-0.812378,511
20403075,10010,-0.078369,0.574585,-0.811768,511
20413077,10002,-0.078003,0.573120,-0.811646,508
20423079,10002,-0.078125,0.572754,-0.811157,513
20433078,9999,-0.076172,0.572021,-0.808716,519
20443088,10010,-0.075195,0.571777,-0.808838,521
20453062,9974,-0.072632,0.573486,-0.807617,515
20463078,10016,-0.071899,0.575195,-0.807251,522
20473061,9983,-0.073242,0.576050,-0.807861,524
20483075,10014,-0.075806,0.577881,-0.808594,526
20493062,9987,-0.076538,0.578125,-0.809448,528
20503062,10000,-0.075684,0.576538,-0.808960,527
20513059,9997,-0.074463,0.575684,-0.810303,524
20523070,10011,-0.075195,0.574097,-0.812134,522
20533084,10014,-0.074707,0.572998,-0.810547,528
20543061,9977,-0.074585,0.571289,-0.810913,518
20553060,9999,-0.075195,0.570801,-0.810425,523
20563068,10008,-0.076416,0.574219,-0.812012,515
20573074,10006,-0.077148,0.574341,-0.813110,522
20583070,9996,-0.078247,0.574829,-0.812012,520
20593083,10013,-0.077515,0.574341,-0.810791,513
20603081,9998,-0.078735,0.574219,-0.808594,518
20613062,9981,-0.075317,0.575073,-0.809204,510
20623079,10017,-0.074341,0.575195,-0.810669,512
20633084,10005,-0.075073,0.574219,-0.809570,516
20643074,9990,-0.076050,0.573120,-0.809326,514
20653076,10002,-0.075317,0.572632,-0.808716,514
20663062,9986,-0.074463,0.577759,-0.806641,510
20673075,10013,-0.073730,0.578491,-0.808350,511
20683064,9989,-0.074585,0.577393,-0.808350,511
20693060,9996,-0.077026,0.576904,-0.808960,512
20703086,10026,-0.078491,0.575684,-0.809082,511
20713086,10000,-0.079346,0.574585,-0.809082,511
20723074,9988,-0.077515,0.575073,-0.811523,505
20733075,10001,-0.076782,0.574707,-0.811890,511
20743082,10007,-0.076782,0.573975,-0.809814,512
20753074,9992,-0.074951,0.572388,-0.808716,507
20763084,10010,-0.073853,0.573242,-0.809082,508
20773078,9994,-0.074707,0.576172,-0.811035,505
20783060,9982,-0.074951,0.575806,-0.811401,512
20793083,10023,-0.076416,0.576538,-0.809326,508
20803080,9997,-0.076782,0.574951,-0.807983,514
20813088,10008,-0.076782,0.576416,-0.806641,509
20823073,9985,-0.074341,0.575806,-0.807983,507
20833059,9986,-0.074341,0.575562,-0.808716,511
20843095,10036,-0.074829,0.574463,-0.809448,510
20853081,9986,-0.077148,0.574463,-0.809814,506
20863072,9991,-0.076782,0.573242,-0.809692,503
20873059,9987,-0.078003,0.572876,-0.809448,508
20883060,10001,-0.075684,0.577637,-0.809082,504
20893076,10016,-0.076416,0.578735,-0.808350,511
20903081,10005,-0.077271,0.577759,-0.806641,509
20913082,10001,-0.077637,0.575806,-0.804565,507
20923068,9986,-0.075684,0.574707,-0.803955,507
20933078,10010,-0.073975,0.578491,-0.806274,509
20943086,10008,-0.074707,0.578979,-0.808350,507
20953088,10002,-0.074951,0.576172,-0.809814,502
20963068,9980,-0.076172,0.574707,-0.811157,508
20973061,9993,-0.075928,0.574219,-0.810669,509
20983066,10005,-0.076782,0.574219,-0.810791,508
20993066,10000,-0.074951,0.576782,-0.809570,508
21003074,10008,-0.073853,0.578613,-0.809814,508
21013074,10000,-0.074341,0.578125,-0.808472,502
21023083,10009,-0.073242,0.576050,-0.807861,510
21033071,9988,-0.072632,0.574097,-0.809204,510
21043077,10006,-0.072510,0.572754,-0.811523,510
21053078,10001,-0.072998,0.572388,-0.813354,505
21063070,9992,-0.075317,0.575317,-0.812744,511
21073074,10004,-0.076416,0.576050,-0.812622,510
21083064,9990,-0.075806,0.577026,-0.809082,510
21093072,10008,-0.074341,0.578369,-0.805786,508
21103080,10008,-0.075317,0.579590,-0.805420,511
21113069,9989,-0.075073,0.581543,-0.805420,511
21123089,10020,-0.075439,0.578735,-0.802979,511
21133081,9992,-0.075073,0.578369,-0.802368,505
21143067,9986,-0.074463,0.576660,-0.808960,507
21153060,9993,-0.077393,0.576416,-0.811646,507
21163079,10019,-0.079224,0.576782,-0.813721,504
21173085,10006,-0.081909,0.575562,-0.814209,510
21183079,9994,-0.082642,0.576050,-0.810425,503
21193071,9992,-0.082397,0.576538,-0.807617,503
21203087,10016,-0.076660,0.575928,-0.802612,512
21213059,9972,-0.073730,0.574585,-0.802490,512
21223067,10008,-0.069580,0.573853,-0.803345,509
21233086,10019,-0.069214,0.572510,-0.805176,509
21243071,9985,-0.070435,0.573853,-0.809082,513
21253067,9996,-0.071167,0.577881,-0.809326,520
21263067,10000,-0.072021,0.575684,-0.809692,525
21273063,9996,-0.074463,0.573120,-0.809326,522
21283059,9996,-0.076294,0.576050,-0.809326,525
21293064,10005,-0.079712,0.583008,-0.809570,522
21303067,10003,-0.081543,0.583984,-0.809814,522
21313063,9996,-0.081787,0.582397,-0.803101,528
21323076,10013,-0.081421,0.584229,-0.802246,523
21333082,10006,-0.080444,0.583130,-0.803711,526
21343071,9989,-0.078979,0.580322,-0.802734,522
21353087,10016,-0.073853,0.577881,-0.801880,517
21363076,9989,-0.070312,0.573730,-0.802856,523
21373082,10006,-0.070923,0.569946,-0.808472,519
21383087,10005,-0.071777,0.567871,-0.814575,519
21393074,9987,-0.071533,0.565308,-0.818237,514
21403084,10010,-0.071777,0.562744,-0.820190,515
21413083,9999,-0.076660,0.565552,-0.817871,514
21423059,9976,-0.078003,0.570679,-0.812500,516
21433063,10004,-0.079712,0.576660,-0.808228,514
21443077,10014,-0.078613,0.585571,-0.804199,513
21453080,10003,-0.077881,0.590820,-0.804565,511
21463062,9982,-0.078491,0.585815,-0.804810,509
21473059,9997,-0.074585,0.579956,-0.801758,505
21483063,10004,-0.072510,0.578613,-0.804321,511
21493076,10013,-0.072876,0.575562,-0.807373,507
21503075,9999,-0.073486,0.571411,-0.809570,504
21513066,9991,-0.074097,0.568848,-0.811401,510
21526239,13173,-0.075073,0.566895,-0.815674,507
21533070,6831,-0.074829,0.567993,-0.814209,511
21543069,9999,-0.075317,0.569824,-0.812500,511
21553082,10013,-0.074463,0.572754,-0.810303,510
21563060,9978,-0.071289,0.577026,-0.807373,504
21573076,10016,-0.071899,0.582520,-0.801147,511
21583082,10006,-0.072876,0.581421,-0.801025,508
21593074,9992,-0.073853,0.578979,-0.800903,510
21603070,9996,-0.076172,0.580444,-0.804199,507
21613081,10011,-0.078491,0.580811,-0.809814,509
21623073,9992,-0.079956,0.579346,-0.813477,511
21633086,10013,-0.077881,0.573120,-0.815552,510
21643075,9989,-0.076782,0.571045,-0.815063,503
21653063,9988,-0.076050,0.571777,-0.813599,510
21663074,10011,-0.075317,0.573120,-0.812256,510
21673073,9999,-0.074707,0.573242,-0.810303,509
21683073,10000,-0.072266,0.575928,-0.804199,510
21693063,9990,-0.071167,0.575195,-0.802490,501
21703086,10023,-0.072998,0.575073,-0.801880,503
21713061,9975,-0.074585,0.575073,-0.803711,507
21723085,10024,-0.076172,0.577393,-0.806152,511
21733072,9987,-0.077026,0.578125,-0.813477,506
21743085,10013,-0.080322,0.575439,-0.816528,509
21753079,9994,-0.079834,0.572510,-0.814331,510
21763072,9993,-0.078125,0.570435,-0.813965,509
21773059,9987,-0.075684,0.570557,-0.812622,511
21783086,10027,-0.073486,0.572021,-0.809692,509
21793065,9979,-0.071167,0.576538,-0.804077,501
21803082,10017,-0.073120,0.577026,-0.803467,507
21813066,9984,-0.072876,0.578491,-0.803467,504
21823088,10022,-0.074097,0.582886,-0.803345,506
21833080,9992,-0.075806,0.583618,-0.804687,507
21843086,10006,-0.078857,0.577148,-0.807373,509
21853083,9997,-0.082031,0.574219,-0.808228,509
21863063,9980,-0.083252,0.572632,-0.808105,504
21873085,10022,-0.081543,0.571289,-0.810425,507
21883077,9992,-0.081665,0.571899,-0.812256,508
21893061,9984,-0.079834,0.574097,-0.812256,511
21903087,10026,-0.076904,0.573120,-0.812134,506
21913066,9979,-0.075073,0.573853,-0.809692,511
21923064,9998,-0.073364,0.573730,-0.809082,509
21933060,9996,-0.072021,0.575928,-0.808350,503
21943061,10001,-0.067749,0.579834,-0.808105,510
21953097,10036,-0.067139,0.582642,-0.804443,501
21963079,9982,-0.067505,0.581177,-0.802856,509
21973066,9987,-0.068848,0.581055,-0.803223,503
21983087,10021,-0.071777,0.580811,-0.802734,504
21993074,9987,-0.072998,0.578491,-0.805176,504
22003084,10010,-0.077148,0.576294,-0.812622,512
22013088,10004,-0.078857,0.573120,-0.815186,510
22023084,9996,-0.079590,0.570801,-0.815918,514
22033075,9991,-0.078735,0.567749,-0.815430,511
22043067,9992,-0.078369,0.569458,-0.813721,516
22053078,10011,-0.076782,0.571777,-0.808472,518
22063072,9994,-0.073853,0.578003,-0.805908,522
22073059,9987,-0.071777,0.580688,-0.804443,519
22083078,10019,-0.071777,0.580688,-0.803589,519
22093082,10004,-0.072998,0.578369,-0.803345,523
22103077,9995,-0.073120,0.578247,-0.804810,525
22113079,10002,-0.077148,0.580688,-0.809082,525
22123079,10000,-0.078369,0.580444,-0.811157,524
22133071,9992,-0.079224,0.579468,-0.810913,524
22143069,9998,-0.078491,0.578125,-0.808350,522
22153064,9995,-0.076904,0.575195,-0.806396,522
22163061,9997,-0.074219,0.573120,-0.806396,518
22173087,10026,-0.075317,0.574951,-0.806641,517
22183076,9989,-0.075317,0.577026,-0.806519,515
22193078,10002,-0.075195,0.577148,-0.806641,516
22203091,10013,-0.075562,0.577759,-0.804687,508
22213064,9973,-0.074341,0.578247,-0.806030,508
22223072,10008,-0.074585,0.575806,-0.806030,506
22233079,10007,-0.075806,0.576050,-0.806030,512
22243074,9995,-0.075684,0.577515,-0.807617,510
22253083,10009,-0.077271,0.579346,-0.808716,510
22263077,9994,-0.076660,0.581543,-0.808472,507
22273062,9985,-0.076904,0.575806,-0.808960,511
22283078,10016,-0.075195,0.573364,-0.808716,507
22293060,9982,-0.074707,0.570557,-0.808350,505
22303083,10023,-0.072266,0.566772,-0.808594,506
22313071,9988,-0.071411,0.571167,-0.807251,506
22323074,10003,-0.072388,0.568970,-0.812012,511
22333102,10028,-0.075073,0.571533,-0.815063,511
22343065,9963,-0.075928,0.573486,-0.816162,511
22353080,10015,-0.077759,0.573364,-0.816284,504
22363086,10006,-0.077759,0.573486,-0.813354,512
22373061,9975,-0.076782,0.574341,-0.810791,509
22383073,10012,-0.075195,0.581665,-0.804443,512
22393078,10005,-0.075317,0.582153,-0.804321,507
22403073,9995,-0.075195,0.580566,-0.806519,512
22413069,9996,-0.074829,0.578003,-0.805908,507
22423067,9998,-0.073486,0.575562,-0.806763,512
22433068,10001,-0.076172,0.572876,-0.807861,506
22443078,10010,-0.077759,0.573486,-0.808716,508
22453066,9988,-0.078857,0.573730,-0.809937,507
22463071,10005,-0.081787,0.572388,-0.811523,512
22473076,10005,-0.082031,0.570801,-0.813232,506
22483079,10003,-0.083130,0.573120,-0.810059,509
22493060,9981,-0.082764,0.577515,-0.808472,509
22503061,10001,-0.080566,0.578125,-0.807617,507
22513074,10013,-0.077759,0.575806,-0.806519,508
22523086,10012,-0.074951,0.575562,-0.804565,512
22538358,15272,-0.072266,0.574829,-0.805786,505
22545999,7641,-0.071655,0.575439,-0.804687,507
22553089,7090,-0.070923,0.575195,-0.804565,502
22563083,9994,-0.073364,0.575562,-0.804077,504
22573075,9992,-0.075195,0.574463,-0.805420,503
22583065,9990,-0.077271,0.575684,-0.807739,509
22593072,10007,-0.077515,0.574341,-0.812988,510
22603087,10015,-0.077759,0.573608,-0.812500,510
22613067,9980,-0.076904,0.573730,-0.812866,510
22623081,10014,-0.078491,0.571167,-0.813477,507
22633088,10007,-0.078125,0.568604,-0.814697,510
22643078,9990,-0.076050,0.573853,-0.811157,507
22653068,9990,-0.074951,0.570312,-0.811401,502
22663071,10003,-0.076294,0.572266,-0.812256,508
22673077,10006,-0.076294,0.576294,-0.811157,509
22683087,10010,-0.075439,0.580200,-0.810181,507
22693075,9988,-0.073853,0.580200,-0.809570,511
22703073,9998,-0.073120,0.574463,-0.807861,509
22713061,9988,-0.073853,0.574829,-0.808350,502
22723071,10010,-0.075439,0.573608,-0.808105,509
22733084,10013,-0.074341,0.572021,-0.806763,510
22743084,10000,-0.075439,0.573975,-0.806763,507
22753086,10002,-0.076416,0.569702,-0.811523,508
22763064,9978,-0.077637,0.570679,-0.812866,503
22773088,10024,-0.079468,0.573120,-0.813110,509
22783103,10015,-0.080566,0.570801,-0.814697,501
22793080,9977,-0.084229,0.569702,-0.816040,507
22803081,10001,-0.083984,0.571899,-0.814453,504
22813072,9991,-0.080078,0.573975,-0.811279,512
22823098,10026,-0.078125,0.574341,-0.810059,512
22833067,9969,-0.075684,0.573364,-0.808838,514
22843063,9996,-0.073608,0.571655,-0.808472,514
22853080,10017,-0.072754,0.572510,-0.808716,515
22863064,9984,-0.074341,0.575439,-0.806396,519
22873084,10020,-0.076294,0.574829,-0.807617,521
22883066,9982,-0.076782,0.575195,-0.807983,521
22893088,10022,-0.078003,0.576050,-0.809448,523
22903081,9993,-0.080322,0.576904,-0.810913,522
22913077,9996,-0.080566,0.573242,-0.810913,525
22923089,10012,-0.081299,0.571533,-0.811890,523
22933062,9973,-0.080322,0.571167,-0.811646,519
22943113,10051,-0.078491,0.570435,-0.810059,521
22953075,9962,-0.076904,0.569702,-0.810547,519
22963061,9986,-0.076782,0.573730,-0.806274,517
22973079,10018,-0.077393,0.574951,-0.807007,518
22983067,9988,-0.078003,0.578491,-0.806274,514
22993079,10012,-0.077515,0.578979,-0.805542,511
23003067,9988,-0.075073,0.577271,-0.807495,512
23013083,10016,-0.075806,0.574219,-0.811157,507
23023094,10011,-0.076416,0.571045,-0.812866,511
23033076,9982,-0.077271,0.571167,-0.814575,508
23043077,10001,-0.078125,0.573608,-0.815063,511
23053078,10001,-0.079102,0.573608,-0.814453,506
23063099,10021,-0.078857,0.573242,-0.814331,510
23073076,9977,-0.079346,0.571655,-0.810791,503
23083081,10005,-0.080933,0.572510,-0.807373,504
23093070,9989,-0.082397,0.572998,-0.804687,508
23103070,10000,-0.083008,0.575439,-0.804810,511
23113082,10012,-0.082275,0.577759,-0.805664,510
23123080,9998,-0.081665,0.577515,-0.807861,512
23133064,9984,-0.079346,0.577148,-0.808472,512
23143086,10022,-0.078247,0.577271,-0.810181,508
23153059,9973,-0.079712,0.576050,-0.813965,512
23163064,10005,-0.078369,0.577148,-0.816162,512
23173086,10022,-0.076782,0.575562,-0.813965,512
23183071,9985,-0.072632,0.572266,-0.810303,507
23193069,9998,-0.072632,0.572144,-0.809692,513
23203086,10017,-0.072021,0.569580,-0.809570,512
23213070,9984,-0.072632,0.570312,-0.808350,513
23223066,9996,-0.073853,0.572144,-0.806396,512
23233073,10007,-0.076660,0.572754,-0.806519,510
23243084,10011,-0.079102,0.574463,-0.804077,511
23253075,9991,-0.080811,0.577026,-0.803101,511
23263060,9985,-0.081299,0.578857,-0.802856,509
23273085,10025,-0.080078,0.578613,-0.802612,510
23283081,9996,-0.077881,0.581177,-0.804565,509
23293066,9985,-0.075439,0.579590,-0.805176,508
23303081,10015,-0.077759,0.576538,-0.807373,509
23313065,9984,-0.076660,0.573486,-0.809448,509
23323068,10003,-0.077515,0.573730,-0.809937,508
23333076,10008,-0.077637,0.573975,-0.811768,509
23343086,10010,-0.077271,0.574097,-0.812012,511
23353059,9973,-0.077271,0.574585,-0.810913,507
23363077,10018,-0.077881,0.574951,-0.809326,509
23373088,10011,-0.077148,0.573730,-0.807373,504
23383087,9999,-0.075928,0.572754,-0.806152,511
23393059,9972,-0.072266,0.572021,-0.806396,509
23403068,10009,-0.070190,0.571777,-0.804810,504
23413087,10019,-0.070435,0.573730,-0.806519,508
23423114,10027,-0.070923,0.573364,-0.808472,509
23433083,9969,-0.073730,0.574463,-0.812744,503
23443060,9977,-0.077026,0.573486,-0.818970,512
23453059,9999,-0.077026,0.575684,-0.817261,510
23463087,10028,-0.076172,0.576538,-0.816772,506
23473079,9992,-0.074951,0.569946,-0.812500,512
23483070,9991,-0.074951,0.565308,-0.808228,512
23493059,9989,-0.076782,0.566406,-0.804932,509
23503076,10017,-0.079468,0.569336,-0.804321,509
23513085,10009,-0.081421,0.573120,-0.808716,509
23523078,9993,-0.082764,0.577148,-0.812988,510
23533070,9992,-0.085327,0.577759,-0.815796,505
23543094,10024,-0.087891,0.577515,-0.813354,511
23556042,12948,-0.084106,0.576050,-0.811279,506
23563073,7031,-0.082764,0.577759,-0.810181,510
23573061,9988,-0.080444,0.576538,-0.809204,512
23583083,10022,-0.078369,0.574219,-0.807251,507
23593062,9979,-0.075806,0.569458,-0.805664,514
23603063,10001,-0.073853,0.567993,-0.807373,514
23613072,10009,-0.074463,0.567749,-0.808716,511
23623063,9991,-0.075684,0.570190,-0.809692,517
23633074,10011,-0.075439,0.572510,-0.811401,520
23643065,9991,-0.075684,0.573608,-0.813721,516
23653072,10007,-0.076294,0.572998,-0.814453,524
23663075,10003,-0.074585,0.572632,-0.816162,524
23673063,9988,-0.075317,0.572998,-0.815308,521
23683073,10010,-0.075073,0.571777,-0.812866,521
23693061,9988,-0.076416,0.571167,-0.810303,523
23703067,10006,-0.077393,0.571411,-0.807861,522
23713060,9993,-0.075806,0.574463,-0.809692,520
23723078,10018,-0.075806,0.573730,-0.809204,519
23733083,10005,-0.078369,0.572144,-0.809204,517
23743086,10003,-0.080811,0.570435,-0.807617,516
23753078,9992,-0.082275,0.574341,-0.805786,513
23763085,10007,-0.082031,0.574219,-0.810303,516
23773083,9998,-0.078491,0.572510,-0.814819,515
23783075,9992,-0.079956,0.572754,-0.816650,511
23793073,9998,-0.079346,0.569946,-0.814453,512
23803085,10012,-0.079468,0.567139,-0.816772,512
23813059,9974,-0.078613,0.568115,-0.816284,512
23823072,10013,-0.078247,0.569580,-0.810181,512
23833075,10003,-0.077759,0.572021,-0.806641,510
23843083,10008,-0.076904,0.575562,-0.802368,509
23853080,9997,-0.076660,0.577515,-0.801392,513
23863078,9998,-0.076416,0.577515,-0.803101,508
23873059,9981,-0.077637,0.574341,-0.808716,512
23883066,10007,-0.078735,0.572876,-0.812256,503
23893067,10001,-0.079834,0.570923,-0.814697,510
23903070,10003,-0.079834,0.570435,-0.815552,512
23913111,10041,-0.078979,0.570923,-0.814087,507
23923087,9976,-0.079468,0.573608,-0.807251,504
23933070,9983,-0.077393,0.575073,-0.805786,506
23943068,9998,-0.077148,0.576172,-0.805298,514
23953065,9997,-0.076782,0.574585,-0.805542,513
23963067,10002,-0.077271,0.573975,-0.806152,512
23973066,9999,-0.077881,0.573975,-0.810181,513
23983061,9995,-0.080688,0.576538,-0.816040,507
23993088,10027,-0.081543,0.572998,-0.815308,512
24003080,9992,-0.082275,0.571411,-0.812622,512
24013059,9979,-0.081543,0.572876,-0.811646,511
24023074,10015,-0.080566,0.570923,-0.810669,506
24033081,10007,-0.078613,0.569824,-0.811401,508
24043067,9986,-0.076660,0.569458,-0.812378,509
24053059,9992,-0.076904,0.567993,-0.811890,505
24063083,10024,-0.076172,0.569336,-0.813843,509
24073067,9984,-0.075439,0.570068,-0.816040,511
24083082,10015,-0.075195,0.570190,-0.811279,504
24093066,9984,-0.074585,0.570435,-0.808838,504
24103073,10007,-0.075439,0.572754,-0.808350,508
24113086,10013,-0.073975,0.571045,-0.807861,508
24123072,9986,-0.073853,0.571899,-0.808350,509
24133065,9993,-0.074951,0.573608,-0.809937,512
24143067,10002,-0.080933,0.574951,-0.809814,510
24153088,10021,-0.082397,0.574097,-0.808960,507
24163081,9993,-0.084717,0.574341,-0.809937,509
24173094,10013,-0.084961,0.575684,-0.812256,510
24183068,9974,-0.084961,0.578491,-0.814697,506
24193076,10008,-0.085083,0.572021,-0.818359,510
24203064,9988,-0.084229,0.565796,-0.816406,510
24213078,10014,-0.082764,0.563843,-0.811890,510
24223077,9999,-0.080200,0.563721,-0.808838,510
24233084,10007,-0.076538,0.567749,-0.807007,511
24243082,9998,-0.074219,0.570557,-0.806274,511
24253106,10024,-0.074219,0.576904,-0.807495,506
24263078,9972,-0.074341,0.579834,-0.807251,509
24273076,9998,-0.075317,0.579346,-0.806030,509
24283060,9984,-0.078125,0.579956,-0.805298,508
24293064,10004,-0.079712,0.581787,-0.803345,510
24303070,10006,-0.082031,0.581909,-0.806396,510
24313060,9990,-0.081787,0.580688,-0.805786,511
24323066,10006,-0.081421,0.578125,-0.804565,514
24333084,10018,-0.079590,0.573730,-0.807373,517
24343059,9975,-0.076416,0.570557,-0.810059,515
24353064,10005,-0.074097,0.569702,-0.814697,517
24363063,9999,-0.071411,0.568481,-0.815430,513
24373075,10012,-0.070435,0.567505,-0.813843,524
24383070,9995,-0.069702,0.571411,-0.809937,519
24393088,10018,-0.067871,0.574463,-0.806030,521
24403065,9977,-0.066528,0.578735,-0.802856,523
24413071,10006,-0.071411,0.579834,-0.805420,526
24423087,10016,-0.074829,0.580078,-0.807617,525
24433076,9989,-0.078613,0.579712,-0.808228,521
24443068,9992,-0.083618,0.578613,-0.804565,524
24453087,10019,-0.085327,0.576172,-0.806274,524
24463072,9985,-0.086914,0.573486,-0.813965,521
24473083,10011,-0.085571,0.569946,-0.816528,520
24483063,9980,-0.083862,0.568115,-0.815430,518
24493072,10009,-0.082886,0.569458,-0.814453,515
24503094,10022,-0.081909,0.568970,-0.811768,514
24513086,9992,-0.075806,0.570312,-0.807129,512
24523086,10000,-0.075928,0.573730,-0.804932,516
24533081,9995,-0.074463,0.577881,-0.801514,511
24543085,10004,-0.074829,0.581421,-0.801025,511
24553079,9994,-0.075806,0.581543,-0.802612,512
24566206,13127,-0.078857,0.579712,-0.804810,506
24573068,6862,-0.080078,0.576416,-0.807983,514
24583088,10020,-0.080444,0.573242,-0.813721,513
24593073,9985,-0.080933,0.569946,-0.816162,504
24603075,10002,-0.080688,0.565796,-0.817627,512
24613066,9991,-0.079956,0.562622,-0.819092,512
24623073,10007,-0.076904,0.564331,-0.817505,512
24633068,9995,-0.075439,0.567383,-0.813843,508
24643066,9998,-0.073730,0.570679,-0.811768,510
24653079,10013,-0.073120,0.574097,-0.808716,511
24663087,10008,-0.071777,0.578003,-0.807495,513
24673063,9976,-0.076172,0.582275,-0.804077,511
24683067,10004,-0.077759,0.583130,-0.803101,509
24693071,10004,-0.078247,0.582275,-0.803101,507
24703074,10003,-0.080322,0.580811,-0.805664,509
24713085,10011,-0.081787,0.578735,-0.808838,516
24723087,10002,-0.082886,0.574097,-0.811768,510
24733085,9998,-0.083740,0.567261,-0.816162,514
24743065,9980,-0.081543,0.565674,-0.815430,512
24753092,10027,-0.080322,0.567627,-0.814087,514
24763086,9994,-0.078003,0.565552,-0.814453,514
24773076,9990,-0.076172,0.562866,-0.816406,511
24783060,9984,-0.075317,0.569946,-0.809204,512
24793083,10023,-0.076660,0.575684,-0.805786,511
24803088,10005,-0.077026,0.578003,-0.805786,511
24813081,9993,-0.078735,0.579224,-0.805786,510
24823085,10004,-0.078491,0.580200,-0.804565,503
24833072,9987,-0.078613,0.576904,-0.808716,505
24843084,10012,-0.080322,0.574219,-0.809326,509
24853080,9996,-0.080200,0.570557,-0.809814,510
24863086,10006,-0.081787,0.568726,-0.811646,510
24873075,9989,-0.083618,0.568848,-0.814331,511
24883086,10011,-0.084595,0.567505,-0.816772,509
24893074,9988,-0.085693,0.568481,-0.815308,509
24903083,10009,-0.084717,0.567871,-0.814575,503
24913074,9991,-0.082153,0.569214,-0.815674,507
24923081,10007,-0.078735,0.572021,-0.813477,510
24933068,9987,-0.077271,0.574219,-0.811890,504
24943065,9997,-0.076172,0.572021,-0.807251,512
24953080,10015,-0.075195,0.570679,-0.804565,506
24963071,9991,-0.074097,0.570801,-0.805542,511
24973066,9995,-0.073975,0.570923,-0.808960,510
24983074,10008,-0.074219,0.570679,-0.816406,512
24993072,9998,-0.076660,0.564575,-0.821899,511
25003083,10011,-0.083496,0.563477,-0.821411,511
25013085,10002,-0.083374,0.563965,-0.818237,510
25023065,9980,-0.081299,0.567383,-0.813965,512
25033082,10017,-0.080078,0.571655,-0.810181,512
25043074,9992,-0.077881,0.574463,-0.806885,513
25053083,10009,-0.076782,0.575928,-0.801392,514
25063077,9994,-0.075562,0.576538,-0.803223,513
25073080,10003,-0.075317,0.577026,-0.804565,515
25083067,9987,-0.077515,0.577026,-0.807373,519
25093062,9995,-0.077881,0.575317,-0.808960,518
25103072,10010,-0.082031,0.573242,-0.811768,522
25113074,10002,-0.084229,0.572021,-0.814697,524
25123086,10012,-0.084351,0.569214,-0.815918,524
25133072,9986,-0.084717,0.568359,-0.815430,525
25143062,9990,-0.082642,0.568115,-0.813843,519
25153071,10009,-0.082153,0.569336,-0.812622,523
25163083,10012,-0.079956,0.570923,-0.810669,517
25173060,9977,-0.079590,0.571899,-0.809326,522
25183073,10013,-0.077881,0.573975,-0.808472,516
25193085,10012,-0.078125,0.572876,-0.807129,519
25203071,9986,-0.078613,0.573608,-0.807495,518
25213077,10006,-0.081421,0.573486,-0.808228,517
25223077,10000,-0.081787,0.572266,-0.809692,515
25233070,9993,-0.082642,0.572144,-0.811523,510
25243059,9989,-0.079956,0.568970,-0.812622,514
25253068,10009,-0.077393,0.565918,-0.813477,513
25263074,10006,-0.076172,0.565430,-0.816528,508
25273084,10010,-0.076660,0.567993,-0.814941,514
25283059,9975,-0.077148,0.572021,-0.812134,511
25293071,10012,-0.079102,0.574951,-0.811646,510
25303079,10008,-0.079834,0.575073,-0.810547,509
25313072,9993,-0.079834,0.577393,-0.811768,513
25323063,9991,-0.080322,0.574219,-0.812622,511
25333062,9999,-0.079712,0.576416,-0.809448,512
25343076,10014,-0.078979,0.575439,-0.809326,504
25353075,9999,-0.077881,0.571777,-0.809448,508
25363075,10000,-0.077881,0.569580,-0.810547,507
25373074,9999,-0.078125,0.569702,-0.812012,510
25383080,10006,-0.078247,0.569458,-0.811157,512
25393070,9990,-0.079224,0.571167,-0.810303,513
25403078,10008,-0.081543,0.573242,-0.809448,512
25413066,9988,-0.083374,0.573975,-0.809204,514
25423072,10006,-0.083008,0.574951,-0.808716,512
25433110,10038,-0.081177,0.576172,-0.810913,514
25443074,9964,-0.080200,0.574707,-0.811401,514
25453059,9985,-0.078247,0.572266,-0.810059,504
25463070,10011,-0.078613,0.571411,-0.809326,513
25473067,9997,-0.078125,0.571045,-0.810425,507
25483084,10017,-0.076050,0.573486,-0.808960,512
25493070,9986,-0.076416,0.572021,-0.808960,507
25503063,9993,-0.078125,0.571533,-0.808960,512
25513064,10001,-0.077759,0.572266,-0.809082,512
25523081,10017,-0.079224,0.575195,-0.809692,512
25533065,9984,-0.079468,0.574463,-0.810181,512
25543062,9997,-0.081543,0.575073,-0.810303,503
25553066,10004,-0.082275,0.574707,-0.812622,506
25563088,10022,-0.080688,0.572998,-0.814453,510
25577330,14242,-0.080811,0.570435,-0.813477,510
25583080,5750,0.000000,0.000000,0.000000,502
25593083,10003,-0.078857,0.570679,-0.811401,512
25603061,9978,-0.077515,0.572998,-0.810547,510
25613063,10002,-0.077393,0.573486,-0.808960,511
25623069,10006,-0.078369,0.572876,-0.807251,510
25633061,9992,-0.079102,0.572632,-0.806763,503
25643074,10013,-0.080200,0.574585,-0.808472,511
25653077,10003,-0.079712,0.574463,-0.809570,509
25663060,9983,-0.079346,0.574829,-0.809082,507
25673066,10006,-0.080444,0.573242,-0.811890,511
25683080,10014,-0.080688,0.572632,-0.810547,505
25693071,9991,-0.079712,0.569946,-0.807983,511
25703078,10007,-0.077271,0.572510,-0.809326,505
25713064,9986,-0.077515,0.574829,-0.810547,507
25723060,9996,-0.077759,0.573730,-0.811523,524
25733076,10016,-0.079834,0.573486,-0.811279,508
25743080,10004,-0.082153,0.572144,-0.811523,510
25753061,9981,-0.082275,0.572266,-0.811890,510
25763061,10000,-0.081787,0.572021,-0.812012,507
25773086,10025,-0.080688,0.571533,-0.811768,507
25783066,9980,-0.080322,0.570557,-0.811768,511
25793089,10023,-0.080322,0.570679,-0.811768,512
25803071,9982,-0.078857,0.568237,-0.809814,511
25813077,10006,-0.077515,0.569580,-0.810059,517
25823067,9990,-0.076050,0.570679,-0.809692,518
25833066,9999,-0.075073,0.572021,-0.809570,519
25843087,10021,-0.075562,0.574341,-0.808228,520
25853063,9976,-0.076416,0.575195,-0.808960,523
25863075,10012,-0.077271,0.576172,-0.810303,525
25873060,9985,-0.078491,0.575684,-0.813843,525
25883074,10014,-0.080322,0.573608,-0.812134,524
25893066,9992,-0.082642,0.570801,-0.810791,523
25903066,10000,-0.082153,0.571289,-0.811768,522
25913081,10015,-0.080566,0.574341,-0.811401,526
25923077,9996,-0.081299,0.574829,-0.810303,514
25933089,10012,-0.082275,0.574097,-0.808960,514
25943080,9991,-0.083252,0.572876,-0.807861,519
25953084,10004,-0.081543,0.571411,-0.808105,517
25963062,9978,-0.076416,0.570190,-0.807495,517
25973082,10020,-0.075928,0.571899,-0.810913,513
25983065,9983,-0.077026,0.572510,-0.813110,516
25993066,10001,-0.076294,0.571167,-0.812866,514
26003088,10022,-0.077637,0.570068,-0.812500,512
26013069,9981,-0.078979,0.575928,-0.808472,513
26023088,10019,-0.080933,0.576294,-0.807617,513
26033076,9988,-0.079956,0.576294,-0.808105,512
26043062,9986,-0.079590,0.577026,-0.808105,511
26053070,10008,-0.080200,0.574829,-0.808350,507
26063095,10025,-0.079346,0.572876,-0.809326,513
26073073,9978,-0.078613,0.571167,-0.811401,506
26083072,9999,-0.080322,0.569702,-0.811279,512
26093073,10001,-0.079102,0.572632,-0.813354,511
26103085,10012,-0.077759,0.572632,-0.811279,513
26113076,9991,-0.078247,0.572144,-0.809082,512
26123085,10009,-0.077148,0.571899,-0.809204,516
26133069,9984,-0.076172,0.574463,-0.809448,514
26143068,9999,-0.076660,0.575439,-0.809326,507
26153084,10016,-0.078247,0.574219,-0.809814,515
26163067,9983,-0.077881,0.576294,-0.809448,513
26173077,10010,-0.077515,0.576294,-0.810181,513
26183063,9986,-0.078735,0.574829,-0.809082,512
26193077,10014,-0.077271,0.574463,-0.811035,514
26203064,9987,-0.077148,0.574463,-0.810547,513
26213084,10020,-0.078247,0.571899,-0.811157,507
26223113,10029,-0.079590,0.569580,-0.809814,512
26233080,9967,-0.078735,0.572266,-0.808594,512
26243085,10005,-0.077881,0.573730,-0.811768,513
26253076,9991,-0.077393,0.573730,-0.810913,508
26263069,9993,-0.078613,0.572510,-0.811523,513
26273071,10002,-0.078125,0.572021,-0.809326,507
26283076,10005,-0.081055,0.578003,-0.808838,510
26293080,10004,-0.081299,0.579102,-0.810669,511
26303082,10002,-0.081543,0.577148,-0.810181,511
26313071,9989,-0.081055,0.574585,-0.809692,512
26323062,9991,-0.078857,0.571533,-0.808838,511
26333068,10006,-0.079590,0.570801,-0.809204,507
26343062,9994,-0.080322,0.573120,-0.809204,509
26353104,10042,-0.080811,0.573364,-0.809814,511
26363074,9970,-0.081665,0.573853,-0.809448,507
26373087,10013,-0.081177,0.572144,-0.808716,512
26383072,9985,-0.081543,0.571289,-0.808716,504
26393081,10009,-0.078979,0.574097,-0.810181,512
26403083,10002,-0.077271,0.574463,-0.811523,509
26413069,9986,-0.076172,0.574585,-0.813477,511
26423079,10010,-0.076172,0.572144,-0.814087,512
26433061,9982,-0.076172,0.574951,-0.810303,511
26443062,10001,-0.074463,0.573730,-0.804932,513
26453089,10027,-0.073486,0.572998,-0.805542,511
26463071,9982,-0.074585,0.574219,-0.808105,511
26473074,10003,-0.076782,0.574463,-0.810059,505
26483076,10002,-0.081177,0.574463,-0.811157,511
26493066,9990,-0.083252,0.572998,-0.811768,511
26503084,10018,-0.084106,0.570068,-0.809082,512
26513062,9978,-0.083008,0.568848,-0.809082,513
26523069,10007,-0.080078,0.567139,-0.807129,514
26533068,9999,-0.078979,0.566284,-0.807007,512
26543083,10015,-0.079346,0.574707,-0.810303,515
26553064,9981,-0.079346,0.577759,-0.810791,514
26563069,10005,-0.081299,0.568237,-0.813232,517
26573069,10000,-0.080200,0.569702,-0.810425,518
26583083,10014,-0.078613,0.578491,-0.807495,520
26595768,12685,-0.077881,0.579590,-0.805054,518
26603094,7326,0.000000,0.000000,0.000000,518
26613087,9993,-0.077026,0.575317,-0.807617,517
26623075,9988,-0.076660,0.574219,-0.809814,524
26633059,9984,-0.078491,0.571411,-0.813110,525
26643073,10014,-0.079712,0.569214,-0.815308,520
26653080,10007,-0.081787,0.570190,-0.815308,521
26663080,10000,-0.082153,0.572998,-0.816162,519
26673076,9996,-0.081299,0.572998,-0.814331,515
26683064,9988,-0.080322,0.574829,-0.810059,519
26693064,10000,-0.081665,0.575317,-0.808716,513
26703060,9996,-0.081665,0.576538,-0.804565,517
26713067,10007,-0.078735,0.576538,-0.802856,516
26723064,9997,-0.078003,0.577148,-0.804565,517
26733092,10028,-0.075562,0.576050,-0.807983,509
26743085,9993,-0.073853,0.574097,-0.808960,514
26753076,9991,-0.074951,0.572021,-0.812256,513
26763080,10004,-0.076660,0.570312,-0.813354,514
26773083,10003,-0.080322,0.569214,-0.812256,512
26783061,9978,-0.083618,0.569946,-0.813354,513
26793079,10018,-0.083496,0.570557,-0.813599,511
26803075,9996,-0.081177,0.574829,-0.812134,508
26813077,10002,-0.079590,0.575684,-0.809204,514
26823073,9996,-0.077637,0.573242,-0.809326,510
26833064,9991,-0.077881,0.573608,-0.809692,513
26843080,10016,-0.077148,0.573975,-0.809692,512
26853082,10002,-0.076904,0.574341,-0.810059,514
26863106,10024,-0.075562,0.573853,-0.807617,511
26873084,9978,-0.076294,0.573730,-0.808594,513
26883067,9983,-0.076294,0.573608,-0.808228,509
26893064,9997,-0.076904,0.573853,-0.808716,509
26903078,10014,-0.077637,0.574463,-0.809814,514
26913085,10007,-0.078857,0.573608,-0.810181,515
26923075,9990,-0.077759,0.572754,-0.811157,510
26933072,9997,-0.076782,0.571411,-0.811279,516
26943062,9990,-0.077637,0.571289,-0.809692,514
26953084,10022,-0.078125,0.571533,-0.808472,509
26963105,10021,-0.078735,0.571533,-0.808105,509
26973080,9975,-0.077637,0.573120,-0.807129,511
26983078,9998,-0.080200,0.577637,-0.807007,511
26993110,10032,-0.080322,0.576050,-0.806641,514
27003078,9968,-0.080933,0.576050,-0.807861,506
27013088,10010,-0.080322,0.577148,-0.807007,508
27023081,9993,-0.078979,0.575806,-0.807495,510
27033081,10000,-0.077148,0.574829,-0.807495,510
27043068,9987,-0.075684,0.573730,-0.808350,509
27053071,10003,-0.075439,0.572876,-0.808472,512
27063061,9990,-0.075928,0.571655,-0.808594,511
27073066,10005,-0.077271,0.570679,-0.809448,508
27083068,10002,-0.079590,0.571899,-0.811279,510
27093071,10003,-0.082642,0.572021,-0.811401,509
27103059,9988,-0.084595,0.572144,-0.811646,511
27113085,10026,-0.085937,0.574219,-0.811523,506
27123082,9997,-0.084229,0.577515,-0.811035,511
27133081,9999,-0.083130,0.578735,-0.809937,508
27143076,9995,-0.077026,0.575928,-0.803467,511
27153071,9995,-0.075562,0.576050,-0.805054,511
27163078,10007,-0.075317,0.574585,-0.806763,510
27173078,10000,-0.074341,0.573242,-0.806641,509
27183071,9993,-0.073120,0.573242,-0.807861,510
27193071,10000,-0.073853,0.573364,-0.813477,511
27203077,10006,-0.076172,0.571899,-0.816162,508
27213075,9998,-0.078125,0.571777,-0.815796,512
27223063,9988,-0.081543,0.571289,-0.813110,506
27233080,10017,-0.084595,0.570557,-0.807373,512
27243083,10003,-0.084595,0.573242,-0.804199,508
27253081,9998,-0.081787,0.569214,-0.808716,511
27263078,9997,-0.077393,0.569824,-0.811401,509
27273082,10004,-0.076538,0.571899,-0.813721,508
27283070,9988,-0.077148,0.571411,-0.815063,514
27293066,9996,-0.077881,0.570068,-0.816895,513
27303062,9996,-0.080933,0.569214,-0.813721,521
27313073,10011,-0.080444,0.573242,-0.812500,522
27323071,9998,-0.079956,0.576050,-0.811035,521
27333067,9996,-0.080688,0.576538,-0.808960,518
27343066,9999,-0.080444,0.573608,-0.808472,523
27353082,10016,-0.085815,0.572510,-0.809570,518
27363077,9995,-0.085449,0.572144,-0.809448,526
27373078,10001,-0.085205,0.571899,-0.811890,519
27383071,9993,-0.085815,0.570923,-0.814697,522
27393076,10005,-0.086426,0.571533,-0.816406,517
27403073,9997,-0.087036,0.572266,-0.807739,520
27413082,10009,-0.083008,0.574219,-0.804932,517
27423079,9997,-0.079590,0.575684,-0.804321,515
27433072,9993,-0.074707,0.577026,-0.806152,511
27443070,9998,-0.071655,0.575928,-0.809692,509
27453066,9996,-0.071411,0.574097,-0.810303,511
27463075,10009,-0.074707,0.567871,-0.809692,514
27473076,10001,-0.076660,0.569336,-0.808960,509
27483068,9992,-0.077637,0.571411,-0.811523,511
27493070,10002,-0.079956,0.573730,-0.812622,509
27503078,10008,-0.081909,0.573975,-0.812500,510
27513082,10004,-0.087158,0.570923,-0.810303,509
27523079,9997,-0.086670,0.570923,-0.811646,512
27533079,10000,-0.084229,0.574463,-0.812744,505
27543100,10021,-0.082520,0.572632,-0.813599,512
27553082,9982,-0.081177,0.570190,-0.813232,509
27563087,10005,-0.078735,0.568604,-0.814209,513
27573069,9982,-0.077637,0.568848,-0.810791,507
27583086,10017,-0.079956,0.570557,-0.807617,515
27593065,9979,-0.080811,0.572021,-0.807007,510
27603317,10252,-0.080688,0.574951,-0.806274,510
27613077,9760,-0.080078,0.579346,-0.806274,512
27623065,9988,-0.082520,0.576050,-0.810303,509
27633082,10017,-0.083252,0.572388,-0.811768,512
27643096,10014,-0.084717,0.569580,-0.813965,507
27653074,9978,-0.083740,0.567993,-0.813843,508
27663074,10000,-0.084595,0.571167,-0.815063,514
27673102,10028,-0.084839,0.574829,-0.811523,512
27683064,9962,-0.082764,0.574707,-0.808350,512
27693087,10023,-0.081543,0.574585,-0.804321,511
27703081,9994,-0.079102,0.571655,-0.803711,505
27713078,9997,-0.077026,0.571899,-0.805176,513
27723078,10000,-0.075439,0.572632,-0.809448,509
27733060,9982,-0.079712,0.572144,-0.812622,511
27743075,10015,-0.082764,0.572266,-0.812134,510
27753059,9984,-0.084229,0.572144,-0.813354,505
27763059,10000,-0.083984,0.571045,-0.813110,512
27773082,10023,-0.083008,0.573975,-0.812012,512
27783079,9997,-0.082031,0.573853,-0.810669,510
27793072,9993,-0.081665,0.573608,-0.808594,511
27803061,9989,-0.081421,0.574097,-0.806641,509
27813063,10002,-0.080811,0.573608,-0.804932,510
27823059,9996,-0.079468,0.575562,-0.804199,511
27833075,10016,-0.078979,0.577026,-0.809204,508
27843074,9999,-0.079224,0.574585,-0.810303,504
27853066,9992,-0.079712,0.569946,-0.811768,512
27863072,10006,-0.078857,0.568115,-0.812134,507
27873079,10007,-0.081909,0.568359,-0.810181,511
27883063,9984,-0.082153,0.569702,-0.812012,512
27893073,10010,-0.080566,0.573120,-0.813721,506
27903062,9989,-0.080200,0.572632,-0.812744,509
27913059,9997,-0.082031,0.570312,-0.811279,505
27923059,10000,-0.082153,0.571045,-0.809692,504
27933080,10021,-0.081421,0.572754,-0.809326,505
27943091,10011,-0.082397,0.576904,-0.807739,511
27953087,9996,-0.080811,0.576782,-0.807739,504
27963059,9972,-0.082275,0.573853,-0.808472,514
27973074,10015,-0.081055,0.572876,-0.809204,513
27983071,9997,-0.081543,0.570312,-0.810547,514
27993075,10004,-0.081299,0.569702,-0.816406,510
28003080,10005,-0.081421,0.568726,-0.816895,520
28013089,10009,-0.081543,0.568848,-0.813721,521
28023088,9999,-0.081177,0.569336,-0.809692,516
28033065,9977,-0.080933,0.572632,-0.809082,524
28043076,10011,-0.079712,0.576172,-0.806274,521
28053061,9985,-0.078125,0.578735,-0.806763,522
28063086,10025,-0.079956,0.578003,-0.806763,519
28073076,9990,-0.078613,0.575806,-0.808350,526
28083088,10012,-0.080566,0.574097,-0.809326,520
28093059,9971,-0.079468,0.573120,-0.809326,518
28103066,10007,-0.081421,0.570068,-0.811035,520
28113084,10018,-0.082153,0.569824,-0.810547,522
28123061,9977,-0.083130,0.570312,-0.809204,517
28133074,10013,-0.083740,0.572388,-0.809326,518
28143073,9999,-0.083496,0.571899,-0.809204,516
28153080,10007,-0.081543,0.573853,-0.806885,510
28163067,9987,-0.081299,0.574951,-0.809448,510
28173082,10015,-0.081665,0.572998,-0.808838,515
28183075,9993,-0.079590,0.573364,-0.809326,514
28193074,9999,-0.079346,0.573730,-0.809570,515
28203074,10000,-0.079712,0.574707,-0.809814,509
28213081,10007,-0.080811,0.574707,-0.809204,512
28223059,9978,-0.081055,0.573242,-0.810059,513
28233085,10026,-0.082520,0.572021,-0.811035,507
28243084,9999,-0.082520,0.571411,-0.812744,512
28253077,9993,-0.082397,0.573120,-0.812988,510
28263086,10009,-0.080444,0.571167,-0.811279,510
28273067,9981,-0.078979,0.572266,-0.809326,512
28283082,10015,-0.077759,0.573364,-0.809082,504
28293068,9986,-0.078369,0.573486,-0.806274,506
28303087,10019,-0.078613,0.574707,-0.806519,512
28313070,9983,-0.078369,0.576782,-0.805420,511
28323072,10002,-0.082397,0.573975,-0.809448,512
28333080,10008,-0.082642,0.572876,-0.812012,506
28343060,9980,-0.083740,0.572754,-0.814331,512
28353063,10003,-0.083618,0.572388,-0.813965,514
28363076,10013,-0.083252,0.570557,-0.813843,510
28373064,9988,-0.082520,0.569214,-0.811157,513
28383073,10009,-0.081299,0.569702,-0.810059,511
28393062,9989,-0.080200,0.570679,-0.808594,507
28403086,10024,-0.079834,0.573486,-0.806519,506
28413079,9993,-0.079346,0.575073,-0.807739,512
28423086,10007,-0.079712,0.575439,-0.807861,512
28433082,9996,-0.080078,0.574585,-0.809814,506
28443061,9979,-0.081543,0.575317,-0.809692,510
28453070,10009,-0.080811,0.574585,-0.812500,504
28463075,10005,-0.081177,0.574219,-0.812134,510
28473085,10010,-0.082275,0.571899,-0.812256,510
28483060,9975,-0.079712,0.570190,-0.810791,505
28493077,10017,-0.079102,0.569580,-0.809692,510
28503065,9988,-0.078735,0.570679,-0.810547,507
28513060,9995,-0.079956,0.570923,-0.809937,512
28523060,10000,-0.081177,0.571045,-0.809814,508
28533064,10004,-0.082397,0.574341,-0.811279,510
28543065,10001,-0.082520,0.575195,-0.808960,508
28553069,10004,-0.080322,0.577271,-0.809204,506
28563105,10036,-0.081299,0.576050,-0.809937,505
28573064,9959,-0.081665,0.574097,-0.811035,511
28583079,10015,-0.080688,0.569702,-0.809326,503
28593078,9999,-0.077515,0.569214,-0.808594,507
28607585,14507,-0.076416,0.571289,-0.808716,511
28613615,6030,-0.076782,0.573120,-0.810791,505
28623079,9464,-0.077393,0.572632,-0.812744,509
28633071,9992,-0.081299,0.573242,-0.813843,510
28643060,9989,-0.083984,0.573730,-0.812988,513
28653078,10018,-0.083984,0.573242,-0.811646,507
28663066,9988,-0.083374,0.572144,-0.808594,512
28673075,10009,-0.081665,0.573242,-0.808838,515
28683068,9993,-0.081177,0.573486,-0.808838,508
28693094,10026,-0.081909,0.570435,-0.809937,516
28703087,9993,-0.081421,0.570435,-0.809937,518
28713080,9993,-0.081421,0.570312,-0.810059,517
28723102,10022,-0.081421,0.574463,-0.808716,521
28733070,9968,-0.080811,0.574463,-0.808105,515
28743062,9992,-0.079468,0.574463,-0.806519,524
28753088,10026,-0.080444,0.575684,-0.808105,520
28763088,10000,-0.081421,0.575073,-0.810059,522
28773059,9971,-0.080811,0.572998,-0.811279,524
28783076,10017,-0.081177,0.571899,-0.812378,523
28793087,10011,-0.082031,0.570435,-0.815063,521
28803065,9978,-0.082153,0.569336,-0.811035,514
28813062,9997,-0.081299,0.571533,-0.809448,521
28823074,10012,-0.081909,0.573486,-0.809937,515
28833068,9994,-0.080933,0.573730,-0.809082,518
28843086,10018,-0.082275,0.573975,-0.807739,512
28853087,10001,-0.081177,0.573730,-0.808105,517
28863063,9976,-0.080566,0.572510,-0.807251,511
28873061,9998,-0.077759,0.571899,-0.808716,516
28883085,10024,-0.077881,0.572632,-0.810059,512
28893088,10003,-0.078369,0.572876,-0.809937,512
28903084,9996,-0.081055,0.571899,-0.812256,512
28913074,9990,-0.081909,0.572754,-0.812256,514
28923065,9991,-0.082153,0.574097,-0.811401,505
28933088,10023,-0.082642,0.574097,-0.810547,512
28943087,9999,-0.082764,0.573608,-0.810425,510
28953075,9988,-0.082397,0.572754,-0.811401,513
28963070,9995,-0.081543,0.572021,-0.809570,513
28973059,9989,-0.081177,0.571899,-0.812500,511
28983096,10037,-0.081299,0.571289,-0.811646,509
28993069,9973,-0.079590,0.571655,-0.811646,514
29003070,10001,-0.078979,0.571289,-0.809814,509
29013085,10015,-0.078247,0.572632,-0.809448,512
29023063,9978,-0.079102,0.573730,-0.809448,507
29033087,10024,-0.079102,0.572876,-0.808594,512
29043085,9998,-0.080200,0.574951,-0.809326,511
29053088,10003,-0.081543,0.576172,-0.808472,513
29063062,9974,-0.082397,0.574097,-0.809448,508
29073082,10020,-0.083374,0.571655,-0.812378,511
29083067,9985,-0.082520,0.570068,-0.812012,511
29093069,10002,-0.082886,0.570923,-0.811890,520
29103066,9997,-0.081299,0.573730,-0.811523,511
29113062,9996,-0.080933,0.574951,-0.809570,512
29123070,10008,-0.079590,0.574219,-0.807251,512
29133082,10012,-0.078125,0.575562,-0.807983,511
29143063,9981,-0.077271,0.575073,-0.807739,511
29153078,10015,-0.077393,0.574585,-0.808350,511
29163082,10004,-0.077515,0.573975,-0.809082,511
29173078,9996,-0.078125,0.573730,-0.811401,502
29183073,9995,-0.081665,0.572266,-0.810181,511
29193082,10009,-0.082520,0.572510,-0.810303,502
29203089,10007,-0.081543,0.573853,-0.810547,509
29213079,9990,-0.082642,0.574097,-0.809082,511
29223071,9992,-0.082153,0.572998,-0.810303,511
29233072,10001,-0.081421,0.571655,-0.811035,510
29243065,9993,-0.081909,0.572144,-0.810669,506
29253067,10002,-0.082397,0.571167,-0.812012,508
29263068,10001,-0.083008,0.571533,-0.811768,503
29273072,10004,-0.084229,0.573608,-0.811523,510
29283072,10000,-0.081665,0.577026,-0.809814,512
29293071,9999,-0.079468,0.575806,-0.810547,506
29303076,10005,-0.078735,0.575562,-0.809448,506
29313074,9998,-0.076660,0.573364,-0.807495,509
29323068,9994,-0.077148,0.570312,-0.806519,509
29333067,9999,-0.077026,0.572144,-0.806152,510
29343084,10017,-0.076050,0.574341,-0.807129,507
29353074,9990,-0.076538,0.574707,-0.809326,509
29363078,10004,-0.078857,0.572266,-0.812500,510
29373060,9982,-0.080933,0.569946,-0.812744,510
29383115,10055,-0.083130,0.568604,-0.812744,508
29393078,9963,-0.084839,0.574219,-0.810303,511
29403065,9987,-0.083374,0.577759,-0.809082,511
29413075,10010,-0.080933,0.579590,-0.807373,510
29423088,10013,-0.080200,0.577515,-0.808105,513
29433086,9998,-0.079346,0.570923,-0.810425,512
29443063,9977,-0.077515,0.573608,-0.808960,519
29453081,10018,-0.076172,0.572144,-0.810059,518
29463061,9980,-0.074341,0.569702,-0.812866,518
29473065,10004,-0.073120,0.569702,-0.812500,519
29483070,10005,-0.073120,0.573486,-0.811279,518
29493072,10002,-0.076172,0.574951,-0.809326,525
29503081,10009,-0.082031,0.578247,-0.806885,523
29513068,9987,-0.081055,0.577637,-0.806763,520
29523085,10017,-0.081421,0.575317,-0.807495,515
29533074,9989,-0.081787,0.573975,-0.806763,522
29543075,10001,-0.080811,0.571899,-0.807251,514
29553088,10013,-0.077148,0.571289,-0.808228,519
29563065,9977,-0.076172,0.572021,-0.807983,518
29573059,9994,-0.077393,0.571533,-0.807373,515
29583071,10012,-0.079956,0.572876,-0.807861,517
29593080,10009,-0.080200,0.574097,-0.807373,518
29603084,10004,-0.079712,0.571777,-0.806641,514
29613082,9998,-0.079834,0.571777,-0.810913,509
29624588,11506,-0.077148,0.571777,-0.812134,515
29633065,8477,-0.076782,0.572876,-0.811646,509
29643076,10011,-0.077148,0.574585,-0.813843,507
29653068,9992,-0.079224,0.575928,-0.814697,508
29663066,9998,-0.076904,0.578247,-0.809448,511
29673061,9995,-0.077271,0.577515,-0.805176,510
29683074,10013,-0.076904,0.572876,-0.805542,513
29693077,10003,-0.078247,0.570557,-0.806641,512
29703084,10007,-0.078003,0.570435,-0.808838,513
29713082,9998,-0.078857,0.570312,-0.812378,505
29723082,10000,-0.079956,0.571655,-0.813599,511
29733062,9980,-0.081299,0.573120,-0.813232,507
29743085,10023,-0.080811,0.572510,-0.811890,513
29753086,10001,-0.079590,0.571289,-0.811768,510
29763077,9991,-0.077881,0.572998,-0.812012,512
29773088,10011,-0.073730,0.573242,-0.812500,515
29783091,10003,-0.074463,0.575439,-0.811157,510
29793076,9985,-0.076538,0.576660,-0.809326,506
29803063,9987,-0.077271,0.574829,-0.806030,514
29813061,9998,-0.079468,0.575806,-0.803833,509
29823073,10012,-0.079590,0.579224,-0.806763,514
29833070,9997,-0.078857,0.577393,-0.809570,513
29843059,9989,-0.079224,0.574707,-0.810547,512
29853078,10019,-0.081543,0.570679,-0.808960,512
29863088,10010,-0.082031,0.568726,-0.811768,514
29873079,9991,-0.080933,0.569946,-0.815186,512
29883071,9992,-0.079102,0.571289,-0.815308,513
29893077,10006,-0.077637,0.571899,-0.815063,506
29903066,9989,-0.075562,0.571411,-0.813110,505
29913080,10014,-0.074097,0.573364,-0.811768,508
29923075,9995,-0.072876,0.573120,-0.805054,513
29933078,10003,-0.073242,0.574219,-0.801758,508
29943087,10009,-0.075562,0.577393,-0.801270,511
29953086,9999,-0.078979,0.578125,-0.802856,512
29963062,9976,-0.083008,0.578003,-0.805176,508
29973070,10008,-0.086792,0.576904,-0.808594,509
29983073,10003,-0.089478,0.573242,-0.813477,508
29993073,10000,-0.089233,0.571899,-0.814575,510
30003071,9998,-0.085693,0.569702,-0.815552,511
30013075,10004,-0.083252,0.569702,-0.812744,504
30023067,9992,-0.079346,0.567627,-0.811523,510
30033080,10013,-0.075439,0.571045,-0.806519,508
30043065,9985,-0.074829,0.574829,-0.803711,511
30053073,10008,-0.076294,0.576782,-0.804565,511
30063067,9994,-0.078247,0.577148,-0.805176,511
30073077,10010,-0.080322,0.579590,-0.802490,508
30083069,9992,-0.082886,0.580200,-0.808105,511
30093063,9994,-0.085937,0.576050,-0.811646,510
30103063,10000,-0.084229,0.574463,-0.812988,507
30113067,10004,-0.080811,0.570312,-0.813721,513
30123067,10000,-0.080200,0.566162,-0.813843,514
30133076,10009,-0.078613,0.565063,-0.813232,511
30143062,9986,-0.073853,0.569214,-0.812500,512
30153059,9997,-0.072876,0.571777,-0.811646,523
30163059,10000,-0.072876,0.573242,-0.809448,522
30173061,10002,-0.071655,0.575439,-0.808838,521
30183062,10001,-0.071655,0.577026,-0.807739,520
30193086,10024,-0.074951,0.577515,-0.808105,522
30203064,9978,-0.078247,0.577637,-0.809448,524
30213063,9999,-0.079834,0.575928,-0.809692,525
30223073,10010,-0.081909,0.572021,-0.811646,524
30233070,9997,-0.084106,0.569336,-0.813354,524
30243070,10000,-0.083374,0.568726,-0.813477,521
30253087,10017,-0.080811,0.569336,-0.814819,520
30263075,9988,-0.082520,0.572754,-0.812622,520
30273067,9992,-0.082642,0.574341,-0.809937,520
30283080,10013,-0.081299,0.574341,-0.806519,518
30293067,9987,-0.078735,0.576416,-0.806274,513
30303062,9995,-0.075195,0.576538,-0.807739,510
30313071,10009,-0.077759,0.574951,-0.808716,514
30323112,10041,-0.078735,0.574707,-0.807129,510
30333085,9973,-0.080688,0.573242,-0.804932,513
30343062,9977,-0.082275,0.572876,-0.804077,514
30353061,9999,-0.084229,0.576050,-0.805786,512
30363073,10012,-0.086670,0.576050,-0.808472,512
30373070,9997,-0.086792,0.574707,-0.811157,511
30383068,9998,-0.087769,0.574829,-0.811279,504
30393076,10008,-0.085205,0.572021,-0.808350,510
30403062,9986,-0.084839,0.571411,-0.804199,512
30413087,10025,-0.078369,0.571411,-0.809570,510
30423067,9980,-0.074829,0.572632,-0.812744,505
30433080,10013,-0.075562,0.573486,-0.812378,509
30443076,9996,-0.071533,0.569702,-0.812378,512
30453082,10006,-0.069824,0.568970,-0.815063,514
30463071,9989,-0.067017,0.568726,-0.815063,513
30473066,9995,-0.070557,0.572632,-0.816284,514
30483062,9996,-0.074463,0.575195,-0.813965,510
30493062,10000,-0.081665,0.577881,-0.810181,507
30503086,10024,-0.085083,0.578857,-0.805298,507
30513086,10000,-0.086060,0.577637,-0.803955,512
30523086,10000,-0.084961,0.576172,-0.804687,511
30533082,9996,-0.082520,0.574829,-0.806396,513
30543071,9989,-0.083496,0.571533,-0.809326,512
30553061,9990,-0.082397,0.567871,-0.810913,512
30563082,10021,-0.080566,0.569336,-0.810425,506
30573078,9996,-0.078125,0.566528,-0.805908,503
30583063,9985,-0.077881,0.570190,-0.803955,508
30593082,10019,-0.078979,0.576660,-0.801392,509
30603087,10005,-0.082275,0.581421,-0.800049,504
30613082,9995,-0.086426,0.583496,-0.800903,502
30625012,11930,-0.089966,0.582520,-0.812134,505
30633081,8069,-0.088867,0.578369,-0.815430,502
30643082,10001,-0.089722,0.571411,-0.819458,503
30653059,9977,-0.088501,0.567383,-0.820312,502
30663080,10021,-0.086670,0.564697,-0.822144,503
30673067,9987,-0.081909,0.558472,-0.818848,505
30683088,10021,-0.071289,0.564209,-0.813232,509
30693083,9995,-0.067139,0.567017,-0.808960,509
30703065,9982,-0.067261,0.567871,-0.805054,509
30713074,10009,-0.069214,0.570190,-0.802124,506
30723088,10014,-0.071045,0.580078,-0.801392,510
30733069,9981,-0.077881,0.586548,-0.798584,503
30743086,10017,-0.082642,0.584351,-0.803223,512
30753075,9989,-0.083740,0.582031,-0.809448,505
30763060,9985,-0.083130,0.576904,-0.810791,506
30773066,10006,-0.083130,0.571899,-0.813843,511
30783070,10004,-0.080811,0.568726,-0.815308,506
30793066,9996,-0.080444,0.571289,-0.817383,514
30803084,10018,-0.079834,0.571777,-0.817505,514
30813081,9997,-0.077393,0.570557,-0.814209,515
30823074,9993,-0.076660,0.570435,-0.812378,517
30833087,10013,-0.078369,0.570679,-0.804321,512
30843090,10003,-0.080444,0.576416,-0.801758,521
30853060,9970,-0.080200,0.579590,-0.801880,524
30863059,9999,-0.078125,0.582031,-0.801758,517
30873064,10005,-0.078369,0.580688,-0.804565,524
30883078,10014,-0.079102,0.578979,-0.805542,518
30893066,9988,-0.080811,0.573486,-0.808228,518
30903072,10006,-0.082275,0.571167,-0.807129,524
30913059,9987,-0.083252,0.571533,-0.806152,522
30923073,10014,-0.082764,0.571655,-0.807617,521
30933079,10006,-0.082153,0.573120,-0.810425,522
30943066,9987,-0.079956,0.574707,-0.814819,521
30953081,10015,-0.078613,0.574585,-0.813721,517
30963074,9993,-0.079834,0.573730,-0.813477,518
30973085,10011,-0.079102,0.572998,-0.812500,517
30983094,10009,-0.077393,0.573975,-0.810181,516
30993064,9970,-0.077393,0.574707,-0.807007,517
31003069,10005,-0.078369,0.577637,-0.805420,510
31013087,10018,-0.080322,0.577759,-0.806030,513
31023075,9988,-0.081665,0.578491,-0.806274,509
31033073,9998,-0.083984,0.577148,-0.806763,514
31043068,9995,-0.083984,0.575195,-0.805542,514
31053076,10008,-0.083740,0.572388,-0.808472,511
31063064,9988,-0.082764,0.571777,-0.809814,515
31073069,10005,-0.082275,0.571167,-0.809814,507
31083067,9998,-0.079956,0.571045,-0.809326,513
31093101,10034,-0.079102,0.571411,-0.808838,513
31103088,9987,-0.077637,0.574341,-0.805786,512
31113098,10010,-0.075806,0.575928,-0.807495,507
31123075,9977,-0.076660,0.577393,-0.806763,512
31133065,9990,-0.077148,0.578125,-0.808472,511
31143072,10007,-0.078613,0.578979,-0.806763,513
31153059,9987,-0.079956,0.577515,-0.807983,507
31163079,10020,-0.081665,0.577026,-0.808716,511
31173064,9985,-0.081909,0.575073,-0.810303,512
31183085,10021,-0.081665,0.575684,-0.811523,512
31193081,9996,-0.081299,0.573364,-0.812012,512
31203074,9993,-0.079102,0.570679,-0.812744,513
31213082,10008,-0.077148,0.568970,-0.812988,512
31223094,10012,-0.076904,0.570190,-0.812378,509
31233068,9974,-0.077148,0.572021,-0.811401,507
31243084,10016,-0.077271,0.574829,-0.810303,512
31253073,9989,-0.078491,0.576172,-0.806519,507
31263084,10011,-0.079224,0.579224,-0.802002,511
31273081,9997,-0.080444,0.579712,-0.800781,510
31283083,10002,-0.080688,0.580811,-0.801025,504
31293068,9985,-0.082153,0.580200,-0.802002,507
31303085,10017,-0.082520,0.578003,-0.804077,505
31313081,9996,-0.085205,0.576782,-0.805420,511
31323083,10002,-0.089600,0.574829,-0.807617,511
31333073,9990,-0.089233,0.571045,-0.808716,510
31343071,9998,-0.087524,0.570923,-0.807861,510
31353082,10011,-0.087036,0.570801,-0.809692,509
31363065,9983,-0.086792,0.572510,-0.812256,509
31373093,10028,-0.082886,0.575195,-0.813477,509
31383070,9977,-0.080200,0.577881,-0.812866,511
31393080,10010,-0.077393,0.576294,-0.810669,507
31403064,9984,-0.077148,0.573242,-0.806763,509
31413076,10012,-0.076660,0.571045,-0.802368,511
31423087,10011,-0.076172,0.571655,-0.801025,508
31433076,9989,-0.072998,0.575562,-0.804932,507
31443076,10000,-0.074829,0.576782,-0.808960,508
31453080,10004,-0.076660,0.575195,-0.813599,505
31463070,9990,-0.079712,0.573242,-0.816528,509
31473063,9993,-0.082031,0.569946,-0.817017,508
31483061,9998,-0.082275,0.571777,-0.812988,509
31493087,10026,-0.080688,0.573608,-0.810913,511
31503082,9995,-0.078979,0.574341,-0.811523,512
31513074,9992,-0.077026,0.574707,-0.808594,514
31523069,9995,-0.075562,0.574585,-0.808838,510
31533073,10004,-0.074585,0.574951,-0.809204,512
31543064,9991,-0.075317,0.574951,-0.809326,518
31553077,10013,-0.078125,0.577026,-0.809204,523
31563061,9984,-0.079834,0.575195,-0.810181,522
31573081,10020,-0.079102,0.574707,-0.810547,524
31583070,9989,-0.079834,0.573608,-0.810425,526
31593063,9993,-0.079102,0.575806,-0.809570,525
31603076,10013,-0.079956,0.576660,-0.808472,524
31613069,9993,-0.078979,0.575439,-0.807739,523
31623068,9999,-0.080444,0.574341,-0.806396,519
31636749,13681,-0.082397,0.575317,-0.802490,521
31643071,6322,0.000000,0.000000,0.000000,517
31653082,10011,-0.084106,0.575806,-0.803345,519
31663077,9995,-0.085937,0.577759,-0.803467,514
31673076,9999,-0.087036,0.575684,-0.805664,512
31683076,10000,-0.086548,0.575195,-0.806885,518
31693068,9992,-0.081787,0.572876,-0.809814,511
31703068,10000,-0.081909,0.573120,-0.812866,514
31713060,9992,-0.080200,0.574341,-0.813599,513
31723070,10010,-0.077637,0.574463,-0.812988,511
31733066,9996,-0.077881,0.574097,-0.811157,506
31743097,10031,-0.078247,0.573975,-0.811035,512
31753077,9980,-0.077759,0.577637,-0.806885,513
31763070,9993,-0.078613,0.579224,-0.806396,509
31773066,9996,-0.078613,0.579102,-0.807129,512
31783068,10002,-0.078491,0.577759,-0.807251,512
31793084,10016,-0.077393,0.575195,-0.806641,510
31803064,9980,-0.078979,0.571289,-0.805664,506
31813085,10021,-0.079224,0.571777,-0.805908,508
31823067,9982,-0.079224,0.574097,-0.808105,510
31833061,9994,-0.080322,0.573975,-0.810425,513
31843060,9999,-0.080566,0.575439,-0.811523,506
31853076,10016,-0.082275,0.573120,-0.814209,508
31863080,10004,-0.081421,0.573242,-0.811157,511
31873063,9983,-0.078857,0.573730,-0.808594,512
31883081,10018,-0.078125,0.576294,-0.806030,511
31893084,10003,-0.078735,0.579224,-0.804077,513
31903089,10005,-0.079468,0.580688,-0.802246,515
31913065,9976,-0.080444,0.580200,-0.801514,505
31923066,10001,-0.081787,0.576660,-0.804565,512
31933065,9999,-0.081665,0.574707,-0.807129,511
31943087,10022,-0.083618,0.572998,-0.811890,505
31953088,10001,-0.083740,0.571289,-0.813354,511
31963082,9994,-0.085083,0.569824,-0.810059,505
31973067,9985,-0.083374,0.570068,-0.809692,506
31983080,10013,-0.080322,0.572510,-0.807739,504
31993088,10008,-0.078247,0.575806,-0.808228,500
32003081,9993,-0.076172,0.575317,-0.805786,509
32013085,10004,-0.077515,0.579102,-0.806030,508
32023093,10008,-0.077515,0.578247,-0.806641,507
32033075,9982,-0.079346,0.577271,-0.809448,508
32043079,10004,-0.079590,0.575439,-0.811279,508
32053077,9998,-0.080444,0.575317,-0.813599,505
32063068,9991,-0.080566,0.575317,-0.812256,504
32073079,10011,-0.081177,0.571899,-0.809937,508
32083064,9985,-0.081177,0.571777,-0.808228,508
32093082,10018,-0.080200,0.572632,-0.806885,510
32103072,9990,-0.081421,0.574707,-0.806030,510
32113071,9999,-0.081665,0.576660,-0.807251,503
32123078,10007,-0.078125,0.575928,-0.805908,502
32133062,9984,-0.078003,0.576660,-0.807251,509
32143065,10003,-0.077515,0.575684,-0.805420,511
32153112,10047,-0.077148,0.574829,-0.805176,504
32163059,9947,-0.078125,0.574707,-0.806274,509
32173081,10022,-0.077759,0.573364,-0.810303,507
32183062,9981,-0.079346,0.574341,-0.811523,508
32193072,10010,-0.081665,0.572510,-0.813477,510
32203059,9987,-0.083130,0.573975,-0.813232,501
32213059,10000,-0.085327,0.575928,-0.814575,510
32223083,10024,-0.086548,0.576172,-0.813354,511
32233073,9990,-0.084595,0.575684,-0.807495,507
32243066,9993,-0.083618,0.576172,-0.806030,512
32253075,10009,-0.079956,0.575928,-0.805786,513
32263084,10009,-0.077026,0.575562,-0.805908,510
32273081,9997,-0.075439,0.574951,-0.804932,516
32283069,9988,-0.074097,0.573120,-0.807373,519
32293076,10007,-0.075317,0.571899,-0.806641,521
32303062,9986,-0.074951,0.572144,-0.807983,520
32313088,10026,-0.076416,0.574097,-0.807739,524
32323088,10000,-0.077759,0.575195,-0.809082,524
32333070,9982,-0.079590,0.578003,-0.808472,518
32343066,9996,-0.083008,0.578735,-0.808228,526
32353062,9996,-0.082275,0.577271,-0.808716,522
32363059,9997,-0.083130,0.574341,-0.808228,523
32373061,10002,-0.081421,0.574463,-0.810303,526
32383076,10015,-0.081177,0.578003,-0.815186,521
32393061,9985,-0.080688,0.570679,-0.810913,514
32403073,10012,-0.082520,0.571899,-0.805420,516
32413098,10025,-0.079956,0.570801,-0.802490,513
32423076,9978,-0.077026,0.575317,-0.803223,516
32433074,9998,-0.076172,0.580200,-0.807007,509
32443088,10014,-0.077148,0.571045,-0.808594,510
32453085,9997,-0.077515,0.569824,-0.811157,507
32463088,10003,-0.078247,0.572021,-0.811279,506
32473069,9981,-0.078735,0.570801,-0.809448,514
32483076,10007,-0.079590,0.572632,-0.809570,512
32493074,9998,-0.079468,0.576782,-0.809204,511
32503065,9991,-0.077881,0.579712,-0.809204,511
32513073,10008,-0.079346,0.577393,-0.808105,513
32523074,10001,-0.079468,0.576172,-0.804932,512
32533090,10016,-0.078369,0.575317,-0.804321,514
32543065,9975,-0.077271,0.576904,-0.808350,513
32553070,10005,-0.078613,0.573242,-0.811279,512
32563088,10018,-0.080811,0.570190,-0.809448,508
32573086,9998,-0.080200,0.570557,-0.808350,510
32583082,9996,-0.081909,0.573364,-0.808716,509
32593059,9977,-0.080322,0.575684,-0.808960,512
32603068,10009,-0.080078,0.577881,-0.808838,508
32613062,9994,-0.080200,0.578247,-0.808838,511
32623062,10000,-0.080444,0.575073,-0.806396,508
32633072,10010,-0.079956,0.573975,-0.804321,510
32643075,10003,-0.078857,0.575439,-0.803711,514
32653089,10014,-0.077515,0.577026,-0.806030,510
32663105,10016,-0.078247,0.576660,-0.808960,507
32673068,9963,-0.079834,0.576294,-0.808472,504
32683073,10005,-0.080078,0.577271,-0.809692,511
32693062,9989,-0.080811,0.574707,-0.807861,510
32703059,9997,-0.080078,0.573486,-0.807251,510
32713074,10015,-0.077637,0.575317,-0.808960,510
32723086,10012,-0.078003,0.576538,-0.809937,505
32733065,9979,-0.078491,0.575073,-0.808716,510
32743070,10005,-0.078735,0.574341,-0.805786,508
32753080,10010,-0.076782,0.572998,-0.805664,509
32763074,9994,-0.076172,0.573242,-0.808594,502
32773071,9997,-0.076172,0.577637,-0.808594,502
32783069,9998,-0.078613,0.576660,-0.811035,507
32793060,9991,-0.080200,0.574463,-0.811035,509
32803082,10022,-0.081055,0.574951,-0.809326,510
32813085,10003,-0.080688,0.574707,-0.805908,505
32823069,9984,-0.077148,0.577393,-0.805664,510
32833062,9993,-0.077515,0.578613,-0.806274,507
32843080,10018,-0.078491,0.577148,-0.808105,506
32853077,9997,-0.080322,0.574951,-0.807495,510
32863081,10004,-0.079224,0.572876,-0.807861,503
32873070,9989,-0.077026,0.575073,-0.809448,509
32883085,10015,-0.075439,0.575806,-0.809082,511
32893070,9985,-0.075317,0.576050,-0.807007,509
32903080,10010,-0.077026,0.575439,-0.805298,510
32913083,10003,-0.077881,0.576172,-0.803345,512
32923103,10020,-0.079468,0.575928,-0.806152,504
32933068,9965,-0.078613,0.575073,-0.808594,510
32943087,10019,-0.078857,0.576172,-0.809692,510
32953068,9981,-0.080322,0.574829,-0.807129,510
32963079,10011,-0.083740,0.571289,-0.803101,511
32973085,10006,-0.080444,0.575439,-0.804321,510
32983061,9976,-0.080688,0.578247,-0.811035,508
32993086,10025,-0.079712,0.563843,-0.808838,513
33003072,9986,-0.080688,0.568481,-0.808594,515
33013081,10009,-0.077759,0.572388,-0.804932,508
33023075,9994,-0.076904,0.573730,-0.805664,513
33033077,10002,-0.078247,0.587402,-0.812134,512
33043079,10002,-0.078857,0.575806,-0.806396,513
33053094,10015,-0.080566,0.571045,-0.806396,519
33063115,10021,-0.080688,0.576782,-0.808838,521
33073064,9949,-0.079712,0.572754,-0.808105,521
33083062,9998,-0.081665,0.571289,-0.808472,522
33093060,9998,-0.081421,0.580688,-0.812378,518
33103078,10018,-0.082153,0.576172,-0.810181,521
33113063,9985,-0.082397,0.571289,-0.808228,518
33123079,10016,-0.080688,0.571167,-0.807251,519
33133086,10007,-0.079956,0.570435,-0.806030,519
33143075,9989,-0.080322,0.580444,-0.810181,518
33153083,10008,-0.080200,0.578125,-0.809082,509
33163079,9996,-0.081421,0.574585,-0.807739,512
33173059,9980,-0.080688,0.577148,-0.807983,512
33183084,10025,-0.078369,0.578003,-0.806519,506
33193071,9987,-0.080811,0.574219,-0.805176,511
33203085,10014,-0.079834,0.575684,-0.807251,511
33213075,9990,-0.081177,0.575928,-0.810547,506
33223061,9986,-0.082275,0.575073,-0.812866,509
33233072,10011,-0.083496,0.572510,-0.813354,509
33243082,10010,-0.083130,0.570801,-0.810059,510
33253077,9995,-0.080933,0.575928,-0.809082,504
33263077,10000,-0.078857,0.576538,-0.807251,511
33273081,10004,-0.077881,0.575317,-0.806274,511
33283072,9991,-0.077759,0.576538,-0.805420,505
33293074,10002,-0.075562,0.575439,-0.804565,512
33303069,9995,-0.075928,0.578613,-0.811035,513
33313066,9997,-0.078979,0.574341,-0.809570,511
33323068,10002,-0.081665,0.570801,-0.810547,505
33333082,10014,-0.083130,0.575317,-0.810059,510
33343064,9982,-0.084229,0.574097,-0.809448,506
33353078,10014,-0.084473,0.575195,-0.808228,510
33363059,9981,-0.082886,0.575928,-0.808838,512
33373068,10009,-0.082153,0.574951,-0.807983,512
33383061,9993,-0.082642,0.575439,-0.807495,512
33393086,10025,-0.080566,0.574341,-0.805664,512
33403086,10000,-0.077393,0.575073,-0.807129,511
33413060,9974,-0.078369,0.573120,-0.811401,505
33423067,10007,-0.079468,0.571289,-0.810913,511
33433070,10003,-0.080688,0.573242,-0.811523,510
33443080,10010,-0.079468,0.575562,-0.812622,505
33453095,10015,-0.076416,0.579102,-0.816650,509
33463075,9980,-0.077759,0.575684,-0.812256,508
33473086,10011,-0.079102,0.573853,-0.805908,504
33483085,9999,-0.078125,0.574585,-0.799805,508
33493070,9985,-0.078857,0.578857,-0.797729,504
33503086,10016,-0.079102,0.584473,-0.794189,512
33513059,9973,-0.081909,0.585327,-0.798462,512
33523082,10023,-0.082153,0.583252,-0.804199,504
33533082,10000,-0.080688,0.579590,-0.808838,506
33543074,9992,-0.079102,0.575073,-0.809570,511
33553063,9989,-0.077515,0.570557,-0.810425,503
33563081,10018,-0.077271,0.571045,-0.810425,506
33573066,9985,-0.081787,0.572388,-0.808594,507
33583082,10016,-0.082275,0.571533,-0.803223,512
33593077,9995,-0.081787,0.571777,-0.798218,511
33603071,9994,-0.080566,0.577271,-0.799194,505
33613075,10004,-0.080078,0.583130,-0.805420,506
33623064,9989,-0.082642,0.590088,-0.814453,511
33633068,10004,-0.083374,0.582520,-0.812622,512
33646496,13428,-0.084839,0.572632,-0.809570,509
33653086,6590,-0.081909,0.564087,-0.805298,504
33663059,9973,-0.077271,0.564941,-0.804443,510
33673078,10019,-0.075684,0.572144,-0.801392,506
33683070,9992,-0.074707,0.583862,-0.799927,510
33693063,9993,-0.077393,0.588013,-0.802979,508
33703060,9997,-0.079590,0.589355,-0.802734,507
33713076,10016,-0.078125,0.586304,-0.801880,510
33723069,9993,-0.078125,0.585327,-0.805420,510
33733106,10037,-0.073975,0.566772,-0.807983,512
33743088,9982,-0.075073,0.578735,-0.817627,513
33753075,9987,-0.078003,0.581787,-0.813354,516
33763082,10007,-0.078979,0.562866,-0.798828,517
33773086,10004,-0.077026,0.574097,-0.801758,518
33783065,9979,-0.074707,0.573242,-0.793457,523
33793062,9997,-0.077148,0.575317,-0.797729,522
33803072,10010,-0.076660,0.598022,-0.808105,521
33813066,9994,-0.079468,0.585693,-0.807007,521
33823059,9993,-0.083374,0.565796,-0.807129,520
33833069,10010,-0.085571,0.579102,-0.812256,525
33843077,10008,-0.078491,0.565430,-0.804932,523
33853093,10016,-0.076904,0.581665,-0.812500,517
33863079,9986,-0.074707,0.596802,-0.814941,521
33873067,9988,-0.076294,0.578735,-0.809082,521
33883082,10015,-0.078125,0.568848,-0.801025,513
33893063,9981,-0.072266,0.581909,-0.796265,516
33903076,10013,-0.072998,0.573975,-0.796875,518
33913071,9995,-0.074341,0.581177,-0.802734,512
33923075,10004,-0.074585,0.587891,-0.807861,516
33933084,10009,-0.075317,0.579834,-0.811768,509
33943072,9988,-0.080933,0.582520,-0.815918,510
33953076,10004,-0.079956,0.572998,-0.809326,513
33963080,10004,-0.080688,0.570190,-0.806519,512
33973076,9996,-0.076172,0.576782,-0.806763,511
33983063,9987,-0.076050,0.577637,-0.804565,507
33993079,10016,-0.080444,0.572021,-0.800415,511
34003060,9981,-0.082153,0.588745,-0.793823,511
34013079,10019,-0.080566,0.589111,-0.795898,505
34023071,9992,-0.081909,0.589844,-0.802124,511
34033087,10016,-0.078613,0.588135,-0.808716,506
34043088,10001,-0.078247,0.574829,-0.812378,512
34053077,9989,-0.074463,0.570312,-0.810791,510
34063084,10007,-0.074707,0.568604,-0.807617,509
34073083,9999,-0.075684,0.563110,-0.805908,510
34083082,9999,-0.074707,0.573364,-0.808594,511
34093059,9977,-0.074341,0.581787,-0.807251,511
34103072,10013,-0.075928,0.580322,-0.807739,512
34113080,10008,-0.078735,0.582275,-0.806641,511
34123102,10022,-0.081543,0.575562,-0.800903,512
34133083,9981,-0.081543,0.575684,-0.798950,512
34143082,9999,-0.078735,0.587036,-0.804443,512
34153060,9978,-0.080811,0.591797,-0.807251,510
34163086,10026,-0.082520,0.583496,-0.809082,512
34173084,9998,-0.084473,0.579102,-0.804077,510
34183071,9987,-0.082520,0.571899,-0.800171,513
34193082,10011,-0.081909,0.577271,-0.804199,513
34203063,9981,-0.080200,0.581543,-0.807983,511
34213088,10025,-0.080688,0.572876,-0.804565,511
34223066,9978,-0.081299,0.576538,-0.801758,506
34233066,10000,-0.082275,0.577759,-0.801392,512
34243062,9996,-0.083740,0.582764,-0.802856,504
34253070,10008,-0.083130,0.586670,-0.806396,505
34263063,9993,-0.082764,0.581543,-0.808716,509
34273059,9996,-0.080444,0.580811,-0.806763,511
34283062,10003,-0.077881,0.575684,-0.800415,503
34293074,10012,-0.075684,0.570190,-0.797974,509
34303076,10002,-0.071167,0.578979,-0.804321,509
34313061,9985,-0.071289,0.588135,-0.810425,508
34323066,10005,-0.080444,0.572266,-0.808350,505
34333075,10009,-0.081909,0.571289,-0.807739,505
34343079,10004,-0.080688,0.567993,-0.806763,507
34353061,9982,-0.078125,0.572754,-0.809570,507
34363062,10001,-0.076660,0.582642,-0.812378,510
34373080,10018,-0.074585,0.579712,-0.807983,502
34383065,9985,-0.075439,0.583374,-0.802246,508
34393059,9994,-0.074097,0.582886,-0.797119,504
34403085,10026,-0.076416,0.577393,-0.791016,508
34413072,9987,-0.070557,0.576660,-0.794678,509
34423078,10006,-0.071289,0.591431,-0.807251,509
34433086,10008,-0.085693,0.575562,-0.816895,504
34443068,9982,-0.091309,0.570068,-0.811401,511
34453084,10016,-0.088867,0.569336,-0.805298,511
34463085,10001,-0.087769,0.578491,-0.807251,503
34473078,9993,-0.082031,0.582764,-0.809082,512
34483064,9986,-0.075684,0.589600,-0.810547,513
34493074,10010,-0.075195,0.581665,-0.805176,514
34503062,9988,-0.075195,0.572144,-0.797363,513
34513102,10040,-0.071289,0.574219,-0.791382,518
34523095,9993,-0.068726,0.580078,-0.790894,517
34533087,9992,-0.073364,0.592041,-0.803345,519
34543081,9994,-0.079102,0.587891,-0.807007,521
34553063,9982,-0.084229,0.577148,-0.803467,520
34563078,10015,-0.085937,0.571777,-0.797974,523
34573073,9995,-0.083496,0.576050,-0.798462,519
34583069,9996,-0.079834,0.584106,-0.802490,517
34593060,9991,-0.080566,0.583984,-0.809204,518
34603089,10029,-0.082520,0.578491,-0.807495,520
34613070,9981,-0.082153,0.575928,-0.803345,520
34623076,10006,-0.080200,0.575439,-0.799438,519
34633075,9999,-0.078735,0.577881,-0.799316,517
34643079,10004,-0.075317,0.584595,-0.808594,514
34656490,13411,-0.078857,0.581177,-0.808105,514
34663085,6595,-0.079590,0.573730,-0.805420,514
34673086,10001,-0.080933,0.569824,-0.801880,514
34683069,9983,-0.078979,0.570435,-0.798706,514
34693067,9998,-0.076904,0.575684,-0.807129,512
34703077,10010,-0.077881,0.582397,-0.812256,510
34713078,10001,-0.078125,0.580322,-0.815796,511
34723070,9992,-0.078003,0.577515,-0.811279,513
34733071,10001,-0.075195,0.577026,-0.808350,512
34743074,10003,-0.074585,0.579834,-0.805908,518
34753069,9995,-0.072388,0.585937,-0.802979,512
34763085,10016,-0.075195,0.584229,-0.801025,511
34773082,9997,-0.077515,0.582886,-0.797729,511
34783088,10006,-0.079834,0.578491,-0.797363,514
34793067,9979,-0.079956,0.576660,-0.802490,511
34803069,10002,-0.080444,0.578613,-0.808960,510
34813072,10003,-0.077881,0.578369,-0.812012,512
34823085,10013,-0.078979,0.580688,-0.813721,507
34833086,10001,-0.079346,0.582275,-0.811890,511
34843085,9999,-0.078857,0.577026,-0.804443,506
34853085,10000,-0.075562,0.574951,-0.796265,506
34863085,10000,-0.072876,0.584595,-0.797363,514
34873082,9997,-0.073120,0.586426,-0.800659,508
34883066,9984,-0.076904,0.586426,-0.800903,512
34893079,10013,-0.078857,0.581421,-0.799805,514
34903083,10004,-0.081055,0.579102,-0.801636,509
34913076,9993,-0.081177,0.582397,-0.807373,512
34923081,10005,-0.080444,0.582275,-0.809692,513
34933085,10004,-0.080933,0.581177,-0.811890,506
34943072,9987,-0.081543,0.578003,-0.812988,509
34953083,10011,-0.080566,0.573486,-0.807861,510
34963060,9977,-0.076660,0.572144,-0.798828,505
34973063,10003,-0.072266,0.582520,-0.802612,510
34983082,10019,-0.070435,0.591309,-0.812134,510
34993065,9983,-0.072754,0.586426,-0.814331,510
35003084,10019,-0.078003,0.573364,-0.807983,506
35013081,9997,-0.080322,0.568115,-0.798584,510
35023082,10001,-0.080200,0.578247,-0.796875,510
35033076,9994,-0.080444,0.592041,-0.802490,503
35043086,10010,-0.080688,0.593506,-0.805176,509
35053112,10026,-0.083130,0.583374,-0.804443,510
35063072,9960,-0.083130,0.578613,-0.802856,504
35073065,9993,-0.081421,0.571045,-0.802002,508
35083077,10012,-0.078735,0.572266,-0.805420,512
35093059,9982,-0.075073,0.579224,-0.813843,503
35103079,10020,-0.075195,0.583130,-0.818359,510
35113083,10004,-0.077515,0.577515,-0.815063,511
35123084,10001,-0.079102,0.566284,-0.801758,511
35133080,9996,-0.077393,0.571289,-0.800293,509
35143068,9988,-0.074097,0.577881,-0.803345,501
35153083,10015,-0.074341,0.586304,-0.809692,509
35163073,9990,-0.076782,0.588013,-0.811890,506
35173081,10008,-0.080444,0.583008,-0.812256,506
35183084,10003,-0.078857,0.572266,-0.805176,512
35193080,9996,-0.075562,0.572021,-0.805298,511
35203087,10007,-0.074829,0.575684,-0.808228,512
35213062,9975,-0.075928,0.578857,-0.811279,507
35223071,10009,-0.077881,0.577759,-0.809692,511
35233064,9993,-0.080322,0.572266,-0.805054,515
35243083,10019,-0.078857,0.568359,-0.805176,511
35253084,10001,-0.076050,0.571289,-0.808472,513
35263065,9981,-0.074463,0.576782,-0.812378,518
35273065,10000,-0.076050,0.580322,-0.812500,515
35283066,10001,-0.080444,0.574097,-0.804687,522
35293075,10009,-0.084961,0.572876,-0.800293,516
35303086,10011,-0.082397,0.580688,-0.797974,522
35313081,9995,-0.080811,0.589478,-0.801880,521
35323070,9989,-0.082642,0.591797,-0.808716,523
35333070,10000,-0.085205,0.585571,-0.810913,515
35343075,10005,-0.086304,0.567505,-0.808838,518
35353082,10007,-0.083618,0.566772,-0.808838,521
35363080,9998,-0.079834,0.571533,-0.813599,519
35373082,10002,-0.077271,0.577393,-0.816650,511
35383086,10004,-0.077515,0.578857,-0.816895,516
35393084,9998,-0.075928,0.566772,-0.804199,514
35403068,9984,-0.071289,0.567627,-0.801025,515
35413068,10000,-0.067627,0.575439,-0.800659,514
35423059,9991,-0.064209,0.581543,-0.803223,512
35433076,10017,-0.066772,0.588867,-0.808716,513
35443100,10024,-0.072510,0.582520,-0.808228,507
35453094,9994,-0.081909,0.577637,-0.804565,512
35463083,9989,-0.082031,0.576294,-0.801758,506
35473084,10001,-0.084106,0.580444,-0.804077,506
35483060,9976,-0.088257,0.581177,-0.807251,512
35493059,9999,-0.089355,0.581177,-0.808228,512
35503080,10021,-0.090942,0.570557,-0.802124,513
35513067,9987,-0.086060,0.567627,-0.800781,512
35523085,10018,-0.082886,0.571777,-0.802979,512
35533074,9989,-0.076782,0.578003,-0.805908,507
35543085,10011,-0.075806,0.580933,-0.811768,510
35553074,9989,-0.076782,0.575073,-0.809570,513
35563086,10012,-0.075562,0.573853,-0.803467,510
35573088,10002,-0.074341,0.577393,-0.799072,512
35583064,9976,-0.073120,0.582153,-0.798828,508
35593090,10026,-0.074463,0.585205,-0.800781,512
35603085,9995,-0.076294,0.588745,-0.801392,508
35613071,9986,-0.082031,0.581543,-0.798340,513
35623078,10007,-0.082886,0.575562,-0.799805,512
35633083,10005,-0.080078,0.575439,-0.801514,508
35643079,9996,-0.079102,0.577881,-0.806396,510
35653071,9992,-0.078125,0.579468,-0.813599,510
35663069,9998,-0.081665,0.572876,-0.815918,502
35673065,9996,-0.080811,0.569336,-0.810547,510
35683073,10008,-0.078247,0.567993,-0.804687,508
35693073,10000,-0.073486,0.571655,-0.802734,511
35703065,9992,-0.070679,0.577393,-0.804687,508
35713079,10014,-0.072632,0.580566,-0.807495,510
35723087,10008,-0.078491,0.577881,-0.805542,510
35733113,10026,-0.079468,0.573486,-0.804077,510
35743068,9955,-0.080688,0.574707,-0.802612,512
35753068,10000,-0.081421,0.577515,-0.803711,509
35763065,9997,-0.081177,0.579590,-0.808105,512
35773084,10019,-0.083374,0.579712,-0.812988,509
35783059,9975,-0.084351,0.576782,-0.809692,512
35793071,10012,-0.081665,0.571777,-0.806519,509
35803088,10017,-0.076782,0.570312,-0.803223,505
35813081,9993,-0.072632,0.574341,-0.804321,509
35823083,10002,-0.075684,0.581421,-0.808350,512
35833060,9977,-0.077759,0.576782,-0.804199,510
35843061,10001,-0.076660,0.574463,-0.799927,512
35853078,10017,-0.073486,0.574219,-0.800171,508
35863105,10027,-0.071411,0.578857,-0.805176,505
35873088,9983,-0.071411,0.584351,-0.819458,512
35883067,9979,-0.082031,0.577271,-0.816772,506
35893066,9999,-0.083984,0.570312,-0.809326,511
35903068,10002,-0.083496,0.567017,-0.803833,512
35913069,10001,-0.079834,0.570801,-0.804565,511
35923085,10016,-0.075806,0.579834,-0.806885,508
35933074,9989,-0.077271,0.578369,-0.812988,516
35943068,9994,-0.082397,0.572632,-0.809937,516
35953065,9997,-0.084473,0.566895,-0.803955,517
35963069,10004,-0.083984,0.566772,-0.800781,519
35973079,10010,-0.082275,0.574951,-0.804687,519
35983063,9984,-0.079224,0.589111,-0.812988,522
35993059,9996,-0.080444,0.583618,-0.812256,521
36003067,10008,-0.082397,0.574097,-0.807983,517
36013071,10004,-0.078979,0.569580,-0.801392,523
36023069,9998,-0.074951,0.570190,-0.800049,518
36033082,10013,-0.069580,0.575684,-0.807983,523
36043062,9980,-0.069214,0.584839,-0.812622,522
36053089,10027,-0.073975,0.581299,-0.810669,522
36063078,9989,-0.075317,0.575073,-0.805054,521
36073079,10001,-0.075439,0.574097,-0.800903,519
36083076,9997,-0.073975,0.578979,-0.804199,516
36093060,9984,-0.073120,0.592041,-0.812012,512
36103067,10007,-0.074341,0.588135,-0.814453,514
36113082,10015,-0.074707,0.578247,-0.807739,509
36123072,9990,-0.076050,0.571655,-0.801147,515
36133071,9999,-0.076538,0.572998,-0.796509,512
36143065,9994,-0.079468,0.582153,-0.799927,507
36153069,10004,-0.081665,0.585693,-0.802856,506
36163085,10016,-0.084839,0.584106,-0.801880,513
36173081,9996,-0.086914,0.576538,-0.800659,507
36183066,9985,-0.086548,0.573730,-0.798462,512
36193059,9993,-0.083374,0.577637,-0.801514,513
36203071,10012,-0.079224,0.582520,-0.809082,507
36213086,10015,-0.079102,0.582520,-0.808105,512
36223063,9977,-0.079346,0.575439,-0.804321,511
36233067,10004,-0.077393,0.571899,-0.800415,510
36243064,9997,-0.071777,0.574707,-0.800659,511
36253070,10006,-0.067749,0.581299,-0.811768,511
36263112,10042,-0.069336,0.576538,-0.813110,513
36273086,9974,-0.075439,0.574585,-0.808960,514
36283077,9991,-0.078857,0.574341,-0.802002,511
36293088,10011,-0.081665,0.576050,-0.798584,519
36303067,9979,-0.080566,0.582642,-0.804565,514
36313071,10004,-0.079346,0.587402,-0.810303,514
36323071,10000,-0.078125,0.585815,-0.814087,511
36333076,10005,-0.078491,0.578979,-0.812866,514
36343076,10000,-0.078857,0.572388,-0.808228,513
36353062,9986,-0.077881,0.566895,-0.802856,508
36363076,10014,-0.072266,0.579956,-0.807129,509
36373068,9992,-0.072510,0.583740,-0.809326,513
36383081,10013,-0.076904,0.579834,-0.806152,513
36393076,9995,-0.079468,0.574463,-0.800659,510
36403073,9997,-0.078613,0.573486,-0.799683,511
36413069,9996,-0.077271,0.580566,-0.811035,510
36423083,10014,-0.078857,0.580688,-0.815674,510
36433077,9994,-0.079590,0.581543,-0.815918,509
36443075,9998,-0.080200,0.573853,-0.812500,512
36453066,9991,-0.082153,0.566528,-0.806519,511
36463084,10018,-0.079834,0.577393,-0.810181,511
36473059,9975,-0.074829,0.582520,-0.816650,510
36483063,10004,-0.076294,0.581909,-0.818604,501
36493059,9996,-0.080933,0.576416,-0.815186,506
36503072,10013,-0.081787,0.568481,-0.807373,512
36513067,9995,-0.078613,0.567139,-0.800537,510
36523074,10007,-0.068237,0.589233,-0.804810,506
36533086,10012,-0.066528,0.592896,-0.811523,511
36543088,10002,-0.070679,0.590210,-0.813843,509
36553077,9989,-0.076294,0.581421,-0.808472,510
36563075,9998,-0.079712,0.572144,-0.800171,511
36573086,10011,-0.079102,0.572388,-0.795166,512
36583066,9980,-0.076660,0.580078,-0.800537,509
36593069,10003,-0.079468,0.583740,-0.806763,510
36603059,9990,-0.082397,0.581177,-0.810547,511
36613062,10003,-0.085327,0.574951,-0.808838,513
36623074,10012,-0.084717,0.569336,-0.802979,518
36633081,10007,-0.076050,0.573486,-0.806030,517
36643064,9983,-0.072998,0.578491,-0.808350,520
36653070,10006,-0.072998,0.579590,-0.809692,520
36666923,13853,-0.075439,0.572754,-0.801147,521
36673065,6142,0.000000,0.000000,0.000000,524
36683064,9999,-0.070923,0.579834,-0.802979,524
36693081,10017,-0.072388,0.583252,-0.807861,518
36703072,9991,-0.075195,0.581299,-0.812500,524
36713062,9990,-0.078857,0.576538,-0.814941,522
36723078,10016,-0.082764,0.570435,-0.815308,522
36733075,9997,-0.080688,0.570190,-0.812622,520
36743085,10010,-0.076294,0.573486,-0.816895,516
36753059,9974,-0.075928,0.577148,-0.816406,516
36763072,10013,-0.077637,0.575806,-0.813354,519
36773069,9997,-0.077637,0.574951,-0.808350,515
36783073,10004,-0.076660,0.576538,-0.802246,515
36793066,9993,-0.070190,0.580322,-0.797119,515
36803128,10062,-0.071045,0.582520,-0.804932,515
36813074,9946,-0.074219,0.588989,-0.807983,515
36823074,10000,-0.078491,0.583374,-0.808105,512
36833072,9998,-0.081299,0.573120,-0.805176,510
36843062,9990,-0.078125,0.571533,-0.805786,516
36853076,10014,-0.072876,0.578979,-0.811157,515
36863060,9984,-0.074829,0.583496,-0.815430,515
36873085,10025,-0.078003,0.578369,-0.812866,508
36883081,9996,-0.082520,0.572144,-0.806152,508
36893070,9989,-0.080078,0.574829,-0.798828,509
36903060,9990,-0.077637,0.578735,-0.802490,514
36913082,10022,-0.076294,0.581421,-0.806641,510
36923060,9978,-0.078003,0.581055,-0.808472,513
36933127,10067,-0.081177,0.574829,-0.809692,513
36943082,9955,-0.080933,0.570801,-0.806519,513
36953073,9991,-0.079102,0.574097,-0.805054,510
36963071,9998,-0.078003,0.577271,-0.807495,513
36973086,10015,-0.078369,0.578735,-0.812378,511
36983061,9975,-0.078857,0.575195,-0.810669,514
36993060,9999,-0.078857,0.570068,-0.806519,511
37003066,10006,-0.072754,0.572388,-0.801270,511
37013084,10018,-0.069580,0.576904,-0.804443,511
37023062,9978,-0.071411,0.577637,-0.811035,511
37033065,10003,-0.074829,0.578125,-0.814819,507
37043066,10001,-0.078491,0.578979,-0.813354,513
37053083,10017,-0.080200,0.574097,-0.806274,504
37063064,9981,-0.078125,0.575684,-0.807983,512
37073097,10033,-0.074829,0.575562,-0.811646,509
37083079,9982,-0.076172,0.578491,-0.814575,512
37093072,9993,-0.077759,0.576172,-0.813232,504
37103077,10005,-0.078491,0.573486,-0.809326,510
37113072,9995,-0.076294,0.571655,-0.807739,513
37123072,10000,-0.073853,0.576538,-0.809204,505
37133085,10013,-0.073242,0.581543,-0.809692,506
37143069,9984,-0.075073,0.579956,-0.809326,507
37153068,9999,-0.077393,0.576172,-0.808350,511
37163084,10016,-0.075562,0.573364,-0.802124,510
37173066,9982,-0.072632,0.577026,-0.802734,511
37183060,9994,-0.073120,0.581177,-0.806152,509
37193064,10004,-0.075073,0.580322,-0.807617,504
37203096,10032,-0.078247,0.576294,-0.806763,508
37213080,9984,-0.079224,0.572510,-0.803467,507
37223077,9997,-0.076172,0.572998,-0.805054,511
37233063,9986,-0.076050,0.577026,-0.809204,510
37243079,10016,-0.076050,0.578003,-0.812500,510
37253085,10006,-0.078613,0.575562,-0.812866,510
37263079,9994,-0.079712,0.573730,-0.809326,509
37273073,9994,-0.079834,0.573975,-0.800903,512
37283070,9997,-0.077393,0.575928,-0.801270,511
37293066,9996,-0.075195,0.577515,-0.807129,504
37303062,9996,-0.075073,0.579102,-0.813965,514
37313072,10010,-0.078491,0.578979,-0.819580,515
37323087,10015,-0.079590,0.571167,-0.809204,517
37333114,10027,-0.075195,0.570435,-0.807129,512
37343083,9969,-0.070923,0.574219,-0.804810,520
37353064,9981,-0.069092,0.574951,-0.809326,524
37363088,10024,-0.071411,0.578857,-0.809326,521
37373065,9977,-0.074585,0.580444,-0.805664,520
37383084,10019,-0.076782,0.576050,-0.801147,523
37393063,9979,-0.076904,0.578369,-0.802368,526
37403066,10003,-0.075317,0.578491,-0.805908,519
37413065,9999,-0.076294,0.579102,-0.809448,522
37423064,9999,-0.079224,0.576782,-0.813232,525
37433068,10004,-0.081055,0.570312,-0.811157,522
37443080,10012,-0.079224,0.568970,-0.808350,522
37453071,9991,-0.076660,0.573242,-0.808960,518
37463065,9994,-0.075317,0.577026,-0.810303,517
37473112,10047,-0.076538,0.576904,-0.811646,520
37483060,9948,-0.078491,0.575806,-0.805908,517
37493062,10002,-0.079956,0.575195,-0.803833,516
37503083,10021,-0.077759,0.576538,-0.802490,514
37513067,9984,-0.077393,0.579712,-0.803467,511
37523087,10020,-0.074829,0.578735,-0.807739,516
37533079,9992,-0.076782,0.577026,-0.810059,515
37543073,9994,-0.077881,0.572632,-0.806274,515
37553081,10008,-0.078491,0.573730,-0.804932,512
37563072,9991,-0.077271,0.574219,-0.806152,513
37573062,9990,-0.076050,0.578491,-0.809082,509
37583067,10005,-0.076660,0.582031,-0.807739,506
37593089,10022,-0.075684,0.574707,-0.805664,512
37603067,9978,-0.075684,0.574341,-0.803223,513
37613059,9992,-0.072876,0.576416,-0.804199,513
37623074,10015,-0.070312,0.579346,-0.805054,512
37633083,10009,-0.071655,0.581177,-0.806396,513
37643081,9998,-0.072754,0.577026,-0.807129,515
37653076,9995,-0.077637,0.573608,-0.805054,511
37663067,9991,-0.077393,0.573120,-0.802612,516
37673084,10017,-0.077148,0.574463,-0.803223,511
37683068,9984,-0.078247,0.577881,-0.806152,507
37693087,10019,-0.079468,0.578003,-0.811035,509
37703086,9999,-0.082642,0.574585,-0.812378,514
37713085,9999,-0.081909,0.573730,-0.811157,513
37723074,9989,-0.081055,0.574829,-0.808716,512
37733088,10014,-0.079590,0.577271,-0.809082,509
37743072,9984,-0.077393,0.581177,-0.808228,512
37753088,10016,-0.074951,0.581787,-0.806641,507
37763084,9996,-0.073730,0.581543,-0.803711,506
37773080,9996,-0.070557,0.579102,-0.802856,505
37783070,9990,-0.068481,0.578613,-0.804199,513
37793087,10017,-0.067261,0.581299,-0.804565,509
37803062,9975,-0.067139,0.580811,-0.809814,511
37813082,10020,-0.069580,0.572754,-0.810547,510
37823073,9991,-0.073120,0.571655,-0.807251,507
37833062,9989,-0.073608,0.574707,-0.805908,509
37843066,10004,-0.074219,0.577393,-0.809570,508
37853067,10001,-0.075317,0.580933,-0.809814,512
37863082,10015,-0.082153,0.578857,-0.802246,512
37873084,10002,-0.083984,0.576782,-0.798218,511
37883070,9986,-0.082031,0.577271,-0.796997,511
37893059,9989,-0.080811,0.582397,-0.799316,508
37903077,10018,-0.080322,0.584961,-0.802734,512
37913068,9991,-0.078857,0.581177,-0.804077,511
37923071,10003,-0.076660,0.578491,-0.804810,511
37933083,10012,-0.072021,0.578857,-0.803467,505
37943066,9983,-0.066895,0.578857,-0.804565,507
37953074,10008,-0.065552,0.579102,-0.806641,505
37963086,10012,-0.067139,0.582153,-0.804077,506
37973109,10023,-0.071289,0.582520,-0.801514,512
37983082,9973,-0.072266,0.582642,-0.796631,512
37993073,9991,-0.071045,0.583618,-0.796021,509
38003075,10002,-0.071411,0.586914,-0.799438,513
38013073,9998,-0.071777,0.589844,-0.804565,513
38023082,10009,-0.075439,0.579224,-0.807373,516
38033088,10006,-0.075439,0.575806,-0.804687,517
38043086,9998,-0.075928,0.578491,-0.802612,513
38053062,9976,-0.074463,0.580322,-0.801880,514
38063086,10024,-0.073120,0.581177,-0.804565,523
38073077,9991,-0.077515,0.586182,-0.800415,517
38083076,9999,-0.080200,0.583374,-0.798584,521
38093093,10017,-0.082642,0.581543,-0.800537,523
38103085,9992,-0.084473,0.581055,-0.802979,525
38113066,9981,-0.084961,0.580078,-0.806519,525
38123068,10002,-0.085571,0.579956,-0.810669,525
38133086,10018,-0.085083,0.577026,-0.812378,526
38143079,9993,-0.083496,0.574463,-0.810547,521
38153087,10008,-0.079712,0.572510,-0.809937,515
38163070,9983,-0.073975,0.573730,-0.809692,514
38173076,10006,-0.072388,0.575684,-0.808716,519
38183071,9995,-0.070557,0.573486,-0.803467,517
38193069,9998,-0.071045,0.575562,-0.800415,516
38203067,9998,-0.068726,0.578369,-0.794189,511
38213119,10052,-0.066528,0.583130,-0.801025,520
38223079,9960,-0.069214,0.588257,-0.810181,510
38233070,9991,-0.071655,0.579956,-0.807617,509
38243062,9992,-0.074219,0.579224,-0.809082,513
38253072,10010,-0.072876,0.579956,-0.806885,514
38263064,9992,-0.071167,0.579712,-0.803101,505
38273087,10023,-0.071167,0.583008,-0.810303,508
38283084,9997,-0.069702,0.582397,-0.801514,511
38293084,10000,-0.070557,0.579712,-0.797852,512
38303062,9978,-0.071289,0.580200,-0.797729,508
38313078,10016,-0.074097,0.581299,-0.795166,512
38323062,9984,-0.075439,0.581177,-0.794067,514
38333078,10016,-0.077393,0.582031,-0.794312,514
38343091,10013,-0.080566,0.581299,-0.802368,507
38353066,9975,-0.080811,0.587036,-0.813599,507
38363086,10020,-0.081421,0.589600,-0.816895,509
38373079,9993,-0.082031,0.581543,-0.816528,514
38383068,9989,-0.081299,0.576172,-0.811646,507
38393082,10014,-0.077759,0.577759,-0.801636,514
38403086,10004,-0.076782,0.584229,-0.796509,511
38413077,9991,-0.075562,0.588379,-0.794434,511
38423080,10003,-0.072754,0.588623,-0.797119,505
38433064,9984,-0.072510,0.588379,-0.799072,505
38443064,10000,-0.071777,0.586304,-0.803955,510
38453068,10004,-0.072021,0.582520,-0.807495,512
38463065,9997,-0.071899,0.578125,-0.808594,507
38473086,10021,-0.072144,0.573120,-0.809082,511
38483077,9991,-0.070801,0.572998,-0.808472,507
38493066,9989,-0.069580,0.576050,-0.806274,511
38503084,10018,-0.067993,0.579956,-0.804077,511
38513078,9994,-0.067871,0.581787,-0.804687,512
38523069,9991,-0.068359,0.582886,-0.804565,510
38533064,9995,-0.068237,0.581909,-0.803711,506
38543072,10008,-0.070190,0.580811,-0.802856,512
38553078,10006,-0.075562,0.580688,-0.800781,511
38563087,10009,-0.076782,0.581787,-0.800659,510
38573075,9988,-0.079590,0.582520,-0.800171,505
38583073,9998,-0.080322,0.582642,-0.801636,511
38593084,10011,-0.081299,0.585449,-0.801758,511
38603059,9975,-0.080811,0.585815,-0.801147,509
38613071,10012,-0.079834,0.577637,-0.801636,506
38623088,10017,-0.078369,0.576660,-0.802612,511
38633077,9989,-0.078979,0.577148,-0.805176,512
38643069,9992,-0.078735,0.577271,-0.809082,504
38653069,10000,-0.079834,0.575928,-0.809570,512
38663077,10008,-0.076782,0.580933,-0.807007,512
38673345,10268,-0.076904,0.582886,-0.804321,512
38683076,9731,-0.076294,0.584473,-0.803589,507
38693103,10027,-0.074829,0.584961,-0.801758,506
38703062,9959,-0.073730,0.585327,-0.800903,503
38713066,10004,-0.067627,0.580933,-0.804443,509
38723080,10014,-0.066895,0.578857,-0.806030,510
38733063,9983,-0.069946,0.576660,-0.807739,503
38743077,10014,-0.073242,0.574829,-0.809082,510
38753085,10008,-0.075684,0.574341,-0.807495,506
38763068,9983,-0.077759,0.576904,-0.804932,511
38773079,10011,-0.078125,0.581421,-0.805542,511
38783085,10006,-0.077271,0.581665,-0.806519,508
38793076,9991,-0.075684,0.579956,-0.807617,512
38803086,10010,-0.076538,0.576172,-0.808716,515
38813126,10040,-0.076294,0.572754,-0.807373,516
38823069,9943,-0.079224,0.574829,-0.804810,513
38833083,10014,-0.077271,0.577271,-0.804565,517
38843088,10005,-0.077881,0.581177,-0.803955,519
38853077,9989,-0.076172,0.582031,-0.804687,518
38863087,10010,-0.076660,0.582153,-0.803589,521
38873066,9979,-0.076172,0.579468,-0.804932,528
38883082,10016,-0.076416,0.579224,-0.806396,519
38893063,9981,-0.076904,0.579468,-0.807739,524
38903072,10009,-0.076172,0.579468,-0.810547,521
38913082,10010,-0.074829,0.579224,-0.812012,524
38923064,9982,-0.074585,0.577515,-0.805298,523
38933122,10058,-0.071777,0.578491,-0.801270,521
38943075,9953,-0.072754,0.581299,-0.799805,512
38953074,9999,-0.073242,0.581055,-0.799805,525
38963060,9986,-0.072876,0.581909,-0.800415,518
38973070,10010,-0.074951,0.582153,-0.802246,515
38983066,9996,-0.078247,0.577271,-0.808350,515
38993065,9999,-0.081299,0.575684,-0.809448,514
39003067,10002,-0.081177,0.576050,-0.809082,514
39013083,10016,-0.078857,0.578613,-0.807739,514
39023087,10004,-0.077515,0.579834,-0.805664,515
39033063,9976,-0.078247,0.578003,-0.801392,513
39043070,10007,-0.078247,0.578125,-0.802246,512
39053065,9995,-0.076782,0.578613,-0.803711,513
39063070,10005,-0.075073,0.578735,-0.804810,513
39073074,10004,-0.074707,0.577759,-0.808105,509
39083063,9989,-0.074097,0.577026,-0.808594,513
39093079,10016,-0.076416,0.574585,-0.806274,512
39103073,9994,-0.077148,0.574341,-0.805420,509
39113082,10009,-0.077393,0.575317,-0.806396,512
39123059,9977,-0.077881,0.576782,-0.808350,511
39133075,10016,-0.077759,0.576782,-0.809082,510
39143079,10004,-0.079590,0.575928,-0.809570,507
39153075,9996,-0.079468,0.574951,-0.808350,514
39163072,9997,-0.078613,0.574585,-0.808350,513
39173090,10018,-0.076294,0.575928,-0.807861,512
39183069,9979,-0.074951,0.577393,-0.808350,509
39193082,10013,-0.077026,0.580444,-0.805664,511
39203085,10003,-0.076904,0.578491,-0.804565,511
39213070,9985,-0.077393,0.577515,-0.804565,514
39223059,9989,-0.078247,0.577515,-0.805908,513
39233075,10016,-0.080200,0.576538,-0.806763,509
39243079,10004,-0.080444,0.577026,-0.809204,512
39253066,9987,-0.081177,0.576172,-0.808960,505
39263073,10007,-0.081055,0.578735,-0.808716,510
39273079,10006,-0.081787,0.578003,-0.808594,512
39283079,10000,-0.080933,0.574097,-0.808716,511
39293106,10027,-0.080811,0.573853,-0.808228,511
39303065,9959,-0.079468,0.576416,-0.806396,506
39313071,10006,-0.078735,0.577026,-0.806641,511
39323071,10000,-0.076904,0.577759,-0.805420,509
39333070,9999,-0.075928,0.578613,-0.804565,507
39343079,10009,-0.075073,0.578491,-0.804199,510
39353076,9997,-0.078003,0.578613,-0.805298,510
39363076,10000,-0.079712,0.578247,-0.804443,511
39373067,9991,-0.079224,0.577515,-0.805298,509
39383068,10001,-0.079102,0.577026,-0.806885,511
39393062,9994,-0.078125,0.575806,-0.805176,513
39403083,10021,-0.077637,0.575684,-0.806152,512
39413128,10045,-0.078979,0.573242,-0.808716,507
39423068,9940,-0.080566,0.573975,-0.809204,511
39433068,10000,-0.080688,0.574463,-0.809082,506
39443074,10006,-0.080322,0.574951,-0.809326,511
39453062,9988,-0.079834,0.575073,-0.809204,504
39463059,9997,-0.080200,0.579346,-0.807495,509
39473065,10006,-0.080444,0.579224,-0.807007,510
39483067,10002,-0.080566,0.578979,-0.805786,503
39493083,10016,-0.080688,0.578125,-0.805542,506
39503073,9990,-0.079346,0.578247,-0.805298,511
39513081,10008,-0.079834,0.578735,-0.806641,512
39523078,9997,-0.079468,0.575195,-0.807251,509
39533086,10008,-0.078125,0.572144,-0.806152,511
39543063,9977,-0.078613,0.571411,-0.808472,514
39553079,10016,-0.078857,0.573608,-0.808960,519
39563067,9988,-0.078735,0.574951,-0.807129,521
39573086,10019,-0.079102,0.575684,-0.808838,525
39583087,10001,-0.079834,0.575562,-0.808228,515
39593087,10000,-0.081055,0.578125,-0.806274,526
39603067,9980,-0.080933,0.580078,-0.804687,522
39613066,9999,-0.083130,0.578735,-0.807007,520
39623084,10018,-0.082886,0.578857,-0.803955,518
39633085,10001,-0.083740,0.578613,-0.803223,518
39643074,9989,-0.083008,0.579224,-0.804077,514
39653084,10010,-0.081543,0.580933,-0.806763,513
39663071,9987,-0.082886,0.581665,-0.806396,514
39673072,10001,-0.080811,0.575562,-0.808960,510
39684893,11821,-0.078735,0.573242,-0.809692,513
39693076,8183,-0.077271,0.572998,-0.810669,509
39703086,10010,-0.074707,0.572266,-0.810547,514
39713081,9995,-0.073730,0.572266,-0.809082,511
39723074,9993,-0.075317,0.573975,-0.809937,509
39733074,10000,-0.075073,0.577637,-0.804565,506
39743062,9988,-0.076294,0.577515,-0.804321,512
39753070,10008,-0.077271,0.578003,-0.805542,511
39763084,10014,-0.077026,0.580566,-0.807983,505
39773072,9988,-0.078125,0.580811,-0.808105,510
39783088,10016,-0.082153,0.578247,-0.803833,509
39793063,9975,-0.083618,0.578735,-0.803223,511
39803059,9996,-0.082153,0.579712,-0.803589,504
39813073,10014,-0.082153,0.579956,-0.804565,513
39823070,9997,-0.081299,0.579834,-0.804443,510
39833062,9992,-0.078247,0.575439,-0.808472,511
39843076,10014,-0.076294,0.575317,-0.807617,511
39853086,10010,-0.076294,0.575562,-0.806763,515
39863078,9992,-0.076660,0.577026,-0.806274,512
39873059,9981,-0.076660,0.577637,-0.806030,512
39883070,10011,-0.076904,0.578857,-0.805176,514
39893078,10008,-0.080566,0.581055,-0.805542,512
39903087,10009,-0.080078,0.580322,-0.806274,512
39913113,10026,-0.081787,0.579346,-0.804687,512
39923065,9952,-0.080444,0.578979,-0.802856,512
39933067,10002,-0.081665,0.577515,-0.804077,511
39943078,10011,-0.081665,0.579224,-0.803833,510
39953064,9986,-0.082153,0.578247,-0.804199,511
39963077,10013,-0.080444,0.578491,-0.804443,508
39973078,10001,-0.079468,0.579224,-0.804810,510
39983066,9988,-0.079712,0.579224,-0.806763,505
39993067,10001,-0.079956,0.579590,-0.806763,509
40003083,10016,-0.079346,0.579834,-0.805176,508
40013068,9985,-0.079346,0.578613,-0.806885,508
40023066,9998,-0.079102,0.579468,-0.807007,507
40033087,10021,-0.078125,0.579956,-0.806152,508
40043068,9981,-0.078857,0.580078,-0.805542,508
40053070,10002,-0.080078,0.578003,-0.804932,507
40063087,10017,-0.079468,0.577393,-0.804687,510
40073081,9994,-0.079224,0.577881,-0.804687,510
40083083,10002,-0.080688,0.577393,-0.804687,510
40093068,9985,-0.081177,0.578735,-0.804687,509
40103077,10009,-0.079956,0.579224,-0.807007,509
40113069,9992,-0.078857,0.577881,-0.806641,509
40123065,9996,-0.078735,0.577393,-0.805176,509
40133086,10021,-0.078735,0.576416,-0.804687,511
40143063,9977,-0.077637,0.577759,-0.804199,510
40153082,10019,-0.077881,0.580078,-0.804321,511
40163086,10004,-0.078369,0.580322,-0.805908,512
40173071,9985,-0.078613,0.578491,-0.805664,510
40183104,10033,-0.079834,0.578735,-0.806885,510
40193064,9960,-0.081177,0.578369,-0.808472,512
40203089,10025,-0.082397,0.579590,-0.807495,510
40213071,9982,-0.083374,0.581055,-0.806763,511
40223063,9992,-0.081299,0.579346,-0.806763,511
40233072,10009,-0.081787,0.578857,-0.807983,512
40243069,9997,-0.081177,0.578125,-0.807007,514
40253075,10006,-0.080322,0.577759,-0.806519,515
40263084,10009,-0.076660,0.579712,-0.806763,516
40273088,10004,-0.076904,0.576172,-0.796509,517
40283078,9990,-0.078125,0.575928,-0.799438,521
40293073,9995,-0.076904,0.581055,-0.804565,526
40303071,9998,-0.077637,0.582764,-0.804932,527
40313092,10021,-0.077637,0.582397,-0.807739,520
40323068,9976,-0.079712,0.577637,-0.808105,517
40333059,9991,-0.082520,0.577881,-0.805420,517
40343079,10020,-0.080078,0.579834,-0.805908,524
40353071,9992,-0.080688,0.581299,-0.804810,525
40363064,9993,-0.080933,0.580688,-0.805298,515
40373067,10003,-0.081299,0.579590,-0.804443,515
40383062,9995,-0.079956,0.579956,-0.805664,519
40393076,10014,-0.080566,0.580933,-0.802856,515
40403059,9983,-0.082275,0.581055,-0.803223,518
40413064,10005,-0.082153,0.579468,-0.805054,517
40423080,10016,-0.080566,0.578247,-0.804443,512
40433069,9989,-0.079712,0.578247,-0.804687,515
