t_us,dt_us,ax,ay,az,ppg
23965785,10015,0.325317,-0.258545,-0.927979,513
23975798,10013,0.324097,-0.260620,-0.930786,513
23985773,9975,0.321899,-0.260010,-0.934326,516
23995785,10012,0.322388,-0.257690,-0.936768,516
24005794,10009,0.321655,-0.257324,-0.932495,514
24015790,9996,0.321899,-0.265015,-0.926270,510
24025775,9985,0.324585,-0.270996,-0.926270,510
24035793,10018,0.325439,-0.270630,-0.924438,509
24045772,9979,0.326538,-0.270386,-0.923462,507
24055772,10000,0.328247,-0.268311,-0.923828,513
24065789,10017,0.327637,-0.261963,-0.926147,510
24075774,9985,0.325684,-0.260986,-0.929687,510
24085788,10014,0.322632,-0.260986,-0.932983,509
24095796,10008,0.320313,-0.260132,-0.934937,513
24105793,9997,0.318726,-0.258179,-0.940186,519
24115775,9982,0.315674,-0.251831,-0.937134,514
24125798,10023,0.316040,-0.248535,-0.936035,513
24135789,9991,0.318481,-0.241821,-0.934082,511
24145796,10007,0.321655,-0.242798,-0.932739,513
24155790,9994,0.326050,-0.244995,-0.933228,514
24165820,10030,0.330811,-0.246094,-0.932983,512
24175796,9976,0.334839,-0.247070,-0.925781,514
24185787,9991,0.334839,-0.248535,-0.922119,513
24195789,10002,0.333740,-0.250000,-0.921997,506
24205774,9985,0.333130,-0.253418,-0.923706,514
24215790,10016,0.332397,-0.255859,-0.927368,516
24225792,10002,0.328735,-0.257080,-0.930420,514
24235799,10007,0.327881,-0.258911,-0.932495,507
24245775,9976,0.325806,-0.256836,-0.933228,514
24255781,10006,0.325195,-0.253906,-0.931030,512
24265781,10000,0.325317,-0.253784,-0.931885,511
24275783,10002,0.326294,-0.253906,-0.933594,515
24285785,10002,0.325928,-0.255615,-0.932739,514
24295772,9987,0.325806,-0.257690,-0.932129,511
24305782,10010,0.325317,-0.255859,-0.929077,512
24315787,10005,0.324951,-0.252441,-0.926147,513
24325798,10011,0.327393,-0.247559,-0.925171,511
24335776,9978,0.328979,-0.250854,-0.930908,512
24345790,10014,0.328857,-0.249023,-0.929321,510
24355784,9994,0.325684,-0.245483,-0.927612,512
24365796,10012,0.324585,-0.246338,-0.926392,508
24375799,10003,0.323608,-0.247925,-0.925537,505
24385779,9980,0.324341,-0.250732,-0.930908,512
24395791,10012,0.327637,-0.255005,-0.940430,511
24405794,10003,0.325684,-0.250000,-0.936279,513
24419264,13470,0.325562,-0.241821,-0.928467,505
24425798,6534,0.000000,0.000000,0.000000,511
24435782,9984,0.327759,-0.246704,-0.933716,506
24445794,10012,0.326904,-0.248169,-0.933716,514
24455779,9985,0.328979,-0.248657,-0.933228,513
24465790,10011,0.328613,-0.249146,-0.929810,513
24475815,10025,0.328125,-0.246704,-0.927002,514
24485777,9962,0.327393,-0.245361,-0.926147,513
24495774,9997,0.328735,-0.245972,-0.927124,510
24505771,9997,0.328613,-0.247803,-0.930298,511
24515775,10004,0.328735,-0.250244,-0.930664,513
24525797,10022,0.324951,-0.248169,-0.928467,510
24535785,9988,0.323853,-0.248047,-0.929565,513
24545793,10008,0.323120,-0.251221,-0.935303,516
24555797,10004,0.324341,-0.251831,-0.934814,516
24565799,10002,0.325073,-0.253296,-0.934204,513
24575786,9987,0.325928,-0.250610,-0.931519,511
24585793,10007,0.326172,-0.249146,-0.930298,516
24595785,9992,0.327637,-0.246826,-0.928101,516
24605796,10011,0.328857,-0.248291,-0.926880,516
24615787,9991,0.329346,-0.250854,-0.930542,514
24625770,9983,0.329102,-0.250488,-0.930786,510
24635784,10014,0.328003,-0.248901,-0.931274,515
24645786,10002,0.325439,-0.246826,-0.931885,515
24655775,9989,0.324829,-0.239502,-0.930786,514
24665796,10021,0.323975,-0.239502,-0.932373,515
24675791,9995,0.325439,-0.241821,-0.932129,516
24685781,9990,0.327026,-0.244263,-0.933472,514
24695797,10016,0.328491,-0.243896,-0.932617,509
24705770,9973,0.328979,-0.247803,-0.932861,508
24715772,10002,0.327271,-0.249756,-0.931519,515
24725771,9999,0.327271,-0.249390,-0.930786,513
24735783,10012,0.326416,-0.246216,-0.932251,515
24745794,10011,0.325317,-0.242676,-0.929687,513
24755798,10004,0.327637,-0.243652,-0.930054,516
24765797,9999,0.327515,-0.244141,-0.930786,511
24775783,9986,0.328979,-0.246216,-0.933716,507
24785775,9992,0.328979,-0.245483,-0.930786,511
24795793,10018,0.328369,-0.242920,-0.933228,509
24805792,9999,0.327759,-0.242676,-0.931519,515
24815770,9978,0.326050,-0.243774,-0.932373,508
24825799,10029,0.325439,-0.243896,-0.931763,507
24835792,9993,0.325562,-0.244263,-0.932617,507
24845796,10004,0.325439,-0.242798,-0.930908,514
24855776,9980,0.328247,-0.242432,-0.930786,513
24865770,9994,0.329102,-0.242920,-0.929565,509
24875799,10029,0.329712,-0.244507,-0.928223,513
24885784,9985,0.329102,-0.248779,-0.929565,514
24895780,9996,0.327637,-0.250244,-0.931641,516
24905795,10015,0.325439,-0.249756,-0.932373,515
24915791,9996,0.324707,-0.247559,-0.932129,511
24925771,9980,0.326172,-0.248901,-0.934692,515
24935775,10004,0.325195,-0.245972,-0.935669,507
24945791,10016,0.325928,-0.243774,-0.933472,514
24955778,9987,0.326294,-0.243286,-0.930298,508
24965774,9996,0.327271,-0.245850,-0.931885,515
24975774,10000,0.327881,-0.246094,-0.933350,514
24985774,10000,0.327637,-0.244507,-0.932861,507
24995794,10020,0.328369,-0.242798,-0.929565,513
25005797,10003,0.326904,-0.241577,-0.928955,514
25015782,9985,0.328125,-0.241577,-0.927246,512
25025773,9991,0.328003,-0.239868,-0.930176,513
25035781,10008,0.328247,-0.241943,-0.930786,506
25045795,10014,0.328247,-0.243652,-0.930176,513
25055785,9990,0.328125,-0.247192,-0.929810,507
25065771,9986,0.326294,-0.247681,-0.931519,513
25075790,10019,0.325439,-0.245117,-0.934082,513
25085797,10007,0.325195,-0.241699,-0.932495,507
25095772,9975,0.326050,-0.239868,-0.929687,512
25105775,10003,0.326416,-0.241333,-0.931152,514
25115817,10042,0.328613,-0.243652,-0.931152,509
25125790,9973,0.329346,-0.245972,-0.931152,508
25135784,9994,0.331665,-0.249756,-0.927124,505
25145781,9997,0.329834,-0.248413,-0.929687,509
25155796,10015,0.326538,-0.246704,-0.930420,514
25165793,9997,0.324585,-0.243896,-0.930420,513
25175786,9993,0.323486,-0.242310,-0.930542,513
25185785,9999,0.325439,-0.244141,-0.930542,507
25195793,10008,0.326660,-0.246948,-0.933838,507
25205783,9990,0.327026,-0.248047,-0.934448,513
25215787,10004,0.325073,-0.246948,-0.933105,516
25225794,10007,0.323975,-0.247681,-0.931519,517
25235794,10000,0.325928,-0.246216,-0.932495,509
25245775,9981,0.327393,-0.245117,-0.933594,511
25255780,10005,0.328125,-0.244629,-0.931885,511
25265784,10004,0.328003,-0.242920,-0.930176,516
25275777,9993,0.327637,-0.242432,-0.928467,515
25285781,10004,0.328857,-0.243042,-0.927002,516
25295789,10008,0.330444,-0.248535,-0.929565,515
25305793,10004,0.329712,-0.249878,-0.931885,493
25315786,9993,0.328125,-0.247803,-0.931641,512
25325790,10004,0.325562,-0.245728,-0.931396,515
25335778,9988,0.325317,-0.244873,-0.932617,517
25345798,10020,0.325195,-0.241943,-0.933472,510
25355779,9981,0.327271,-0.245117,-0.933105,510
25365796,10017,0.328735,-0.246582,-0.934082,515
25375784,9988,0.327759,-0.249023,-0.932983,515
25385773,9989,0.326660,-0.250000,-0.930908,514
25395800,10027,0.327026,-0.248291,-0.927856,512
25405790,9990,0.328125,-0.248779,-0.928345,514
25419305,13515,0.328979,-0.247803,-0.928467,513
25425788,6483,0.330078,-0.248657,-0.928833,513
25435783,9995,0.329346,-0.249878,-0.928833,510
25445773,9990,0.329346,-0.250244,-0.929321,512
25455788,10015,0.327393,-0.245605,-0.929687,512
25465814,10026,0.325806,-0.244995,-0.927734,508
25475784,9970,0.327148,-0.246826,-0.934204,506
25485783,9999,0.328613,-0.248047,-0.937256,511
25495773,9990,0.327271,-0.241699,-0.939819,512
25505799,10026,0.326416,-0.238403,-0.930420,512
25515781,9982,0.327759,-0.240112,-0.924438,515
25525795,10014,0.329834,-0.243896,-0.924683,513
25535784,9989,0.330566,-0.245239,-0.927734,516
25545799,10015,0.332153,-0.247681,-0.929199,509
25555792,9993,0.329224,-0.246582,-0.926758,514
25565773,9981,0.327515,-0.242920,-0.923706,507
25575790,10017,0.328613,-0.242065,-0.925781,513
25585787,9997,0.329224,-0.241943,-0.927490,515
25595792,10005,0.330811,-0.246460,-0.934082,514
25605771,9979,0.330933,-0.250488,-0.931152,510
25615782,10011,0.325439,-0.246826,-0.927368,515
25625771,9989,0.325439,-0.248901,-0.930420,513
25635782,10011,0.325806,-0.247681,-0.933716,513
25645815,10033,0.328857,-0.248413,-0.939209,508
25655786,9971,0.328857,-0.248413,-0.937256,514
25665775,9989,0.326172,-0.248047,-0.926636,510
25675778,10003,0.327393,-0.246460,-0.923706,510
25685779,10001,0.329346,-0.244629,-0.923462,511
25695774,9995,0.329834,-0.245728,-0.927124,510
25705779,10005,0.331665,-0.246948,-0.928833,507
25715789,10010,0.330322,-0.245239,-0.925049,512
25725800,10011,0.329712,-0.243530,-0.925415,512
25735799,9999,0.326172,-0.239746,-0.924072,505
25745799,10000,0.327637,-0.240601,-0.928711,513
25755771,9972,0.328369,-0.240112,-0.934204,513
25765782,10011,0.327515,-0.240112,-0.934448,511
25775775,9993,0.328125,-0.236816,-0.929565,513
25785798,10023,0.329224,-0.239502,-0.927612,513
25795776,9978,0.330933,-0.246216,-0.932129,509
25805797,10021,0.330200,-0.247437,-0.929932,513
25815779,9982,0.330322,-0.246338,-0.932251,513
25825799,10020,0.327759,-0.239624,-0.927002,511
25835771,9972,0.330444,-0.240356,-0.928467,508
25845780,10009,0.329468,-0.240356,-0.931396,512
25855782,10002,0.329712,-0.242187,-0.933594,513
25865799,10017,0.327637,-0.245972,-0.933472,510
25875809,10010,0.325317,-0.249146,-0.930908,513
25885795,9986,0.325317,-0.248169,-0.933472,515
25895788,9993,0.325684,-0.245728,-0.935913,516
25905775,9987,0.324707,-0.240845,-0.937500,510
25915787,10012,0.326050,-0.239258,-0.934326,512
25925803,10016,0.326050,-0.238525,-0.924438,513
25935778,9975,0.331177,-0.241333,-0.923828,514
25945784,10006,0.334106,-0.246704,-0.927490,511
25955782,9998,0.335205,-0.246704,-0.931274,516
25965781,9999,0.333252,-0.242554,-0.927856,509
25975782,10001,0.329590,-0.239624,-0.923462,515
25985781,9999,0.325439,-0.239502,-0.930176,510
25995790,10009,0.327881,-0.244385,-0.936401,516
26005778,9988,0.329834,-0.247437,-0.940552,506
26015782,10004,0.326050,-0.246460,-0.938110,514
26025784,10002,0.325317,-0.246826,-0.934937,514
26035798,10014,0.324829,-0.244385,-0.931274,514
26045796,9998,0.325806,-0.242065,-0.934448,511
26055793,9997,0.328369,-0.241821,-0.936035,516
26065788,9995,0.330688,-0.240112,-0.933960,512
26075792,10004,0.330688,-0.242065,-0.932373,507
26085799,10007,0.330688,-0.240967,-0.927246,513
26095796,9997,0.327881,-0.240601,-0.928589,506
26105772,9976,0.329468,-0.239624,-0.931519,508
26115794,10022,0.328979,-0.239136,-0.933594,512
26125789,9995,0.328369,-0.239380,-0.932373,514
26135774,9985,0.327637,-0.237183,-0.930176,514
26145780,10006,0.327515,-0.235840,-0.930786,514
26155795,10015,0.326904,-0.238281,-0.932983,512
26165774,9979,0.327148,-0.239502,-0.935547,512
26175778,10004,0.327148,-0.242065,-0.935669,516
26185792,10014,0.326538,-0.242920,-0.933594,515
26195780,9988,0.325317,-0.241821,-0.932617,511
26205794,10014,0.325562,-0.239990,-0.932617,510
26215771,9977,0.326782,-0.240723,-0.933105,515
26225775,10004,0.328247,-0.240112,-0.933105,508
26235798,10023,0.328857,-0.239380,-0.933594,512
26245799,10001,0.330566,-0.241333,-0.927856,514
26255778,9979,0.329224,-0.242310,-0.927612,510
26265784,10006,0.329468,-0.243042,-0.930908,513
26275773,9989,0.327271,-0.243408,-0.932861,515
26285796,10023,0.326294,-0.243042,-0.933350,515
26295819,10023,0.325317,-0.241577,-0.931519,513
26305784,9965,0.325562,-0.239868,-0.930664,508
26315799,10015,0.327026,-0.239624,-0.930054,509
26325783,9984,0.329102,-0.240112,-0.932983,508
26335782,9999,0.329712,-0.240601,-0.932983,512
26345790,10008,0.328003,-0.241577,-0.932007,507
26355781,9991,0.328003,-0.240723,-0.930054,507
26365797,10016,0.327393,-0.240967,-0.933350,512
26375792,9995,0.327393,-0.242310,-0.935059,512
26385787,9995,0.326294,-0.240112,-0.935181,512
26395781,9994,0.325195,-0.238159,-0.933838,511
26405778,9997,0.325195,-0.237549,-0.931030,507
26415791,10013,0.330322,-0.236938,-0.930420,510
26427413,11622,0.330200,-0.240845,-0.929443,512
26435790,8377,0.332031,-0.241699,-0.926880,512
26445771,9981,0.333740,-0.244385,-0.926025,505
26455787,10016,0.331909,-0.243408,-0.924072,506
26465782,9995,0.328613,-0.239746,-0.926514,505
26475770,9988,0.328735,-0.242310,-0.931641,512
26485817,10047,0.326416,-0.240112,-0.930420,510
26495784,9967,0.326416,-0.244873,-0.934082,512
26505779,9995,0.325073,-0.242554,-0.933716,514
26515789,10010,0.325928,-0.243408,-0.938232,515
26525775,9986,0.324829,-0.242432,-0.938965,516
26535793,10018,0.324585,-0.242920,-0.940186,514
26545791,9998,0.325073,-0.242554,-0.939819,509
26555782,9991,0.323608,-0.241577,-0.936523,517
26565790,10008,0.325073,-0.239990,-0.929321,510
26575780,9990,0.328857,-0.239014,-0.926880,516
26585792,10012,0.331787,-0.242432,-0.928467,515
26595782,9990,0.333496,-0.244629,-0.928467,513
26605810,10028,0.333618,-0.245483,-0.927246,516
26615773,9963,0.330811,-0.244141,-0.926758,511
26625788,10015,0.324951,-0.241211,-0.928711,515
26635787,9999,0.324951,-0.241211,-0.932739,509
26645770,9983,0.325562,-0.242065,-0.937012,512
26655772,10002,0.327148,-0.243530,-0.937378,512
26665789,10017,0.328369,-0.244019,-0.934937,510
26675785,9996,0.328735,-0.245239,-0.931763,513
26685772,9987,0.329590,-0.243896,-0.930908,509
26695798,10026,0.328003,-0.243774,-0.933228,511
26705790,9992,0.329590,-0.243286,-0.934326,510
26715781,9991,0.330322,-0.242187,-0.931763,508
26725772,9991,0.328125,-0.238159,-0.927490,513
26735776,10004,0.329102,-0.234131,-0.926880,506
26745772,9996,0.328613,-0.238892,-0.931396,514
26755795,10023,0.330200,-0.240601,-0.933838,512
26765788,9993,0.329712,-0.243530,-0.934570,512
26775789,10001,0.328125,-0.241211,-0.932861,507
26785788,9999,0.327881,-0.237671,-0.927979,510
26795787,9999,0.328003,-0.237061,-0.930054,513
26805791,10004,0.328003,-0.238525,-0.933105,513
26815782,9991,0.329590,-0.240356,-0.934082,510
26825794,10012,0.329224,-0.241089,-0.932617,513
26835788,9994,0.329224,-0.241943,-0.929443,508
26845791,10003,0.329102,-0.240356,-0.930054,514
26855791,10000,0.330322,-0.239746,-0.931641,514
26865797,10006,0.329102,-0.239624,-0.933472,516
26875779,9982,0.329468,-0.239258,-0.933228,513
26885779,10000,0.326904,-0.237793,-0.930420,513
26895789,10010,0.326904,-0.239624,-0.928833,507
26905786,9997,0.329224,-0.239014,-0.929932,509
26915774,9988,0.328857,-0.239746,-0.932617,507
26925791,10017,0.330078,-0.238892,-0.932007,511
26935781,9990,0.330078,-0.239136,-0.931030,513
26945797,10016,0.329102,-0.235352,-0.930786,513
26955795,9998,0.329834,-0.237061,-0.931030,514
26965778,9983,0.329224,-0.239624,-0.932861,511
26975793,10015,0.329346,-0.241211,-0.933350,512
26985785,9992,0.330444,-0.240112,-0.933228,510
26995821,10036,0.328857,-0.239868,-0.928345,513
27005770,9949,0.328979,-0.240601,-0.929321,513
27015771,10001,0.328979,-0.240356,-0.932861,511
27025782,10011,0.329346,-0.239990,-0.934082,508
27035777,9995,0.328979,-0.239746,-0.934204,512
27045781,10004,0.327637,-0.234985,-0.928345,508
27055794,10013,0.328247,-0.234131,-0.926636,512
27065788,9994,0.331055,-0.236694,-0.928955,512
27075781,9993,0.334351,-0.237671,-0.930664,512
27085784,10003,0.336182,-0.239380,-0.929687,511
27095781,9997,0.335205,-0.239868,-0.927856,512
27105775,9994,0.332153,-0.239258,-0.925781,505
27115821,10046,0.330688,-0.237671,-0.926392,507
27125797,9976,0.330078,-0.237671,-0.927856,513
27135787,9990,0.329346,-0.237427,-0.931396,513
27145777,9990,0.328003,-0.239502,-0.932983,510
27155779,10002,0.326416,-0.238892,-0.934448,514
27165792,10013,0.324707,-0.238159,-0.929932,514
27175797,10005,0.327881,-0.239502,-0.936157,517
27185797,10000,0.333374,-0.246216,-0.943970,517
27195786,9989,0.328247,-0.240356,-0.936890,517
27205797,10011,0.331543,-0.233398,-0.926758,515
27215778,9981,0.328003,-0.234741,-0.925293,518
27225815,10037,0.330933,-0.237793,-0.930786,518
27235771,9956,0.330811,-0.236572,-0.931641,518
27245797,10026,0.332642,-0.239014,-0.933350,517
27255790,9993,0.331665,-0.239502,-0.932861,511
27265783,9993,0.329590,-0.238403,-0.924072,514
27275782,9999,0.328857,-0.236694,-0.925903,517
27285786,10004,0.329468,-0.238281,-0.933105,510
27295793,10007,0.331665,-0.239380,-0.937500,510
27305787,9994,0.331665,-0.239868,-0.936035,515
27315774,9987,0.330200,-0.237305,-0.927246,512
27325775,10001,0.329468,-0.240479,-0.930420,514
27335778,10003,0.330811,-0.244751,-0.933716,514
27345794,10016,0.331299,-0.243896,-0.934204,512
27355792,9998,0.330933,-0.241577,-0.933105,516
27365770,9978,0.331055,-0.237427,-0.926758,514
27375782,10012,0.331421,-0.235596,-0.926880,511
27385782,10000,0.331787,-0.235596,-0.928955,512
27395789,10007,0.332275,-0.239136,-0.932739,512
27405809,10020,0.330933,-0.241943,-0.933960,511
27415777,9968,0.329224,-0.241821,-0.932129,508
27425781,10004,0.329224,-0.240234,-0.930054,512
27435770,9989,0.328857,-0.236816,-0.932495,509
27445824,10054,0.329834,-0.234131,-0.935669,513
27455771,9947,0.329834,-0.233154,-0.933838,515
27465798,10027,0.330933,-0.233154,-0.929565,512
27475789,9991,0.331909,-0.235962,-0.927856,516
27485796,10007,0.332642,-0.240112,-0.930298,515
27495790,9994,0.332153,-0.241821,-0.931763,515
27505784,9994,0.330566,-0.240356,-0.930786,513
27515789,10005,0.329712,-0.237793,-0.928955,513
27525799,10010,0.329590,-0.236816,-0.929565,509
27535798,9999,0.329102,-0.238037,-0.931274,513
27545774,9976,0.330200,-0.238647,-0.933472,511
27555772,9998,0.330444,-0.239380,-0.934448,506
27565799,10027,0.330322,-0.240723,-0.933105,515
27575780,9981,0.331177,-0.240112,-0.930298,514
27585781,10001,0.329834,-0.237671,-0.931152,509
27595796,10015,0.330811,-0.237427,-0.931641,513
27605774,9978,0.329712,-0.238647,-0.933228,509
27615778,10004,0.330078,-0.239868,-0.932617,513
27625779,10001,0.329956,-0.238403,-0.932373,512
27635774,9995,0.330322,-0.238281,-0.929077,512
27645799,10025,0.330566,-0.238281,-0.930420,510
27655787,9988,0.330811,-0.235474,-0.931885,505
27665798,10011,0.330322,-0.234131,-0.932495,518
27675784,9986,0.330444,-0.234375,-0.931274,507
27685792,10008,0.330444,-0.238159,-0.927856,509
27695781,9989,0.331055,-0.239624,-0.929932,514
27705793,10012,0.331421,-0.238892,-0.932007,510
27715796,10003,0.331665,-0.239136,-0.934082,512
27725790,9994,0.329224,-0.236450,-0.933838,512
27735791,10001,0.329224,-0.232544,-0.930298,505
27745779,9988,0.332642,-0.237427,-0.931763,513
27755770,9991,0.333984,-0.238525,-0.931641,510
27765790,10020,0.334839,-0.239380,-0.928467,512
27775795,10005,0.332520,-0.239868,-0.920776,512
27785823,10028,0.333984,-0.243286,-0.929077,512
27795789,9966,0.327881,-0.235596,-0.931641,512
27805796,10007,0.332153,-0.241943,-0.934692,510
27815778,9982,0.326660,-0.235962,-0.931763,513
27825798,10020,0.327637,-0.239990,-0.932617,514
27835771,9973,0.329224,-0.241455,-0.934204,514
27845770,9999,0.329834,-0.239380,-0.937622,516
27855770,10000,0.329834,-0.236572,-0.934814,514
27865800,10030,0.330811,-0.234863,-0.931274,516
27875796,9996,0.331421,-0.234131,-0.928955,511
27885776,9980,0.329956,-0.233887,-0.928833,515
27895789,10013,0.332153,-0.235229,-0.929443,513
27905796,10007,0.333374,-0.237671,-0.926025,516
27915792,9996,0.332520,-0.237305,-0.926025,516
27925792,10000,0.332275,-0.239868,-0.928711,518
27935789,9997,0.331543,-0.239136,-0.930908,512
27945796,10007,0.330078,-0.237915,-0.933105,514
27955780,9984,0.325562,-0.236328,-0.934570,511
27965785,10005,0.325073,-0.234375,-0.935425,513
27975794,10009,0.326538,-0.234619,-0.936646,517
27985789,9995,0.328247,-0.235352,-0.936768,515
27995782,9993,0.330688,-0.237305,-0.933105,515
28005770,9988,0.332764,-0.240845,-0.930542,515
28015814,10044,0.332397,-0.241455,-0.928467,511
28025772,9958,0.332153,-0.239990,-0.929077,514
28035780,10008,0.333008,-0.238770,-0.928101,513
28045799,10019,0.332642,-0.237061,-0.927368,509
28055795,9996,0.332031,-0.236084,-0.928711,514
28065777,9982,0.331543,-0.236450,-0.929932,508
28075774,9997,0.330811,-0.237671,-0.929810,508
28085794,10020,0.330078,-0.238403,-0.933594,514
28095771,9977,0.329712,-0.238159,-0.933228,512
28105800,10029,0.328369,-0.236084,-0.934326,515
28115773,9973,0.328979,-0.235352,-0.931641,513
28125777,10004,0.329468,-0.233032,-0.930542,511
28135785,10008,0.332031,-0.233643,-0.932617,514
28145776,9991,0.331055,-0.234619,-0.932007,509
28155780,10004,0.333374,-0.234375,-0.931641,510
28165773,9993,0.331421,-0.236450,-0.928955,512
28175777,10004,0.331665,-0.238037,-0.929687,509
28185786,10009,0.331909,-0.238037,-0.930420,512
28195793,10007,0.332397,-0.240601,-0.932251,515
28205772,9979,0.331055,-0.241821,-0.932495,517
28215793,10021,0.329224,-0.240112,-0.932129,514
28225779,9986,0.328247,-0.238281,-0.933105,508
28235774,9995,0.328735,-0.236938,-0.933838,517
28245799,10025,0.329468,-0.234131,-0.934326,510
28255798,9999,0.330322,-0.236206,-0.933838,507
28265771,9973,0.330688,-0.236938,-0.931152,513
28275776,10005,0.333374,-0.235352,-0.928711,508
28285784,10008,0.332642,-0.234009,-0.928711,514
28295794,10010,0.332886,-0.232910,-0.927368,512
28305792,9998,0.332153,-0.234009,-0.929199,515
28315796,10004,0.331299,-0.237061,-0.929810,511
28325790,9994,0.330444,-0.238770,-0.931885,510
28335792,10002,0.330078,-0.236938,-0.932861,506
28345784,9992,0.329956,-0.238159,-0.933960,511
28355798,10014,0.329712,-0.238892,-0.933716,513
28365814,10016,0.329224,-0.239136,-0.932617,513
28375796,9982,0.329712,-0.236816,-0.932251,513
28385780,9984,0.330688,-0.236938,-0.929077,514
28395775,9995,0.330200,-0.238525,-0.927490,508
28405789,10014,0.331421,-0.241699,-0.930908,512
28415781,9992,0.330566,-0.244385,-0.932617,513
28425771,9990,0.331787,-0.242065,-0.933472,512
28435772,10001,0.329346,-0.233154,-0.931152,513
28445788,10016,0.330933,-0.230835,-0.929932,512
28455792,10004,0.332764,-0.230957,-0.930664,511
28465784,9992,0.335938,-0.233154,-0.931030,507
28475780,9996,0.336426,-0.234497,-0.930664,507
28485771,9991,0.334961,-0.242187,-0.928955,509
28495796,10025,0.332886,-0.239746,-0.927490,514
28505781,9985,0.329956,-0.238647,-0.926758,513
28515776,9995,0.328857,-0.237915,-0.927612,512
28525779,10003,0.327026,-0.237061,-0.928345,512
28535778,9999,0.329712,-0.233765,-0.926147,512
28545779,10001,0.333740,-0.233765,-0.926025,516
28555799,10020,0.334229,-0.236328,-0.927124,512
28565791,9992,0.334839,-0.238892,-0.928833,515
28575770,9979,0.335205,-0.240234,-0.931274,512
28585775,10005,0.332886,-0.242676,-0.933960,517
28595771,9996,0.329834,-0.235962,-0.935669,512
28605778,10007,0.327759,-0.231812,-0.936279,512
28615776,9998,0.325073,-0.230469,-0.937500,512
28625796,10020,0.325317,-0.230469,-0.938232,512
28635786,9990,0.323975,-0.229736,-0.938721,520
28645787,10001,0.327637,-0.230957,-0.935547,512
28655789,10002,0.328003,-0.232178,-0.933105,516
28665775,9986,0.329712,-0.231934,-0.933105,519
28675776,10001,0.329590,-0.231079,-0.929565,518
28685779,10003,0.329712,-0.231079,-0.931396,517
28695777,9998,0.328979,-0.228271,-0.932861,514
28705782,10005,0.331421,-0.229492,-0.931885,508
28715791,10009,0.333252,-0.229858,-0.931030,516
28725797,10006,0.334351,-0.233887,-0.932617,508
28735776,9979,0.332031,-0.234131,-0.930664,508
28745793,10017,0.331787,-0.234985,-0.934570,510
28755770,9977,0.329590,-0.236206,-0.936523,514
28765800,10030,0.328247,-0.235474,-0.934448,515
28775793,9993,0.328003,-0.233521,-0.932861,514
28785796,10003,0.328125,-0.232300,-0.932007,516
28795772,9976,0.330322,-0.234009,-0.933228,513
28805792,10020,0.333984,-0.234131,-0.933350,514
28815789,9997,0.333252,-0.232666,-0.932129,511
28825779,9990,0.333252,-0.229736,-0.930054,514
28835799,10020,0.331421,-0.226929,-0.929321,513
28845794,9995,0.328979,-0.226685,-0.929077,514
28855772,9978,0.330566,-0.228760,-0.929687,515
28865789,10017,0.330322,-0.227051,-0.929321,508
28875777,9988,0.332153,-0.227173,-0.931763,516
28885775,9998,0.331543,-0.228271,-0.930420,516
28895796,10021,0.332642,-0.227173,-0.930298,515
28905787,9991,0.334473,-0.224243,-0.930542,513
28915792,10005,0.333740,-0.229248,-0.935669,515
28925798,10006,0.331665,-0.229980,-0.936646,515
28935817,10019,0.330688,-0.230225,-0.936646,514
28945778,9961,0.329346,-0.229980,-0.937500,516
28955799,10021,0.328369,-0.228882,-0.938477,515
28965770,9971,0.327515,-0.230347,-0.934448,514
28975782,10012,0.325928,-0.230957,-0.934570,516
28985786,10004,0.326416,-0.230103,-0.934204,516
28995793,10007,0.325439,-0.224121,-0.924805,514
29005771,9978,0.331177,-0.229858,-0.930908,514
29015790,10019,0.336670,-0.224121,-0.933228,513
29025790,10000,0.339844,-0.227539,-0.929932,509
29035771,9981,0.336670,-0.222778,-0.928223,505
29045782,10011,0.335327,-0.223755,-0.928833,513
29055787,10005,0.333862,-0.225830,-0.930908,513
29065799,10012,0.329590,-0.226562,-0.965454,513
29075773,9974,0.327393,-0.225342,-0.941650,512
29085776,10003,0.325317,-0.222534,-0.938477,512
29095771,9995,0.326660,-0.223389,-0.935181,514
29105798,10027,0.329224,-0.223511,-0.931030,513
29115774,9976,0.332520,-0.226929,-0.933716,513
29125808,10034,0.336426,-0.234863,-0.931641,514
29135774,9966,0.335938,-0.234253,-0.927490,506
29145788,10014,0.336548,-0.235352,-0.925903,508
29155781,9993,0.335815,-0.232544,-0.926636,507
29165827,10046,0.334229,-0.229370,-0.926880,513
29175784,9957,0.332886,-0.226196,-0.929199,511
29185781,9997,0.334717,-0.228271,-0.930664,512
29195789,10008,0.337646,-0.229248,-0.933472,507
29205791,10002,0.333862,-0.226929,-0.928711,513
29215795,10004,0.334106,-0.224854,-0.926880,513
29225780,9985,0.333618,-0.225952,-0.929199,504
29235799,10019,0.332275,-0.226807,-0.934082,512
29245789,9990,0.332520,-0.225830,-0.936035,509
29255787,9998,0.330933,-0.225708,-0.934814,515
29265781,9994,0.329956,-0.225342,-0.933105,514
29275771,9990,0.329468,-0.224365,-0.929810,508
29285787,10016,0.334106,-0.228638,-0.936401,513
29295775,9988,0.334229,-0.226685,-0.934082,507
29305798,10023,0.335083,-0.227173,-0.933228,511
29315796,9998,0.333740,-0.228271,-0.930908,515
29325789,9993,0.333130,-0.228027,-0.929565,516
29335786,9997,0.333130,-0.232910,-0.929932,515
29345799,10013,0.329834,-0.235107,-0.928955,517
29355795,9996,0.331787,-0.238403,-0.929932,517
29365771,9976,0.330933,-0.234253,-0.930664,510
29375781,10010,0.332642,-0.232422,-0.930176,517
29385776,9995,0.332886,-0.232422,-0.931519,511
29395780,10004,0.331055,-0.235352,-0.928955,512
29405783,10003,0.330566,-0.237915,-0.932983,512
29415796,10013,0.330322,-0.234863,-0.936646,513
29425778,9982,0.331421,-0.233887,-0.940552,514
29435797,10019,0.329346,-0.232056,-0.939453,509
29448722,12925,0.330811,-0.226685,-0.930542,514
29455772,7050,0.333252,-0.223511,-0.928345,514
29465778,10006,0.335693,-0.225220,-0.932129,512
29475810,10032,0.337402,-0.229126,-0.935425,512
29485791,9981,0.334351,-0.228027,-0.931641,510
29495798,10007,0.333374,-0.226562,-0.924194,513
29505775,9977,0.333496,-0.224854,-0.927612,515
29515814,10039,0.335327,-0.228882,-0.933960,511
29525782,9968,0.334473,-0.231323,-0.936279,512
29535791,10009,0.332764,-0.231567,-0.933350,515
29545793,10002,0.329956,-0.231201,-0.928711,512
29555775,9982,0.328857,-0.231445,-0.932129,514
29565791,10016,0.332153,-0.230957,-0.933472,512
29575773,9982,0.332397,-0.231689,-0.933838,517
29585807,10034,0.333008,-0.234253,-0.931641,515
29595785,9978,0.333862,-0.236328,-0.929077,512
29605799,10014,0.335938,-0.233032,-0.922607,510
29615798,9999,0.337402,-0.233643,-0.925415,515
29625775,9977,0.337646,-0.231079,-0.925903,510
29635778,10003,0.338257,-0.229248,-0.929077,508
29645775,9997,0.335938,-0.227661,-0.933594,511
29655773,9998,0.330811,-0.226440,-0.931641,515
29665781,10008,0.332397,-0.235352,-0.938232,513
29675790,10009,0.325073,-0.234253,-0.938599,515
29685774,9984,0.323730,-0.236206,-0.942017,517
29695784,10010,0.323364,-0.234009,-0.943115,515
29705788,10004,0.322021,-0.233887,-0.942017,515
29715793,10005,0.323120,-0.235718,-0.940430,515
29725784,9991,0.322510,-0.237183,-0.937866,516
29735788,10004,0.325317,-0.238892,-0.936401,514
29745798,10010,0.325684,-0.237915,-0.931274,514
29755788,9990,0.329102,-0.236328,-0.930420,508
29765796,10008,0.330688,-0.237793,-0.930176,507
29775773,9977,0.330811,-0.234863,-0.928955,512
29785778,10005,0.332764,-0.232422,-0.925903,506
29795776,9998,0.331543,-0.230103,-0.924194,513
29805809,10033,0.332642,-0.228271,-0.923828,511
29815775,9966,0.333252,-0.233887,-0.929321,510
29825775,10000,0.333862,-0.230957,-0.927490,508
29835772,9997,0.333862,-0.230225,-0.925415,510
29845778,10006,0.332520,-0.231934,-0.924927,508
29855791,10013,0.333984,-0.234375,-0.925903,510
29865773,9982,0.333008,-0.240234,-0.935547,504
29875789,10016,0.329224,-0.237671,-0.935303,512
29885800,10011,0.326904,-0.234497,-0.933472,511
29895794,9994,0.326050,-0.234985,-0.932251,507
29905786,9992,0.324829,-0.236328,-0.933472,514
29915796,10010,0.327271,-0.238037,-0.935425,507
29925796,10000,0.332764,-0.242065,-0.935059,512
29935781,9985,0.333252,-0.241577,-0.929443,507
29945799,10018,0.334229,-0.238159,-0.925293,514
29955783,9984,0.333618,-0.238281,-0.924072,505
29965799,10016,0.333862,-0.236084,-0.925537,510
29975787,9988,0.332031,-0.237793,-0.930176,512
29985785,9998,0.330078,-0.236938,-0.927368,513
29995776,9991,0.329468,-0.237793,-0.927979,510
30005798,10022,0.328613,-0.238281,-0.929565,510
30015799,10001,0.328735,-0.238403,-0.933472,515
30025788,9989,0.328003,-0.236328,-0.936768,510
30035779,9991,0.327026,-0.233643,-0.934204,515
30045786,10007,0.327515,-0.232056,-0.932251,512
30055798,10012,0.328003,-0.230591,-0.931763,519
30065779,9981,0.329468,-0.232544,-0.934570,510
30075783,10004,0.330200,-0.235352,-0.931030,517
30085770,9987,0.331421,-0.236450,-0.929932,516
30095775,10005,0.331909,-0.238037,-0.925903,516
30105783,10008,0.333496,-0.239624,-0.930786,520
30115786,10003,0.334961,-0.240479,-0.933716,510
30125789,10003,0.332764,-0.235840,-0.931641,516
30135775,9986,0.329712,-0.232300,-0.928833,510
30145788,10013,0.329956,-0.234131,-0.931519,514
30155776,9988,0.332397,-0.236694,-0.933594,514
30165817,10041,0.333496,-0.236938,-0.932861,514
30175776,9959,0.333740,-0.239502,-0.931030,514
30185779,10003,0.331909,-0.238281,-0.928955,514
30195773,9994,0.329956,-0.235474,-0.930542,507
30205789,10016,0.330933,-0.233154,-0.931641,512
30215789,10000,0.330811,-0.231079,-0.933838,513
30225782,9993,0.330566,-0.229858,-0.933350,514
30235777,9995,0.331787,-0.231445,-0.929932,514
30245782,10005,0.331543,-0.234009,-0.929932,508
30255780,9998,0.333008,-0.235229,-0.931396,511
30265780,10000,0.333496,-0.236572,-0.933960,511
30275819,10039,0.332764,-0.233398,-0.933716,511
30285783,9964,0.330322,-0.230469,-0.931396,508
30295797,10014,0.331543,-0.228271,-0.927856,510
30305796,9999,0.332642,-0.231812,-0.929077,509
30315783,9987,0.333984,-0.235229,-0.931152,509
30325789,10006,0.333618,-0.237183,-0.932861,512
30335791,10002,0.332886,-0.236450,-0.933228,514
30345774,9983,0.329834,-0.232422,-0.930542,514
30355780,10006,0.329590,-0.231201,-0.932861,516
30365794,10014,0.330566,-0.230591,-0.934570,509
30375793,9999,0.332275,-0.232422,-0.933838,511
30385781,9988,0.333008,-0.233521,-0.931519,509
30395790,10009,0.333252,-0.233643,-0.929321,514
30405783,9993,0.332886,-0.233887,-0.928101,516
30415778,9995,0.331543,-0.232666,-0.929199,514
30425771,9993,0.330566,-0.231567,-0.928467,509
30435796,10025,0.332153,-0.234009,-0.932007,509
30445775,9979,0.332886,-0.235474,-0.932495,514
30455774,9999,0.333008,-0.228516,-0.930420,512
30465783,10009,0.332031,-0.228638,-0.928589,509
30475796,10013,0.332764,-0.232422,-0.931030,514
30485788,9992,0.334473,-0.236450,-0.932007,513
30495803,10015,0.334229,-0.237305,-0.934082,513
30505777,9974,0.330322,-0.231567,-0.930420,512
30515798,10021,0.329712,-0.231689,-0.926880,511
30525781,9983,0.331909,-0.232666,-0.926147,514
30535791,10010,0.333496,-0.235840,-0.931641,504
30545785,9994,0.335815,-0.238037,-0.936279,513
30555799,10014,0.332886,-0.233643,-0.933838,512
30565790,9991,0.329224,-0.228882,-0.926758,509
30575781,9991,0.329712,-0.227539,-0.927856,512
30585784,10003,0.333130,-0.229858,-0.932007,512
30595785,10001,0.336426,-0.231934,-0.935791,507
30605790,10005,0.337036,-0.234619,-0.932739,506
30615821,10031,0.333008,-0.232544,-0.922729,510
30625784,9963,0.332275,-0.231201,-0.921875,508
30635781,9997,0.334595,-0.232422,-0.926636,513
30645778,9997,0.333130,-0.232300,-0.932861,511
30655790,10012,0.333008,-0.232788,-0.937134,507
30665784,9994,0.331421,-0.232056,-0.927368,516
30675795,10011,0.330566,-0.233032,-0.926514,514
30685799,10004,0.331909,-0.235718,-0.930176,509
30695779,9980,0.328979,-0.232422,-0.925781,511
30705796,10017,0.332764,-0.243896,-0.938110,519
30715794,9998,0.332275,-0.232788,-0.941650,514
30725795,10001,0.332886,-0.228638,-0.932495,516
30735818,10023,0.329346,-0.222900,-0.926880,516
30745770,9952,0.331543,-0.226074,-0.925537,518
30755790,10020,0.332275,-0.234619,-0.926636,517
30765779,9989,0.333984,-0.236328,-0.929443,518
30775782,10003,0.334595,-0.237305,-0.929199,519
30785789,10007,0.332031,-0.231079,-0.927979,515
30795772,9983,0.332031,-0.228027,-0.927856,517
30805798,10026,0.331055,-0.226318,-0.927002,516
30815779,9981,0.333618,-0.230469,-0.932129,513
30825793,10014,0.334473,-0.237061,-0.936523,511
30835799,10006,0.332764,-0.234741,-0.931519,514
30845792,9993,0.330566,-0.232422,-0.928833,516
30855772,9980,0.331299,-0.229248,-0.927979,513
30865790,10018,0.330688,-0.229126,-0.931519,514
30875771,9981,0.332764,-0.234985,-0.938599,509
30885784,10013,0.335327,-0.233643,-0.932983,513
30895784,10000,0.333862,-0.231445,-0.926147,513
30905788,10004,0.333130,-0.231445,-0.922852,513
30915785,9997,0.333374,-0.233032,-0.925171,514
30925797,10012,0.334595,-0.236084,-0.930054,508
30935786,9989,0.332275,-0.232666,-0.933350,513
30945793,10007,0.332764,-0.230591,-0.929810,511
30955788,9995,0.332397,-0.229492,-0.928711,506
30965771,9983,0.334351,-0.230591,-0.928711,514
30975788,10017,0.334473,-0.231201,-0.930908,516
30985789,10001,0.334473,-0.235596,-0.933594,513
30995777,9988,0.333130,-0.234497,-0.931641,513
31005797,10020,0.332642,-0.232422,-0.929565,515
31015775,9978,0.333496,-0.231445,-0.929565,507
31025797,10022,0.333374,-0.229370,-0.928955,524
31035792,9995,0.335205,-0.231567,-0.932007,513
31045797,10005,0.333984,-0.232178,-0.931396,514
31055790,9993,0.332886,-0.231567,-0.928345,511
31065796,10006,0.333130,-0.230347,-0.928589,513
31075786,9990,0.331909,-0.229004,-0.929077,515
31085792,10006,0.332520,-0.229248,-0.931030,514
31095771,9979,0.333618,-0.232056,-0.932495,516
31105783,10012,0.334351,-0.233032,-0.931763,509
31115775,9992,0.335205,-0.231567,-0.929810,514
31125777,10002,0.334229,-0.231445,-0.929321,513
31135792,10015,0.333984,-0.231079,-0.931152,516
31145795,10003,0.332642,-0.231079,-0.932983,511
31155784,9989,0.333008,-0.231934,-0.932617,515
31165788,10004,0.331787,-0.231323,-0.931030,512
31175780,9992,0.331299,-0.231689,-0.931641,512
31185771,9991,0.331787,-0.230713,-0.929565,509
31195799,10028,0.333252,-0.234741,-0.933228,508
31205795,9996,0.333008,-0.234375,-0.934082,508
31215770,9975,0.332886,-0.232300,-0.931641,505
31225773,10003,0.333008,-0.230591,-0.931519,513
31235788,10015,0.331177,-0.229248,-0.933105,508
31245772,9984,0.331421,-0.230103,-0.933594,512
31255781,10009,0.334106,-0.229004,-0.935425,511
31265784,10003,0.334106,-0.231567,-0.930908,511
31275777,9993,0.335571,-0.232788,-0.926147,515
31285787,10010,0.337158,-0.230835,-0.923584,510
31295780,9993,0.337891,-0.233154,-0.923950,505
31305770,9990,0.335449,-0.232910,-0.928223,506
31315818,10048,0.332886,-0.234253,-0.927856,510
31325775,9957,0.330078,-0.233032,-0.926392,508
31335787,10012,0.330444,-0.233643,-0.926392,514
31345777,9990,0.330811,-0.232178,-0.929932,513
31355773,9996,0.336182,-0.235962,-0.938843,509
31365787,10014,0.334351,-0.237183,-0.941406,509
31375789,10002,0.333252,-0.238159,-0.941528,508
31385796,10007,0.329468,-0.235107,-0.935547,511
31395777,9981,0.328369,-0.233032,-0.931519,517
31405777,10000,0.328247,-0.234619,-0.930908,511
31415778,10001,0.331909,-0.232910,-0.935181,513
31425781,10003,0.333618,-0.229858,-0.933716,517
31435808,10027,0.337524,-0.227417,-0.929565,513
31445790,9982,0.336548,-0.227051,-0.923950,517
31455782,9992,0.337158,-0.227905,-0.920654,513
31469040,13258,0.336792,-0.235596,-0.929443,516
31475796,6756,0.334595,-0.235596,-0.933594,512
31485798,10002,0.331909,-0.234131,-0.933105,516
31495775,9977,0.329712,-0.231323,-0.932861,513
31505796,10021,0.331421,-0.228394,-0.932983,513
31515782,9986,0.335815,-0.229614,-0.932373,509
31525791,10009,0.337402,-0.234009,-0.932495,514
31535779,9988,0.335571,-0.238892,-0.932983,514
31545775,9996,0.336182,-0.238403,-0.931274,509
31555796,10021,0.333984,-0.235840,-0.930786,512
31565773,9977,0.332275,-0.231934,-0.928345,514
31575776,10003,0.334717,-0.229370,-0.929321,515
31585777,10001,0.334839,-0.232178,-0.928955,513
31595778,10001,0.335938,-0.232666,-0.930176,510
31605784,10006,0.334961,-0.231689,-0.928955,514
31615770,9986,0.334961,-0.230103,-0.928711,515
31625788,10018,0.333496,-0.225342,-0.933838,516
31635814,10026,0.333496,-0.224243,-0.934326,514
31645789,9975,0.333862,-0.224121,-0.933716,514
31655778,9989,0.333374,-0.227661,-0.931763,513
31665770,9992,0.333252,-0.230225,-0.930420,514
31675779,10009,0.334229,-0.233643,-0.930664,513
31685780,10001,0.333984,-0.233154,-0.932251,515
31695779,9999,0.333984,-0.230103,-0.932495,516
31705788,10009,0.333252,-0.228271,-0.930542,507
31715771,9983,0.333496,-0.225586,-0.927002,516
31725777,10006,0.334229,-0.227539,-0.927612,513
31735773,9996,0.336670,-0.230225,-0.933105,512
31745776,10003,0.337891,-0.235229,-0.936157,515
31755773,9997,0.333740,-0.230591,-0.930786,501
31765770,9997,0.336304,-0.234375,-0.932251,514
31775783,10013,0.333374,-0.226196,-0.930298,508
31785785,10002,0.334961,-0.226318,-0.932007,514
31795770,9985,0.334595,-0.229248,-0.931274,510
31805791,10021,0.334595,-0.232788,-0.931763,508
31815791,10000,0.334717,-0.232788,-0.932251,513
31825776,9985,0.333496,-0.229980,-0.929687,514
31835774,9998,0.333984,-0.227173,-0.929077,511
31845789,10015,0.335815,-0.229004,-0.931396,512
31855779,9990,0.335938,-0.231201,-0.932373,511
31865787,10008,0.336060,-0.234497,-0.932129,511
31875789,10002,0.333984,-0.235718,-0.926758,514
31885789,10000,0.333130,-0.235107,-0.927002,512
31895775,9986,0.334473,-0.231079,-0.930420,508
31905790,10015,0.334839,-0.232666,-0.933105,512
31915789,9999,0.333984,-0.233521,-0.933716,513
31925785,9996,0.333374,-0.231934,-0.932129,509
31935782,9997,0.333008,-0.231812,-0.932861,513
31945799,10017,0.331543,-0.230469,-0.931274,507
31955795,9996,0.333618,-0.228149,-0.933594,514
31965788,9993,0.335205,-0.226074,-0.933960,511
31975789,10001,0.336792,-0.225952,-0.933838,512
31985783,9994,0.338013,-0.227051,-0.930664,512
31995790,10007,0.338989,-0.232910,-0.923828,506
32005795,10005,0.337891,-0.234985,-0.922974,511
32015787,9992,0.336792,-0.234131,-0.926025,508
32025774,9987,0.334717,-0.233154,-0.930420,512
32035774,10000,0.332642,-0.230591,-0.930664,512
32045798,10024,0.331543,-0.228394,-0.928589,512
32055798,10000,0.332397,-0.235229,-0.932129,515
32065789,9991,0.333618,-0.239258,-0.933350,509
32075774,9985,0.334106,-0.239380,-0.935181,516
32085795,10021,0.333496,-0.237915,-0.934326,511
32095789,9994,0.333984,-0.234375,-0.933960,517
32105797,10008,0.332886,-0.229858,-0.933594,513
32115799,10002,0.333130,-0.227417,-0.930176,518
32125773,9974,0.333862,-0.227417,-0.930176,510
32135795,10022,0.334106,-0.231812,-0.930420,517
32145796,10001,0.333740,-0.231934,-0.928955,518
32155773,9977,0.337280,-0.232300,-0.925415,517
32165780,10007,0.337036,-0.233154,-0.928833,518
32175779,9999,0.335083,-0.232056,-0.933105,518
32185799,10020,0.332642,-0.228516,-0.935181,516
32195772,9973,0.330444,-0.223755,-0.932373,514
32205776,10004,0.329346,-0.222534,-0.929443,515
32215772,9996,0.332886,-0.228882,-0.933838,515
32225808,10036,0.334473,-0.232666,-0.935059,515
32235792,9984,0.334595,-0.235596,-0.930542,514
32245781,9989,0.334839,-0.238647,-0.928833,515
32255819,10038,0.334595,-0.240723,-0.927246,512
32265774,9955,0.336670,-0.233276,-0.928101,515
32275799,10025,0.334839,-0.226318,-0.927002,510
32285783,9984,0.335083,-0.226807,-0.927124,510
32295777,9994,0.337158,-0.227661,-0.929443,515
32305777,10000,0.335205,-0.228027,-0.931030,514
32315793,10016,0.332642,-0.233032,-0.932983,514
32325783,9990,0.331299,-0.233643,-0.933105,516
32335801,10018,0.331299,-0.234131,-0.933105,508
32345791,9990,0.332031,-0.230591,-0.931641,512
32355790,9999,0.334473,-0.227905,-0.933105,515
32365820,10030,0.336182,-0.227295,-0.930298,507
32375799,9979,0.334229,-0.225464,-0.928101,510
32385772,9973,0.334839,-0.227295,-0.929321,514
32395800,10028,0.334595,-0.229248,-0.928589,511
32405778,9978,0.334106,-0.230103,-0.930176,514
32415775,9997,0.335693,-0.231812,-0.929443,507
32425781,10006,0.334229,-0.232178,-0.928589,515
32435798,10017,0.334595,-0.230591,-0.929077,513
32445794,9996,0.334961,-0.232178,-0.930176,514
32455787,9993,0.335205,-0.232788,-0.930786,513
32465796,10009,0.333374,-0.231812,-0.930420,509
32475775,9979,0.333618,-0.232056,-0.932861,513
32485777,10002,0.333252,-0.230713,-0.934448,516
32495792,10015,0.332153,-0.230713,-0.934082,512
32505784,9992,0.333618,-0.231567,-0.933838,514
32515777,9993,0.333008,-0.231934,-0.931519,513
32525781,10004,0.334473,-0.229492,-0.929199,514
32535783,10002,0.335083,-0.228638,-0.930054,516
32545798,10015,0.335815,-0.227905,-0.931396,512
32555790,9992,0.335205,-0.228760,-0.930298,513
32565784,9994,0.334473,-0.229370,-0.929199,513
32575783,9999,0.333862,-0.229858,-0.928955,506
32585773,9990,0.333374,-0.229370,-0.933105,512
32595786,10013,0.333252,-0.230347,-0.934326,514
32605787,10001,0.333740,-0.230957,-0.934204,513
32615781,9994,0.333008,-0.231812,-0.931763,513
32625799,10018,0.333008,-0.231689,-0.930054,513
32635787,9988,0.333374,-0.230957,-0.929443,511
32645779,9992,0.334473,-0.232056,-0.930908,508
32655794,10015,0.334717,-0.232788,-0.930908,508
32665782,9988,0.334473,-0.232544,-0.931030,508
32675785,10003,0.333740,-0.232544,-0.929810,514
32685774,9989,0.332031,-0.231934,-0.930176,512
32695788,10014,0.332153,-0.227051,-0.930054,515
32705812,10024,0.333496,-0.226440,-0.931396,511
32715784,9972,0.335327,-0.227783,-0.932861,510
32725799,10015,0.339111,-0.228882,-0.930176,510
32735824,10025,0.338989,-0.228394,-0.927856,509
32745774,9950,0.338257,-0.229980,-0.926147,508
32755796,10022,0.335205,-0.231689,-0.927612,512
32765775,9979,0.333740,-0.231812,-0.930542,513
32775777,10002,0.331909,-0.229492,-0.933228,514
32785795,10018,0.329468,-0.229004,-0.934448,512
32795780,9985,0.329468,-0.231445,-0.933350,513
32805790,10010,0.330444,-0.230957,-0.934204,526
32815778,9988,0.332764,-0.231079,-0.934570,513
32825776,9998,0.331665,-0.229858,-0.934814,512
32835774,9998,0.332153,-0.229126,-0.933838,513
32845777,10003,0.332031,-0.228027,-0.933716,516
32855790,10013,0.331909,-0.230591,-0.930420,514
32865784,9994,0.333740,-0.233521,-0.930420,517
32875772,9988,0.334351,-0.235474,-0.928833,513
32885787,10015,0.335327,-0.236816,-0.928589,518
32895786,9999,0.337402,-0.232666,-0.927490,517
32905794,10008,0.337524,-0.227661,-0.927246,519
32915783,9989,0.336792,-0.228271,-0.928955,510
32925797,10014,0.334229,-0.228149,-0.931885,512
32935774,9977,0.331543,-0.231079,-0.933228,512
32945773,9999,0.329102,-0.234009,-0.934448,514
32955771,9998,0.332520,-0.235718,-0.935425,514
32965770,9999,0.333252,-0.234741,-0.934692,513
32975784,10014,0.334473,-0.232300,-0.932373,514
32985798,10014,0.335571,-0.231445,-0.928955,507
32995774,9976,0.336182,-0.230469,-0.927002,515
33005781,10007,0.335815,-0.230591,-0.927856,515
33015784,10003,0.335205,-0.231812,-0.927002,507
33025792,10008,0.334106,-0.233032,-0.927734,514
33035772,9980,0.334595,-0.231812,-0.929565,511
33045795,10023,0.334717,-0.229980,-0.931152,513
33055793,9998,0.333130,-0.229492,-0.932007,512
33065802,10009,0.331665,-0.228760,-0.932495,512
33075775,9973,0.332764,-0.228882,-0.933838,512
33085772,9997,0.332764,-0.233276,-0.936890,509
33095789,10017,0.331177,-0.232056,-0.933838,516
33105772,9983,0.331787,-0.233032,-0.933716,511
33115774,10002,0.333618,-0.224609,-0.933350,516
33125791,10017,0.335083,-0.223999,-0.932739,517
33135787,9996,0.336060,-0.227661,-0.932129,517
33145788,10001,0.333740,-0.231445,-0.930786,514
33155789,10001,0.332397,-0.235962,-0.928589,509
33165782,9993,0.330200,-0.234375,-0.925537,510
33175779,9997,0.333252,-0.234375,-0.930664,514
33185772,9993,0.335083,-0.232544,-0.934326,512
33195787,10015,0.334961,-0.228760,-0.934326,508
33205780,9993,0.335327,-0.224854,-0.932007,507
33215799,10019,0.333008,-0.222778,-0.928833,509
33225781,9982,0.329834,-0.226318,-0.924561,508
33235795,10014,0.333618,-0.232788,-0.936401,515
33245794,9999,0.335693,-0.236084,-0.940552,514
33255790,9996,0.331055,-0.228638,-0.934448,513
33265799,10009,0.336548,-0.234741,-0.934692,512
33275785,9986,0.334961,-0.227783,-0.927856,513
33285778,9993,0.337646,-0.229492,-0.929565,511
33295773,9995,0.335083,-0.229126,-0.929077,513
33305780,10007,0.335693,-0.229004,-0.934204,513
33315800,10020,0.333740,-0.226929,-0.933472,506
33325774,9974,0.331421,-0.225220,-0.930054,512
33335771,9997,0.332031,-0.225952,-0.929321,516
33345792,10021,0.333130,-0.229370,-0.931885,512
33355770,9978,0.335571,-0.235229,-0.934204,510
33365796,10026,0.334595,-0.238770,-0.931396,506
33375782,9986,0.333618,-0.236572,-0.929077,510
33385783,10001,0.333862,-0.228027,-0.929932,511
33395799,10016,0.332642,-0.223389,-0.930664,512
33405771,9972,0.333862,-0.224243,-0.933838,507
33415785,10014,0.333008,-0.226196,-0.934448,507
33425770,9985,0.333374,-0.228027,-0.933228,511
33435774,10004,0.336060,-0.232788,-0.928589,506
33445790,10016,0.337524,-0.233154,-0.929321,513
33455812,10022,0.336426,-0.230835,-0.930054,514
33465777,9965,0.334839,-0.230713,-0.929687,512
33475775,9998,0.332642,-0.230835,-0.929321,513
33488750,12975,0.332275,-0.227173,-0.932129,513
33495774,7024,0.331299,-0.226318,-0.932129,507
33505770,9996,0.333252,-0.228394,-0.932983,512
33515775,10005,0.333374,-0.229980,-0.933960,514
33525786,10011,0.333252,-0.229980,-0.936157,512
33535783,9997,0.331787,-0.228516,-0.932617,517
33545784,10001,0.332397,-0.229004,-0.934692,518
33555794,10010,0.332642,-0.229370,-0.934937,515
33565772,9978,0.333862,-0.227661,-0.932739,511
33575825,10053,0.336304,-0.229736,-0.931519,512
33585771,9946,0.332886,-0.229736,-0.927490,515
33595793,10022,0.336426,-0.227051,-0.927734,517
33605778,9985,0.336548,-0.224365,-0.929810,517
33615793,10015,0.337891,-0.225220,-0.930420,518
33625794,10001,0.337280,-0.227905,-0.932495,518
33635798,10004,0.335938,-0.229980,-0.932129,517
33645772,9974,0.333740,-0.229492,-0.929810,510
33655784,10012,0.332275,-0.230591,-0.932251,515
33665793,10009,0.333252,-0.229492,-0.933960,513
33675784,9991,0.334717,-0.229980,-0.932373,516
33685771,9987,0.336182,-0.230103,-0.930542,514
33695787,10016,0.337158,-0.230591,-0.928711,509
33705782,9995,0.340210,-0.228760,-0.929199,516
33715784,10002,0.340088,-0.229614,-0.928833,509
33725799,10015,0.338135,-0.228882,-0.926880,514
33735773,9974,0.338257,-0.226318,-0.926025,515
33745793,10020,0.337524,-0.225952,-0.923340,515
33755795,10002,0.337158,-0.228760,-0.927124,509
33765789,9994,0.334839,-0.231934,-0.931030,514
33775798,10009,0.335938,-0.239502,-0.930542,511
33785772,9974,0.335693,-0.243042,-0.927856,514
33795794,10022,0.335205,-0.244507,-0.926636,510
33805783,9989,0.334229,-0.243530,-0.927002,515
33815771,9988,0.333130,-0.234375,-0.936279,509
33825789,10018,0.333252,-0.227783,-0.937866,509
33835774,9985,0.334717,-0.224976,-0.937500,511
33845782,10008,0.338013,-0.223389,-0.933838,508
33855785,10003,0.343750,-0.224854,-0.942871,515
33865777,9992,0.345581,-0.224731,-0.950806,509
33875793,10016,0.345947,-0.228027,-0.947632,515
33885794,10001,0.333496,-0.226807,-0.942749,513
33895796,10002,0.328369,-0.233643,-0.939941,516
33905799,10003,0.324707,-0.240479,-0.930786,516
33915796,9997,0.328979,-0.245239,-0.908691,514
33925795,9999,0.332153,-0.251953,-0.900879,514
33935783,9988,0.333984,-0.258179,-0.898926,514
33945796,10013,0.332764,-0.262695,-0.901733,504
33955795,9999,0.328613,-0.264526,-0.906250,511
33965788,9993,0.322754,-0.262695,-0.911255,511
33975797,10009,0.311157,-0.242798,-0.920898,509
33985776,9979,0.302856,-0.226562,-0.929199,513
33995794,10018,0.304810,-0.214966,-0.936768,507
34005799,10005,0.306641,-0.207031,-0.945801,514
34015794,9995,0.313599,-0.199829,-0.952515,515
34025809,10015,0.333130,-0.189697,-0.960327,514
34035782,9973,0.339600,-0.177490,-0.955322,515
34045776,9994,0.355469,-0.165039,-0.938721,510
34055789,10013,0.366821,-0.164551,-0.919189,514
34065775,9986,0.380127,-0.172852,-0.911011,506
34075790,10015,0.392944,-0.203125,-0.919312,507
34085794,10004,0.384399,-0.222290,-0.922729,506
34095784,9990,0.365845,-0.237061,-0.928101,506
34105770,9986,0.348633,-0.239502,-0.935303,509
34115778,10008,0.330444,-0.235962,-0.945435,513
34125776,9998,0.313354,-0.228516,-0.966064,513
34135775,9999,0.288330,-0.192261,-0.973755,519
34145788,10013,0.283569,-0.181885,-0.979126,522
34155788,10000,0.285645,-0.179321,-0.976440,512
34165812,10024,0.294189,-0.175171,-0.972168,520
34175794,9982,0.301514,-0.171021,-0.961060,518
34185792,9998,0.325439,-0.178467,-0.940552,520
34195778,9986,0.335571,-0.181763,-0.932617,512
34205794,10016,0.341064,-0.184814,-0.928955,511
34215794,10000,0.344238,-0.187988,-0.925537,507
34225790,9996,0.341553,-0.187012,-0.921509,514
34235775,9985,0.333862,-0.184448,-0.919678,513
34245771,9996,0.334229,-0.186401,-0.922729,507
34255777,10006,0.333374,-0.190063,-0.928223,508
34265772,9995,0.333374,-0.192383,-0.935791,511
34275807,10035,0.330933,-0.196533,-0.942871,516
34285786,9979,0.331177,-0.197266,-0.950684,517
34295782,9996,0.327515,-0.187378,-0.952148,516
34305777,9995,0.329590,-0.179321,-0.954468,519
34315778,10001,0.328979,-0.174194,-0.957764,520
34325776,9998,0.328857,-0.168213,-0.958496,519
34335771,9995,0.333008,-0.162476,-0.956787,520
34345781,10010,0.335938,-0.159058,-0.948975,521
34355771,9990,0.339233,-0.158447,-0.946777,516
34365791,10020,0.341187,-0.157104,-0.942993,518
34375778,9987,0.339600,-0.157349,-0.941528,517
34385818,10040,0.343628,-0.155273,-0.937866,516
34395772,9954,0.342407,-0.158813,-0.931763,510
34405792,10020,0.341187,-0.164307,-0.931763,512
34415770,9978,0.339355,-0.172241,-0.930542,516
34425770,10000,0.337524,-0.179810,-0.930054,514
34435771,10001,0.336670,-0.189453,-0.931274,514
34445782,10011,0.331909,-0.204346,-0.935791,514
34455798,10016,0.325195,-0.204346,-0.933228,511
34465776,9978,0.322510,-0.205200,-0.933472,513
34475792,10016,0.326172,-0.206787,-0.937744,515
34485771,9979,0.325684,-0.202881,-0.935669,514
34495822,10051,0.330444,-0.200073,-0.939453,508
34505790,9968,0.333740,-0.188599,-0.941895,516
34515796,10006,0.336060,-0.185303,-0.941284,511
34525786,9990,0.336182,-0.181885,-0.936768,518
34535780,9994,0.339233,-0.179810,-0.939941,516
34545785,10005,0.340210,-0.178711,-0.943848,515
34555790,10005,0.337158,-0.164795,-0.941162,515
34565787,9997,0.337646,-0.161621,-0.940186,515
34575787,10000,0.339111,-0.160767,-0.939819,511
34585802,10015,0.339355,-0.161255,-0.941162,513
34595771,9969,0.341675,-0.163208,-0.941650,515
34605795,10024,0.342041,-0.169800,-0.940552,513
34615785,9990,0.341919,-0.171509,-0.938477,510
34625794,10009,0.340454,-0.173462,-0.938721,515
34635775,9981,0.340088,-0.174194,-0.936768,515
34645792,10017,0.340210,-0.177856,-0.937134,509
34655781,9989,0.339233,-0.181274,-0.940430,516
34665778,9997,0.336060,-0.184570,-0.940308,509
34675778,10000,0.334839,-0.185913,-0.938721,513
34685791,10013,0.334473,-0.188232,-0.938354,515
34695798,10007,0.336182,-0.188599,-0.937622,510
34705794,9996,0.337646,-0.189697,-0.938354,514
34715796,10002,0.337769,-0.190796,-0.939331,513
34725810,10014,0.338257,-0.190674,-0.938599,518
34735788,9978,0.338013,-0.190186,-0.939575,512
34745775,9987,0.338989,-0.185913,-0.939453,513
34755777,10002,0.339478,-0.180908,-0.942261,507
34765788,10011,0.340210,-0.171997,-0.941772,512
34775772,9984,0.339722,-0.166748,-0.936646,514
34785789,10017,0.340576,-0.166260,-0.932129,514
34795785,9996,0.341187,-0.169922,-0.928345,506
34805779,9994,0.342896,-0.172729,-0.925903,512
34815817,10038,0.343018,-0.174561,-0.924438,507
34825774,9957,0.342529,-0.182495,-0.924561,510
34835794,10020,0.342773,-0.188965,-0.930664,510
34845797,10003,0.340576,-0.191772,-0.937866,513
34855797,10000,0.339600,-0.192627,-0.944702,511
34865780,9983,0.335327,-0.189087,-0.952515,513
34875786,10006,0.331055,-0.183594,-0.959351,514
34885774,9988,0.330444,-0.183228,-0.958984,511
34895784,10010,0.331055,-0.181519,-0.957031,517
34905791,10007,0.332642,-0.182251,-0.953491,513
34915792,10001,0.336182,-0.183105,-0.946777,514
34925789,9997,0.341553,-0.188843,-0.936157,509
34935808,10019,0.342896,-0.188965,-0.930176,513
34945784,9976,0.344238,-0.188354,-0.925415,506
34955795,10011,0.343384,-0.184570,-0.923340,512
34965792,9997,0.341675,-0.180908,-0.921631,503
34975774,9982,0.343750,-0.179443,-0.924927,507
34985798,10024,0.342773,-0.177856,-0.933228,505
34995772,9974,0.342407,-0.179565,-0.936157,511
35005789,10017,0.341309,-0.179810,-0.936157,512
35015783,9994,0.339355,-0.179687,-0.937744,513
35025783,10000,0.338623,-0.179932,-0.939331,518
35035775,9992,0.338623,-0.184448,-0.945923,511
35045773,9998,0.338989,-0.186157,-0.946167,510
35055789,10016,0.337769,-0.187866,-0.944092,513
35065787,9998,0.337036,-0.188232,-0.942505,514
35075813,10026,0.336914,-0.188599,-0.941162,520
35085776,9963,0.338501,-0.184570,-0.940552,516
35095779,10003,0.338867,-0.185059,-0.941040,515
35105777,9998,0.337158,-0.186646,-0.941895,512
35115798,10021,0.336792,-0.185669,-0.941528,518
35125784,9986,0.335083,-0.182861,-0.937500,517
35135772,9988,0.333496,-0.180420,-0.935425,519
35145781,10009,0.339233,-0.179810,-0.940796,513
35155776,9995,0.343994,-0.185303,-0.946289,520
35165773,9997,0.339844,-0.179199,-0.939575,512
35175799,10026,0.343872,-0.184448,-0.941528,515
35185775,9976,0.338745,-0.179565,-0.935303,511
35195788,10013,0.339478,-0.181519,-0.934692,511
35205773,9985,0.338501,-0.182739,-0.936646,514
35215793,10020,0.340210,-0.186157,-0.940430,513
35225782,9989,0.341675,-0.187988,-0.941406,507
35235785,10003,0.338745,-0.185791,-0.937134,513
35245781,9996,0.339478,-0.179932,-0.930908,513
35255792,10011,0.340576,-0.178711,-0.926636,509
35265784,9992,0.344482,-0.186646,-0.934814,505
35275796,10012,0.342896,-0.192139,-0.939941,514
35285813,10017,0.340210,-0.190674,-0.941772,515
35295793,9980,0.337158,-0.190308,-0.940918,513
35305793,10000,0.332764,-0.180664,-0.937378,512
35315798,10005,0.335083,-0.180054,-0.942017,515
35325781,9983,0.337036,-0.181152,-0.946777,515
35335772,9991,0.338745,-0.183472,-0.947510,509
35345782,10010,0.340088,-0.184814,-0.945190,515
35355784,10002,0.341187,-0.180664,-0.934937,512
35365799,10015,0.341309,-0.178955,-0.934082,515
35375773,9974,0.341553,-0.178223,-0.937134,509
35385782,10009,0.342407,-0.179687,-0.938721,515
35395790,10008,0.341309,-0.181274,-0.939087,509
35405780,9990,0.338989,-0.182983,-0.933594,511
35415792,10012,0.337769,-0.183105,-0.931396,515
35425814,10022,0.338013,-0.184448,-0.934814,509
35435770,9956,0.340698,-0.187500,-0.937378,513
35445772,10002,0.341675,-0.187378,-0.939819,514
35455794,10022,0.341309,-0.184204,-0.939453,512
35465789,9995,0.340820,-0.180786,-0.937134,513
35475771,9982,0.339722,-0.179565,-0.937500,508
35485789,10018,0.339111,-0.181396,-0.939209,507
35499416,13627,0.340332,-0.186523,-0.941406,513
35505792,6376,0.000000,0.000000,0.000000,512
35515777,9985,0.338989,-0.186279,-0.940430,508
35525794,10017,0.338013,-0.183716,-0.939331,515
35535792,9998,0.338989,-0.182373,-0.940063,513
35545811,10019,0.339722,-0.182251,-0.941406,512
35555775,9964,0.340332,-0.180908,-0.940552,510
35565773,9998,0.340698,-0.182495,-0.938721,509
35575774,10001,0.338501,-0.184204,-0.938599,513
35585770,9996,0.339233,-0.183716,-0.935547,509
35595789,10019,0.341064,-0.182861,-0.936646,514
35605780,9991,0.339478,-0.183350,-0.937134,514
35615796,10016,0.339478,-0.183594,-0.935425,513
35625774,9978,0.340454,-0.181885,-0.936646,511
35635798,10024,0.339233,-0.181885,-0.936768,512
35645771,9973,0.338989,-0.183350,-0.937378,507
35655799,10028,0.337280,-0.186157,-0.937622,511
35665812,10013,0.337036,-0.186035,-0.938721,507
35675773,9961,0.340454,-0.187988,-0.939087,512
35685797,10024,0.343750,-0.188843,-0.938477,512
35695785,9988,0.344971,-0.187012,-0.938965,513
35705790,10005,0.346313,-0.187988,-0.938721,512
35715793,10003,0.343628,-0.187378,-0.938843,511
35725798,10005,0.339111,-0.184937,-0.935059,511
35735793,9995,0.335449,-0.182739,-0.935669,512
35745788,9995,0.334106,-0.182739,-0.936890,512
35755794,10006,0.334839,-0.185059,-0.938477,513
35765794,10000,0.336548,-0.186890,-0.939575,512
35775781,9987,0.337158,-0.187622,-0.938232,514
35785827,10046,0.342529,-0.185669,-0.936279,515
35795795,9968,0.342041,-0.184692,-0.938477,514
35805794,9999,0.342285,-0.183960,-0.939209,516
35815773,9979,0.341553,-0.182861,-0.940308,519
35825781,10008,0.341431,-0.182129,-0.940796,511
35835780,9999,0.337769,-0.186035,-0.938721,516
35845795,10015,0.337646,-0.185425,-0.936890,517
35855779,9984,0.338257,-0.184326,-0.933960,517
35865784,10005,0.342407,-0.185913,-0.934448,514
35875771,9987,0.345703,-0.188354,-0.936646,518
35885774,10003,0.344482,-0.186646,-0.933594,515
35895786,10012,0.341553,-0.183105,-0.930786,511
35905799,10013,0.340942,-0.184570,-0.932739,516
35915790,9991,0.341553,-0.185181,-0.934814,513
35925786,9996,0.341309,-0.185791,-0.936768,509
35935789,10003,0.342041,-0.185791,-0.938721,510
35945770,9981,0.341675,-0.185913,-0.938721,514
35955792,10022,0.342041,-0.185913,-0.937988,515
35965774,9982,0.339722,-0.186890,-0.938477,512
35975773,9999,0.338989,-0.186768,-0.940308,512
35985770,9997,0.339966,-0.184448,-0.941162,514
35995777,10007,0.342896,-0.180664,-0.940308,515
36005810,10033,0.341919,-0.178345,-0.936768,507
36015781,9971,0.342163,-0.176392,-0.937012,516
36025770,9989,0.341675,-0.177612,-0.936890,509
36035788,10018,0.341309,-0.179687,-0.938232,517
36045795,10007,0.341553,-0.182739,-0.938599,505
36055786,9991,0.340576,-0.181641,-0.936279,516
36065774,9988,0.339722,-0.179443,-0.936890,514
36075793,10019,0.340820,-0.177734,-0.936768,511
36085788,9995,0.341431,-0.177368,-0.938599,515
36095773,9985,0.341553,-0.180298,-0.941284,516
36105796,10023,0.342407,-0.185425,-0.943115,515
36115779,9983,0.342285,-0.185303,-0.942017,515
36125777,9998,0.340332,-0.184326,-0.937134,515
36135776,9999,0.340576,-0.181152,-0.940796,514
36145782,10006,0.343872,-0.182251,-0.949097,515
36155786,10004,0.342407,-0.181519,-0.940430,514
36165773,9987,0.339355,-0.185303,-0.929321,508
36175778,10005,0.337402,-0.185303,-0.915894,515
36185787,10009,0.348267,-0.188965,-0.926392,508
36195776,9989,0.357056,-0.188477,-0.939209,509
36205781,10005,0.358521,-0.183960,-0.947021,513
36215799,10018,0.349243,-0.172363,-0.933594,508
36225782,9983,0.338989,-0.169312,-0.922974,510
36235789,10007,0.333984,-0.174438,-0.924194,514
36245772,9983,0.331909,-0.178101,-0.932495,508
36255791,10019,0.336060,-0.188232,-0.944092,516
36265786,9995,0.339111,-0.187012,-0.940308,513
36275780,9994,0.342896,-0.177734,-0.931885,514
36285780,10000,0.345703,-0.169556,-0.923218,516
36295781,10001,0.351807,-0.169067,-0.926270,514
36305782,10001,0.356079,-0.173584,-0.932617,512
36315771,9989,0.349976,-0.181763,-0.937378,510
36325794,10023,0.342651,-0.178833,-0.934204,514
36335799,10005,0.339600,-0.179932,-0.937866,513
36345775,9976,0.336914,-0.177979,-0.940430,516
36355779,10004,0.340332,-0.176025,-0.950073,514
36365784,10005,0.343750,-0.177612,-0.947388,511
36375795,10011,0.344482,-0.176025,-0.940063,510
36385792,9997,0.343994,-0.179077,-0.936646,512
36395793,10001,0.342407,-0.179199,-0.936768,510
36405823,10030,0.341431,-0.177856,-0.940796,509
36415795,9972,0.340576,-0.177124,-0.942505,512
36425796,10001,0.337524,-0.172729,-0.934326,510
36435793,9997,0.340820,-0.171631,-0.928345,509
36445780,9987,0.345093,-0.170410,-0.925171,505
36455776,9996,0.352051,-0.173706,-0.923706,511
36465778,10002,0.354614,-0.179199,-0.926025,511
36475787,10009,0.353394,-0.185547,-0.933472,512
36485789,10002,0.348877,-0.183228,-0.935669,505
36495779,9990,0.343140,-0.179687,-0.937744,514
36505809,10030,0.339478,-0.175781,-0.940308,513
36517331,11522,0.337280,-0.176758,-0.950073,509
36525825,8494,0.000000,0.000000,0.000000,510
36535791,9966,0.334961,-0.181152,-0.946899,517
36545799,10008,0.334229,-0.179321,-0.945068,511
36555799,10000,0.337036,-0.179443,-0.942505,512
36565780,9981,0.340088,-0.180054,-0.938354,519
36575786,10006,0.342651,-0.180420,-0.935791,520
36585795,10009,0.352051,-0.177246,-0.930420,518
36595771,9976,0.355591,-0.173340,-0.928467,511
36605779,10008,0.356323,-0.168213,-0.925537,513
36615781,10002,0.355591,-0.165894,-0.925781,516
36625773,9992,0.351929,-0.167236,-0.931030,516
36635771,9998,0.343506,-0.174927,-0.942993,510
36645776,10005,0.339966,-0.178833,-0.943604,517
36655777,10001,0.334961,-0.180298,-0.943115,512
36665774,9997,0.335693,-0.180298,-0.946167,513
36675794,10020,0.337646,-0.180542,-0.945801,517
36685771,9977,0.339722,-0.180420,-0.945435,516
36695782,10011,0.342163,-0.182007,-0.945068,509
36705791,10009,0.342529,-0.184448,-0.942627,515
36715784,9993,0.344727,-0.185303,-0.939453,510
36725780,9996,0.347900,-0.188354,-0.937866,514
36735791,10011,0.348999,-0.189453,-0.934570,516
36745793,10002,0.357422,-0.187988,-0.932495,511
36755782,9989,0.360596,-0.184814,-0.929932,509
36765816,10034,0.362549,-0.177979,-0.929810,512
36775780,9964,0.362183,-0.174072,-0.929199,513
36785791,10011,0.358887,-0.171997,-0.927612,513
36795774,9983,0.350098,-0.168823,-0.934448,512
36805796,10022,0.343628,-0.168091,-0.939941,514
36815781,9985,0.336426,-0.168701,-0.941650,512
36825778,9997,0.334106,-0.170776,-0.940308,511
36835797,10019,0.333252,-0.175171,-0.938354,517
36845770,9973,0.334595,-0.179932,-0.938721,509
36855771,10001,0.344604,-0.177002,-0.939209,511
36865782,10011,0.349487,-0.172241,-0.934692,517
36875797,10015,0.352173,-0.170288,-0.928955,515
36885796,9999,0.353638,-0.168701,-0.926514,516
36895797,10001,0.353760,-0.174561,-0.927246,513
36905797,10000,0.352173,-0.184326,-0.929810,515
36915789,9992,0.348511,-0.188477,-0.927490,512
36925778,9989,0.345703,-0.190552,-0.927002,513
36935785,10007,0.343384,-0.188965,-0.927490,512
36945795,10010,0.344360,-0.185791,-0.929321,512
36955781,9986,0.350098,-0.183350,-0.935425,510
36965795,10014,0.350464,-0.186157,-0.938843,506
36975770,9975,0.349609,-0.186401,-0.938110,512
36985777,10007,0.347412,-0.185791,-0.937500,512
36995797,10020,0.346313,-0.186523,-0.936646,512
37005785,9988,0.345093,-0.187988,-0.937988,513
37015794,10009,0.345337,-0.187988,-0.939087,511
37025792,9998,0.346558,-0.189697,-0.937378,510
37035778,9986,0.347778,-0.186890,-0.934204,511
37045783,10005,0.348145,-0.185181,-0.931885,511
37055786,10003,0.349365,-0.185547,-0.932129,512
37065797,10011,0.349609,-0.188110,-0.930786,505
37075787,9990,0.350220,-0.188110,-0.931641,521
37085790,10003,0.348999,-0.187744,-0.932861,511
37095775,9985,0.347168,-0.186523,-0.932983,505
37105771,9996,0.345093,-0.189331,-0.932861,512
37115771,10000,0.344482,-0.191406,-0.935303,509
37125772,10001,0.344360,-0.189453,-0.939453,509
37135779,10007,0.343506,-0.186768,-0.941650,509
37145772,9993,0.342773,-0.184814,-0.940674,505
37155776,10004,0.344360,-0.186035,-0.943604,505
37165787,10011,0.344604,-0.184082,-0.942627,512
37175771,9984,0.348389,-0.185181,-0.942871,514
37185786,10015,0.348999,-0.187988,-0.944336,506
37195790,10004,0.348022,-0.187012,-0.941284,512
37205774,9984,0.345825,-0.185547,-0.937622,511
37215792,10018,0.344482,-0.185425,-0.931641,514
37225780,9988,0.346802,-0.191040,-0.929932,506
37235772,9992,0.349854,-0.194458,-0.930664,506
37245809,10037,0.350342,-0.192749,-0.930054,504
37255774,9965,0.350708,-0.191650,-0.927124,507
37265785,10011,0.350464,-0.188599,-0.924072,511
37275774,9989,0.350220,-0.186401,-0.923828,510
37285790,10016,0.351440,-0.188110,-0.927124,512
37295793,10003,0.349731,-0.190552,-0.931030,515
37305776,9983,0.348755,-0.191772,-0.932739,515
37315794,10018,0.347534,-0.189453,-0.933105,516
37325790,9996,0.345703,-0.187622,-0.936523,512
37335779,9989,0.345825,-0.187256,-0.937378,517
37345788,10009,0.346191,-0.186401,-0.941162,512
37355775,9987,0.345947,-0.188721,-0.939941,516
37365826,10051,0.346924,-0.189453,-0.938477,518
37375781,9955,0.346313,-0.188477,-0.935791,516
37385786,10005,0.347290,-0.184082,-0.934448,514
37395781,9995,0.347290,-0.182861,-0.934082,517
37405773,9992,0.347900,-0.183350,-0.933838,509
37415797,10024,0.349365,-0.186768,-0.933105,510
37425782,9985,0.350586,-0.190308,-0.931885,511
37435784,10002,0.351563,-0.193848,-0.930176,512
37445795,10011,0.350220,-0.194946,-0.933838,513
37455773,9978,0.348267,-0.192871,-0.935425,515
37465796,10023,0.347290,-0.190063,-0.935181,513
37475773,9977,0.345337,-0.186401,-0.935425,513
37485786,10013,0.345093,-0.184448,-0.934692,511
37495784,9998,0.349121,-0.186890,-0.936157,508
37505790,10006,0.349609,-0.189453,-0.937866,514
37515770,9980,0.349609,-0.191528,-0.936646,504
37525771,10001,0.348755,-0.190918,-0.935547,505
37535799,10028,0.349121,-0.191040,-0.934570,512
37545775,9976,0.347656,-0.189331,-0.933594,508
37555789,10014,0.347412,-0.185303,-0.934082,514
37565795,10006,0.349609,-0.184814,-0.932983,513
37575786,9991,0.349121,-0.185547,-0.931519,510
37585779,9993,0.349487,-0.186157,-0.932007,514
37595771,9992,0.348267,-0.189575,-0.927246,513
37605793,10022,0.349365,-0.193604,-0.932007,514
37615773,9980,0.347534,-0.192871,-0.933472,512
37625774,10001,0.346191,-0.190063,-0.935303,514
37635799,10025,0.347412,-0.194458,-0.934448,508
37645784,9985,0.345459,-0.190674,-0.934204,512
37655772,9988,0.348389,-0.189331,-0.934937,514
37665791,10019,0.348877,-0.186279,-0.936279,516
37675785,9994,0.349976,-0.185303,-0.936768,513
37685788,10003,0.349365,-0.184204,-0.935181,495
37695795,10007,0.348145,-0.183716,-0.932861,509
37705777,9982,0.349976,-0.189209,-0.935059,512
37715783,10006,0.348145,-0.189819,-0.936035,511
37725791,10008,0.348633,-0.192993,-0.935669,512
37735794,10003,0.347168,-0.191895,-0.932617,513
37745777,9983,0.347412,-0.192383,-0.930664,507
37755796,10019,0.348511,-0.189575,-0.931152,511
37765774,9978,0.349121,-0.189819,-0.931030,512
37775775,10001,0.348877,-0.190796,-0.929810,511
37785776,10001,0.350464,-0.191284,-0.930298,510
37795774,9998,0.350952,-0.192505,-0.928955,512
37805789,10015,0.351929,-0.193970,-0.931274,511
37815784,9995,0.349121,-0.194946,-0.934814,508
37825774,9990,0.348877,-0.193604,-0.938843,513
37835786,10012,0.348633,-0.187378,-0.941528,513
37845778,9992,0.345093,-0.181885,-0.939453,511
37855815,10037,0.342651,-0.181519,-0.936646,507
37865800,9985,0.343384,-0.184814,-0.937378,507
37875788,9988,0.344116,-0.188354,-0.941162,506
37885783,9995,0.346802,-0.192749,-0.939209,513
37895772,9989,0.350952,-0.191895,-0.933716,505
37905772,10000,0.352173,-0.187744,-0.926758,512
37915772,10000,0.356445,-0.187866,-0.926025,508
37925777,10005,0.356812,-0.189209,-0.928345,505
37935771,9994,0.356079,-0.190796,-0.931274,512
37945773,10002,0.352051,-0.192627,-0.930054,513
37955802,10029,0.348877,-0.190674,-0.929810,507
37965795,9993,0.346558,-0.188843,-0.932739,515
37975792,9997,0.348267,-0.190918,-0.934937,516
37985790,9998,0.348999,-0.193237,-0.937744,507
37995798,10008,0.347778,-0.193237,-0.940186,511
38005770,9972,0.347534,-0.192261,-0.934570,518
38015798,10028,0.345825,-0.190063,-0.933716,518
38025777,9979,0.347412,-0.186646,-0.933716,519
38035792,10015,0.351807,-0.185791,-0.937500,520
38045796,10004,0.350342,-0.184570,-0.934326,511
38055794,9998,0.349121,-0.182617,-0.932373,516
38065780,9986,0.351685,-0.185669,-0.931885,519
38075780,10000,0.352295,-0.187134,-0.932373,518
38085814,10034,0.352295,-0.186035,-0.932007,517
38095792,9978,0.351563,-0.182007,-0.931030,517
38105776,9984,0.349121,-0.180420,-0.929077,509
38115795,10019,0.347656,-0.182617,-0.932983,514
38125794,9999,0.348145,-0.189331,-0.938477,515
38135776,9982,0.349243,-0.192383,-0.935425,511
38145774,9998,0.347656,-0.192383,-0.933594,515
38155795,10021,0.347900,-0.192139,-0.934204,515
38165775,9980,0.346680,-0.189209,-0.934570,509
38175787,10012,0.347412,-0.185791,-0.934082,513
38185793,10006,0.350586,-0.190918,-0.933350,509
38195798,10005,0.351440,-0.193237,-0.933960,509
38205772,9974,0.351807,-0.192871,-0.934692,511
38215798,10026,0.350342,-0.192505,-0.933716,512
38225799,10001,0.350098,-0.190308,-0.929687,514
38235794,9995,0.348877,-0.185181,-0.932861,516
38245779,9985,0.349487,-0.183472,-0.934692,514
38255791,10012,0.349609,-0.180664,-0.935425,516
38265795,10004,0.350464,-0.181396,-0.935791,517
38275796,10001,0.349976,-0.182861,-0.936401,516
38285791,9995,0.350830,-0.184082,-0.933350,509
38295809,10018,0.350830,-0.184692,-0.933228,515
38305784,9975,0.350098,-0.185059,-0.933228,513
38315779,9995,0.348145,-0.184204,-0.933716,515
38325799,10020,0.351074,-0.185059,-0.932739,514
38335776,9977,0.350708,-0.183838,-0.930054,513
38345796,10020,0.351685,-0.187622,-0.931274,514
38355776,9980,0.351440,-0.189575,-0.931519,511
38365779,10003,0.349976,-0.190430,-0.932251,513
38375790,10011,0.350708,-0.191284,-0.931030,506
38385799,10009,0.350098,-0.192505,-0.932129,514
38395798,9999,0.353760,-0.188721,-0.932007,514
38405774,9976,0.356079,-0.188110,-0.934448,515
38415807,10033,0.356323,-0.187134,-0.936035,513
38425779,9972,0.356812,-0.184692,-0.936768,512
38435775,9996,0.352783,-0.183350,-0.932495,509
38445790,10015,0.352051,-0.181274,-0.929077,513
38455773,9983,0.351074,-0.182739,-0.931763,513
38465775,10002,0.350586,-0.182007,-0.932495,508
38475787,10012,0.350830,-0.184204,-0.932495,506
38485779,9992,0.351074,-0.183228,-0.930786,514
38495789,10010,0.350830,-0.181763,-0.929932,513
38505781,9992,0.350952,-0.185791,-0.929932,512
38515775,9994,0.352173,-0.186646,-0.932129,510
38529100,13325,0.352661,-0.186523,-0.933838,513
38535798,6698,0.352295,-0.185303,-0.935303,513
38545784,9986,0.349243,-0.184814,-0.934082,509
38555782,9998,0.349609,-0.186401,-0.935669,515
38565800,10018,0.350220,-0.188354,-0.935669,513
38575798,9998,0.352539,-0.188965,-0.934448,509
38585799,10001,0.353271,-0.188843,-0.932373,512
38595794,9995,0.352661,-0.186279,-0.926147,515
38605785,9991,0.355103,-0.187500,-0.927368,514
38615779,9994,0.351563,-0.186035,-0.935059,511
38625796,10017,0.348999,-0.184937,-0.936523,509
38635779,9983,0.347656,-0.182617,-0.934570,509
38645797,10018,0.348267,-0.181274,-0.935303,512
38655789,9992,0.348633,-0.180786,-0.932861,508
38665820,10031,0.350098,-0.182617,-0.939819,515
38675793,9973,0.349365,-0.184326,-0.939575,509
38685781,9988,0.348022,-0.184326,-0.936279,514
38695795,10014,0.347778,-0.184937,-0.935059,520
38705795,10000,0.348145,-0.184937,-0.934814,518
38715772,9977,0.350586,-0.185303,-0.935669,516
38725776,10004,0.349854,-0.183960,-0.933228,517
38735783,10007,0.350464,-0.184326,-0.932495,518
38745771,9988,0.352661,-0.183960,-0.930054,510
38755795,10024,0.353271,-0.184692,-0.928101,516
38765775,9980,0.352539,-0.191895,-0.932617,516
38775793,10018,0.352417,-0.192993,-0.935181,515
38785803,10010,0.349487,-0.191528,-0.934448,515
38795792,9989,0.348022,-0.188477,-0.933228,514
38805774,9982,0.348022,-0.185181,-0.934814,511
38815772,9998,0.348267,-0.182007,-0.936035,515
38825771,9999,0.349731,-0.182251,-0.936157,511
38835785,10014,0.350220,-0.183350,-0.934448,511
38845777,9992,0.349854,-0.186157,-0.932739,513
38855789,10012,0.351440,-0.188354,-0.930786,513
38865784,9995,0.352905,-0.188599,-0.930176,510
38875789,10005,0.353271,-0.186157,-0.929321,507
38885813,10024,0.354004,-0.184814,-0.928467,513
38895776,9963,0.352417,-0.184082,-0.927124,513
38905794,10018,0.352173,-0.184448,-0.927368,507
38915786,9992,0.351563,-0.185181,-0.929077,512
38925773,9987,0.351440,-0.191406,-0.932861,514
38935796,10023,0.349731,-0.193237,-0.934204,514
38945777,9981,0.348633,-0.193604,-0.934692,508
38955774,9997,0.348999,-0.192627,-0.936890,513
38965788,10014,0.348633,-0.191528,-0.936768,513
38975780,9992,0.347656,-0.188843,-0.937744,508
38985778,9998,0.345703,-0.191040,-0.938721,514
38995795,10017,0.345581,-0.192017,-0.937256,515
39005796,10001,0.345703,-0.193481,-0.939209,515
39015812,10016,0.346191,-0.195068,-0.939697,513
39025783,9971,0.345581,-0.191772,-0.936035,512
39035795,10012,0.349731,-0.188843,-0.928955,511
39045783,9988,0.350952,-0.190186,-0.929810,511
39055793,10010,0.352173,-0.190796,-0.931519,514
39065776,9983,0.351440,-0.192993,-0.932129,514
39075774,9998,0.350342,-0.194946,-0.931885,506
39085771,9997,0.346802,-0.196899,-0.932495,509
39095792,10021,0.347534,-0.194092,-0.933350,514
39105789,9997,0.348389,-0.192627,-0.935547,512
39115787,9998,0.348267,-0.191284,-0.938110,508
39125798,10011,0.350098,-0.188599,-0.938599,513
39135798,10000,0.350464,-0.187256,-0.938477,511
39145778,9980,0.348633,-0.188843,-0.931885,507
39155779,10001,0.348755,-0.189819,-0.929932,509
39165794,10015,0.349121,-0.191650,-0.931885,514
39175799,10005,0.349365,-0.191528,-0.934326,505
39185783,9984,0.351196,-0.188477,-0.930542,513
39195784,10001,0.350220,-0.185547,-0.928711,511
39205790,10006,0.350830,-0.187134,-0.930542,505
39215781,9991,0.350830,-0.189575,-0.931274,511
39225773,9992,0.350220,-0.192261,-0.933594,513
39235782,10009,0.348145,-0.193115,-0.933594,512
39245782,10000,0.348022,-0.192383,-0.933960,511
39255794,10012,0.350464,-0.191406,-0.936646,512
39265798,10004,0.351929,-0.189819,-0.936768,513
39275780,9982,0.351929,-0.191040,-0.933228,510
39285796,10016,0.350830,-0.192017,-0.928955,507
39295795,9999,0.350464,-0.196167,-0.930908,507
39305774,9979,0.350464,-0.191895,-0.933838,514
39315788,10014,0.348145,-0.186279,-0.932007,507
39325789,10001,0.347168,-0.185181,-0.929321,512
39335787,9998,0.348389,-0.186279,-0.928833,508
39345793,10006,0.350708,-0.189697,-0.931641,515
39355781,9988,0.350342,-0.194580,-0.937378,510
39365786,10005,0.348877,-0.192993,-0.935181,516
39375785,9999,0.347168,-0.189087,-0.932861,517
39385770,9985,0.346558,-0.185791,-0.930176,511
39395791,10021,0.347290,-0.184204,-0.932007,515
39405785,9994,0.347412,-0.185181,-0.929199,518
39415777,9992,0.353271,-0.194946,-0.935425,518
39425784,10007,0.351929,-0.192261,-0.932007,512
39435787,10003,0.355469,-0.189697,-0.935669,521
39445789,10002,0.350220,-0.189941,-0.926392,516
39455771,9982,0.347290,-0.187500,-0.923950,517
39465786,10015,0.348145,-0.197510,-0.933838,515
39475773,9987,0.347412,-0.194702,-0.940552,515
39485773,10000,0.348633,-0.193604,-0.943115,511
39495817,10044,0.346558,-0.185303,-0.938477,513
39505795,9978,0.348877,-0.178223,-0.929321,516
39515784,9989,0.351563,-0.190186,-0.930298,514
39525776,9992,0.355103,-0.197754,-0.938354,514
39540338,14562,0.354004,-0.198730,-0.935547,508
39545862,5524,0.000000,0.000000,0.000000,514
39555799,9937,0.346191,-0.193237,-0.926880,514
39565794,9995,0.349365,-0.186035,-0.926514,511
39575796,10002,0.352417,-0.189819,-0.934448,512
39585771,9975,0.355469,-0.192749,-0.940796,511
39595781,10010,0.353394,-0.194092,-0.937744,513
39605780,9999,0.351196,-0.191406,-0.932861,513
39615821,10041,0.349487,-0.189331,-0.927979,507
39625774,9953,0.348633,-0.187134,-0.934570,514
39635796,10022,0.349487,-0.188843,-0.939819,515
39645797,10001,0.348877,-0.189087,-0.941162,513
39655795,9998,0.348511,-0.188354,-0.935181,516
39665796,10001,0.350220,-0.188232,-0.930664,510
39675788,9992,0.351807,-0.188965,-0.930786,515
39685782,9994,0.353027,-0.190430,-0.932739,515
39695776,9994,0.352539,-0.189331,-0.932617,508
39705779,10003,0.351074,-0.188965,-0.931152,513
39715773,9994,0.348999,-0.187378,-0.928711,509
39725790,10017,0.348999,-0.191162,-0.929443,509
39735788,9998,0.349854,-0.193604,-0.932495,514
39745798,10010,0.350586,-0.196045,-0.934814,514
39755799,10001,0.351807,-0.194824,-0.934692,507
39765788,9989,0.350464,-0.191650,-0.934204,509
39775796,10008,0.349976,-0.186157,-0.932739,512
39785778,9982,0.349487,-0.187012,-0.934082,513
39795777,9999,0.350586,-0.188721,-0.935181,508
39805774,9997,0.351074,-0.189941,-0.934204,513
39815789,10015,0.351440,-0.191406,-0.932495,512
39825789,10000,0.350220,-0.190918,-0.931030,512
39835770,9981,0.349365,-0.192871,-0.929932,515
39845790,10020,0.349731,-0.190796,-0.929443,507
39855792,10002,0.349731,-0.190918,-0.931152,508
39865799,10007,0.350586,-0.194702,-0.931885,508
39875770,9971,0.350220,-0.198120,-0.932739,511
39885788,10018,0.349976,-0.200684,-0.934937,508
39895790,10002,0.349976,-0.200562,-0.935303,508
39905794,10004,0.348511,-0.197144,-0.933594,513
39915792,9998,0.347534,-0.194214,-0.933716,512
39925777,9985,0.347168,-0.192871,-0.934448,513
39935786,10009,0.350342,-0.191650,-0.930420,511
39945793,10007,0.356689,-0.192505,-0.926880,509
39955772,9979,0.356567,-0.192505,-0.926392,514
39965801,10029,0.355591,-0.192383,-0.927124,511
39975771,9970,0.352417,-0.190552,-0.928589,512
39985797,10026,0.348755,-0.189209,-0.927612,507
39995795,9998,0.347534,-0.188721,-0.930298,509
40005775,9980,0.347412,-0.189331,-0.933838,514
40015782,10007,0.349609,-0.190674,-0.936768,511
40025770,9988,0.350220,-0.191650,-0.937378,515
40035783,10013,0.350952,-0.192017,-0.938354,516
40045793,10010,0.348511,-0.191528,-0.938599,515
40055776,9983,0.346680,-0.191284,-0.936035,513
40065796,10020,0.346924,-0.193481,-0.935791,517
40075798,10002,0.347290,-0.193848,-0.934204,521
40085812,10014,0.348999,-0.195068,-0.933838,518
40095794,9982,0.349609,-0.197144,-0.932007,518
40105779,9985,0.352295,-0.193237,-0.927124,517
40115784,10005,0.353149,-0.191650,-0.926025,517
40125788,10004,0.353149,-0.192871,-0.927979,513
40135774,9986,0.352905,-0.192505,-0.931763,509
40145778,10004,0.350220,-0.190308,-0.933594,517
40155776,9998,0.346558,-0.187988,-0.933838,510
40165785,10009,0.348145,-0.189087,-0.935791,517
40175782,9997,0.348999,-0.190674,-0.939209,516
40185787,10005,0.350708,-0.191772,-0.937012,516
40195770,9983,0.350830,-0.192993,-0.935303,514
40205777,10007,0.352539,-0.193359,-0.931519,516
40215776,9999,0.352417,-0.193115,-0.932007,508
40225774,9998,0.352417,-0.190918,-0.931763,512
40235796,10022,0.350952,-0.189453,-0.931152,503
40245781,9985,0.351074,-0.189697,-0.927979,509
40255778,9997,0.351563,-0.190430,-0.928101,511
40265771,9993,0.352539,-0.193115,-0.932007,515
40275790,10019,0.350708,-0.192749,-0.933472,511
40285788,9998,0.351074,-0.190674,-0.934326,513
40295799,10011,0.349243,-0.188354,-0.934570,508
40305794,9995,0.349976,-0.186523,-0.933960,516
40315781,9987,0.349487,-0.185059,-0.933960,515
40325784,10003,0.350952,-0.185913,-0.934692,517
40335781,9997,0.350342,-0.186523,-0.934082,518
40345771,9990,0.350342,-0.188477,-0.932129,508
40355794,10023,0.350830,-0.189575,-0.930298,511
40365772,9978,0.349487,-0.194214,-0.929932,516
40375776,10004,0.349976,-0.193604,-0.930908,515
40385795,10019,0.351196,-0.193604,-0.931519,511
40395782,9987,0.350464,-0.193848,-0.931641,510
40405770,9988,0.349976,-0.191162,-0.932007,509
40415778,10008,0.351318,-0.189331,-0.931030,513
40425799,10021,0.351685,-0.190063,-0.934204,512
40435789,9990,0.350220,-0.189941,-0.932007,514
40445800,10011,0.349731,-0.190552,-0.932495,507
40455803,10003,0.349854,-0.188965,-0.932739,513
40465776,9973,0.349854,-0.186768,-0.929321,512
40475773,9997,0.350708,-0.189941,-0.932251,509
40485782,10009,0.351807,-0.192139,-0.934082,506
40495793,10011,0.350830,-0.193481,-0.936279,514
40505788,9995,0.350586,-0.193604,-0.933960,513
40515773,9985,0.350952,-0.192139,-0.933472,508
40525798,10025,0.348755,-0.191650,-0.934082,513
40535773,9975,0.349365,-0.191040,-0.934570,514
40545788,10015,0.349609,-0.192383,-0.933716,513
40555798,10010,0.350098,-0.193726,-0.933350,511
40565808,10010,0.350098,-0.196045,-0.932495,512
40575781,9973,0.349976,-0.193970,-0.932373,513
40585777,9996,0.352295,-0.194214,-0.931274,505
40595788,10011,0.351685,-0.192749,-0.929077,509
40605790,10002,0.352173,-0.192505,-0.932861,508
40615796,10006,0.352661,-0.190308,-0.934326,512
40625796,10000,0.349243,-0.187622,-0.932495,510
40635796,10000,0.347778,-0.187988,-0.933228,508
40645785,9989,0.348267,-0.189453,-0.934082,511
40655791,10006,0.351074,-0.192017,-0.935303,508
40665776,9985,0.352905,-0.192139,-0.933838,514
40675792,10016,0.353760,-0.191406,-0.930908,512
40685777,9985,0.353638,-0.195068,-0.925415,511
40695783,10006,0.353027,-0.194458,-0.927002,513
40705773,9990,0.350952,-0.195435,-0.930542,513
40715782,10009,0.349121,-0.195068,-0.932373,510
40725787,10005,0.349243,-0.195068,-0.932007,512
40735774,9987,0.348267,-0.194214,-0.931030,512
40745784,10010,0.348999,-0.194458,-0.934692,510
40755782,9998,0.350220,-0.194580,-0.937256,516
40765797,10015,0.350220,-0.196655,-0.936890,514
40775786,9989,0.348633,-0.196533,-0.939697,514
40785784,9998,0.348145,-0.196167,-0.937744,518
40795772,9988,0.346069,-0.188721,-0.934570,512
40805821,10049,0.347290,-0.187256,-0.932617,513
40815775,9954,0.348755,-0.187866,-0.932861,514
40825794,10019,0.350342,-0.189453,-0.932739,520
40835798,10004,0.352051,-0.190430,-0.929565,513
40845779,9981,0.354370,-0.188721,-0.926636,518
40855774,9995,0.354492,-0.191650,-0.927856,511
40865798,10024,0.354126,-0.193115,-0.932251,516
40875781,9983,0.352051,-0.189087,-0.934448,510
40885788,10007,0.349609,-0.189453,-0.934570,513
40895792,10004,0.347656,-0.191895,-0.934692,516
40905785,9993,0.347290,-0.189697,-0.934692,515
40915816,10031,0.346558,-0.192871,-0.934204,513
40925799,9983,0.347778,-0.193970,-0.931519,514
40935775,9976,0.351074,-0.194580,-0.928711,515
40945792,10017,0.351318,-0.195312,-0.927368,507
40955770,9978,0.355957,-0.192383,-0.923950,511
40965793,10023,0.355469,-0.191650,-0.924927,513
40975797,10004,0.353027,-0.190918,-0.928711,513
40985777,9980,0.351318,-0.189819,-0.931152,510
40995779,10002,0.348633,-0.188110,-0.933105,510
41005779,10000,0.346436,-0.188110,-0.934326,509
41015798,10019,0.346313,-0.188477,-0.936401,512
41025774,9976,0.346436,-0.189209,-0.938477,512
41035794,10020,0.347168,-0.188110,-0.940796,511
41045803,10009,0.348633,-0.185913,-0.940430,511
41055784,9981,0.347046,-0.187500,-0.937744,515
41065777,9993,0.348999,-0.190186,-0.929077,512
41075798,10021,0.348877,-0.189453,-0.931519,510
41085773,9975,0.349854,-0.190186,-0.934570,515
41095771,9998,0.350220,-0.192383,-0.932129,515
41105781,10010,0.349854,-0.194092,-0.931396,513
41115791,10010,0.348877,-0.194824,-0.926514,515
41125799,10008,0.348389,-0.193970,-0.929932,514
41135773,9974,0.348999,-0.191650,-0.935303,513
41145781,10008,0.348267,-0.189087,-0.938965,510
41155800,10019,0.348633,-0.182251,-0.942749,514
41165792,9992,0.344238,-0.176880,-0.942261,507
41175787,9995,0.343140,-0.176147,-0.940552,516
41185776,9989,0.344849,-0.177856,-0.941162,517
41195789,10013,0.344849,-0.180786,-0.939453,514
41205787,9998,0.345947,-0.183350,-0.938721,514
41215777,9990,0.348511,-0.185303,-0.936523,512
41225796,10019,0.349854,-0.188477,-0.928101,512
41235774,9978,0.350586,-0.190186,-0.926147,514
41245791,10017,0.354492,-0.191650,-0.929077,514
41255774,9983,0.356812,-0.192627,-0.931885,513
41265782,10008,0.356812,-0.190552,-0.936279,515
41275791,10009,0.352173,-0.185303,-0.930054,507
41285789,9998,0.349487,-0.186279,-0.926880,511
41295780,9991,0.346924,-0.186890,-0.923828,514
41305790,10010,0.347046,-0.187866,-0.929321,516
41315799,10009,0.351685,-0.196777,-0.938721,506
41325784,9985,0.356201,-0.189819,-0.935791,513
41335778,9994,0.352051,-0.177612,-0.926880,511
41345796,10018,0.348999,-0.168945,-0.917358,513
41355771,9975,0.351318,-0.171509,-0.919189,510
41365785,10014,0.350586,-0.180420,-0.929077,514
41375782,9997,0.352295,-0.188110,-0.942993,512
41385790,10008,0.347168,-0.187378,-0.949829,507
41395793,10003,0.341187,-0.179443,-0.942871,512
41405783,9990,0.339722,-0.177490,-0.935547,513
41415799,10016,0.340576,-0.180420,-0.937134,517
41425798,9999,0.344116,-0.187378,-0.941895,511
41435780,9982,0.345947,-0.190186,-0.937622,515
41445771,9991,0.347656,-0.191650,-0.928955,509
41455782,10011,0.347412,-0.189941,-0.921387,511
41465789,10007,0.348877,-0.187866,-0.918213,512
41475785,9996,0.353027,-0.191162,-0.922607,509
41485774,9989,0.351074,-0.197754,-0.934570,509
41495793,10019,0.348877,-0.194580,-0.935059,511
41505808,10015,0.344971,-0.187988,-0.933472,512
41515795,9987,0.344849,-0.180176,-0.933838,507
41525790,9995,0.344971,-0.175415,-0.941406,514
41535772,9982,0.348022,-0.177612,-0.947632,512
41545780,10008,0.348999,-0.183960,-0.943848,516
41559506,13726,0.348877,-0.184692,-0.935669,516
41565772,6266,0.349121,-0.186157,-0.929810,511
41575800,10028,0.348755,-0.187988,-0.929443,517
41585776,9976,0.348633,-0.190308,-0.933472,512
41595794,10018,0.344971,-0.188721,-0.934692,516
41605775,9981,0.342041,-0.186157,-0.927734,514
41615777,10002,0.342896,-0.184204,-0.925293,514
41625795,10018,0.344971,-0.184204,-0.923218,516
41635782,9987,0.349976,-0.189331,-0.926758,520
41645786,10004,0.357422,-0.193970,-0.935791,517
41655792,10006,0.355713,-0.195312,-0.937012,517
41665787,9995,0.352051,-0.194580,-0.937500,518
41675782,9995,0.346802,-0.193848,-0.940796,515
41685770,9988,0.343262,-0.189819,-0.944824,513
41695786,10016,0.341553,-0.187500,-0.947510,517
41705778,9992,0.342529,-0.191772,-0.946533,518
41715775,9997,0.341797,-0.191162,-0.940552,516
41725797,10022,0.341553,-0.189941,-0.933838,512
41735802,10005,0.344238,-0.186768,-0.928833,511
41745786,9984,0.349854,-0.189331,-0.923462,515
41755795,10009,0.358398,-0.187622,-0.921143,508
41765798,10003,0.359497,-0.185181,-0.920654,513
41775782,9984,0.359131,-0.183716,-0.921021,505
41785781,9999,0.354614,-0.184082,-0.923340,512
41795770,9989,0.351440,-0.182129,-0.929077,515
41805772,10002,0.345581,-0.180054,-0.940918,507
41815797,10025,0.343750,-0.181030,-0.944336,514
41825798,10001,0.343140,-0.179810,-0.945312,515
41835776,9978,0.340942,-0.179077,-0.945557,516
41845796,10020,0.341919,-0.180420,-0.944214,517
41855791,9995,0.342285,-0.181519,-0.939087,512
41865786,9995,0.343750,-0.187134,-0.937500,512
41875779,9993,0.345215,-0.189697,-0.934692,510
41885793,10014,0.348267,-0.191895,-0.930664,512
41895787,9994,0.348877,-0.191284,-0.928955,517
41905798,10011,0.350952,-0.192627,-0.927368,516
41915777,9979,0.353149,-0.190308,-0.932861,516
41925776,9999,0.354858,-0.187622,-0.934326,509
41935779,10003,0.355957,-0.186157,-0.934326,508
41945799,10020,0.352417,-0.185059,-0.936157,513
41955794,9995,0.350098,-0.184448,-0.937500,514
41965784,9990,0.347778,-0.182007,-0.935669,514
41975770,9986,0.346680,-0.178833,-0.935669,513
41985781,10011,0.348145,-0.174927,-0.934570,515
41995779,9998,0.354126,-0.168945,-0.932129,514
42005774,9995,0.354736,-0.164307,-0.937256,514
42015788,10014,0.340332,-0.163574,-0.942993,507
42025779,9991,0.332642,-0.161621,-0.940186,512
42035779,10000,0.330322,-0.163574,-0.925659,513
42045785,10006,0.333130,-0.173096,-0.927368,512
42055796,10011,0.337402,-0.182617,-0.933960,516
42065775,9979,0.344116,-0.184326,-0.932251,508
42075788,10013,0.351563,-0.186401,-0.925171,509
42085800,10012,0.353027,-0.186157,-0.924438,511
42095770,9970,0.354736,-0.187012,-0.923584,512
42105826,10056,0.356079,-0.189453,-0.924072,512
42115780,9954,0.358032,-0.191528,-0.927246,510
42125789,10009,0.361084,-0.197876,-0.939819,511
42135777,9988,0.359863,-0.201050,-0.940918,510
42145783,10006,0.355957,-0.200806,-0.936646,509
42155774,9991,0.351440,-0.196167,-0.935059,509
42165794,10020,0.349487,-0.195068,-0.931885,512
42175792,9998,0.347412,-0.193237,-0.932251,513
42185793,10001,0.349121,-0.184326,-0.934570,514
42195796,10003,0.350586,-0.179810,-0.932861,509
42205787,9991,0.351196,-0.175293,-0.930298,512
42215788,10001,0.352295,-0.168823,-0.924561,505
42225812,10024,0.353760,-0.164062,-0.923462,512
42235773,9961,0.357666,-0.168335,-0.929321,510
42245778,10005,0.357422,-0.170654,-0.928345,509
42255770,9992,0.357788,-0.171997,-0.928955,512
42265785,10015,0.360107,-0.172852,-0.927734,506
42275791,10006,0.358154,-0.172852,-0.925171,511
42285778,9987,0.359131,-0.174438,-0.931519,511
42295778,10000,0.358521,-0.174805,-0.937378,512
42305784,10006,0.355713,-0.173340,-0.942749,512
42315777,9993,0.352051,-0.170166,-0.942017,510
42325779,10002,0.348633,-0.168091,-0.940674,519
42335774,9995,0.346802,-0.170532,-0.942505,519
42345772,9998,0.348145,-0.175903,-0.943359,512
42355785,10013,0.347656,-0.176147,-0.944092,519
42365785,10000,0.345825,-0.173584,-0.943848,515
42375791,10006,0.344971,-0.171387,-0.940674,521
42385777,9986,0.344849,-0.166016,-0.935791,521
42395795,10018,0.348511,-0.161865,-0.936279,514
42405774,9979,0.352539,-0.160889,-0.937012,521
42415795,10021,0.355103,-0.159668,-0.937378,521
42425781,9986,0.356323,-0.159912,-0.935059,518
42435784,10003,0.356079,-0.162231,-0.934692,518
42445791,10007,0.354736,-0.167236,-0.936279,512
42455799,10008,0.353027,-0.169922,-0.936157,517
42465791,9992,0.352783,-0.171265,-0.936646,516
42475778,9987,0.350830,-0.172607,-0.935547,517
42485810,10032,0.348877,-0.173218,-0.937500,511
42495781,9971,0.346191,-0.174072,-0.937744,516
42505793,10012,0.345093,-0.177246,-0.936646,517
42515774,9981,0.345459,-0.175903,-0.934814,511
42525784,10010,0.347900,-0.173706,-0.935913,511
42535785,10001,0.351685,-0.173462,-0.937256,508
42545790,10005,0.355591,-0.171265,-0.935425,509
42555785,9995,0.354614,-0.165405,-0.933716,513
42568163,12378,0.353882,-0.164429,-0.932739,508
42575792,7629,0.356079,-0.159912,-0.933594,513
42585795,10003,0.354370,-0.156250,-0.934326,512
42595792,9997,0.352905,-0.156372,-0.934937,515
42605782,9990,0.352295,-0.162231,-0.938354,506
42615778,9996,0.348877,-0.165161,-0.940796,512
42625791,10013,0.346680,-0.163574,-0.938354,513
42635777,9986,0.344360,-0.163330,-0.936035,511
42645797,10020,0.343628,-0.162354,-0.937012,508
42655790,9993,0.344849,-0.164429,-0.934570,516
42665779,9989,0.346191,-0.167358,-0.935791,510
42675772,9993,0.349731,-0.167603,-0.934326,514
42685780,10008,0.352661,-0.168213,-0.931763,509
42695791,10011,0.354736,-0.169067,-0.930664,516
42705770,9979,0.354248,-0.168823,-0.929810,518
42715798,10028,0.351563,-0.173218,-0.934570,513
42725838,10040,0.347900,-0.172119,-0.936523,514
42735795,9957,0.347778,-0.178345,-0.940063,508
42745782,9987,0.343750,-0.175171,-0.936523,512
42755772,9990,0.345825,-0.176636,-0.945435,508
42765773,10001,0.344238,-0.172119,-0.942749,514
42775784,10011,0.343384,-0.171143,-0.943726,509
42785785,10001,0.342285,-0.172729,-0.942749,507
42795773,9988,0.344604,-0.171265,-0.941772,513
42805798,10025,0.347046,-0.174072,-0.942749,509
42815785,9987,0.349243,-0.173706,-0.943970,510
42825790,10005,0.349976,-0.167969,-0.937500,507
42835771,9981,0.350220,-0.166748,-0.934692,510
42845774,10003,0.353271,-0.168701,-0.934448,512
42855798,10024,0.352905,-0.169800,-0.933472,507
42865796,9998,0.351563,-0.170776,-0.931274,510
42875776,9980,0.349243,-0.178101,-0.930664,505
42885791,10015,0.348511,-0.177734,-0.929565,508
42895788,9997,0.348633,-0.176270,-0.932373,511
42905796,10008,0.348633,-0.175293,-0.933228,510
42915774,9978,0.348633,-0.177002,-0.935547,511
42925776,10002,0.349243,-0.175781,-0.939209,505
42935793,10017,0.348511,-0.174194,-0.940063,510
42945772,9979,0.348145,-0.172852,-0.938599,507
42955776,10004,0.348633,-0.174316,-0.940674,512
42965825,10049,0.347778,-0.174927,-0.941650,512
42975774,9949,0.349121,-0.174072,-0.940918,513
42985798,10024,0.349731,-0.175049,-0.935791,508
42995797,9999,0.351318,-0.171753,-0.932739,508
43005776,9979,0.349609,-0.171509,-0.931885,505
43015794,10018,0.351196,-0.171875,-0.931519,511
43025781,9987,0.349976,-0.174072,-0.933350,510
43035786,10005,0.347778,-0.173096,-0.937622,512
43045785,9999,0.346680,-0.171875,-0.938110,512
43055787,10002,0.346680,-0.171021,-0.938110,512
43065793,10006,0.347046,-0.173462,-0.937134,512
43075772,9979,0.347656,-0.175171,-0.939697,514
43085793,10021,0.348022,-0.173706,-0.941040,514
43095784,9991,0.348999,-0.172729,-0.938477,515
43105783,9999,0.348267,-0.172363,-0.937744,517
43115775,9992,0.348511,-0.169312,-0.934814,514
43125779,10004,0.349243,-0.168579,-0.934937,518
43135771,9992,0.349121,-0.169312,-0.934326,518
43145779,10008,0.351685,-0.170410,-0.933472,516
43155773,9994,0.350830,-0.169434,-0.931519,517
43165789,10016,0.350220,-0.171753,-0.931274,518
43175778,9989,0.349854,-0.176147,-0.935425,515
43185785,10007,0.348877,-0.178467,-0.937500,511
43195793,10008,0.346313,-0.177368,-0.937256,517
43205794,10001,0.345581,-0.176514,-0.936035,516
43215780,9986,0.345337,-0.176636,-0.935059,515
43225798,10018,0.348267,-0.173584,-0.934082,516
43235779,9981,0.350708,-0.170776,-0.934082,516
43245796,10017,0.354492,-0.173706,-0.938354,512
43255778,9982,0.355469,-0.172852,-0.937134,512
43265779,10001,0.354492,-0.170776,-0.934448,511
43275781,10002,0.351440,-0.169189,-0.933228,512
43285786,10005,0.350830,-0.169312,-0.937256,512
43295786,10000,0.348633,-0.170532,-0.938232,511
43305799,10013,0.345703,-0.171509,-0.937500,512
43315771,9972,0.344971,-0.170654,-0.937378,514
43325786,10015,0.345459,-0.171265,-0.937256,508
43335777,9991,0.345947,-0.172119,-0.937866,512
43345772,9995,0.347900,-0.169800,-0.937744,507
43355787,10015,0.349731,-0.169678,-0.938965,507
43365777,9990,0.350830,-0.168701,-0.935059,514
43375770,9993,0.351929,-0.168701,-0.932617,512
43385796,10026,0.350586,-0.169189,-0.932251,517
43395787,9991,0.351074,-0.171875,-0.934204,531
43405782,9995,0.348511,-0.171997,-0.933350,514
43415782,10000,0.347412,-0.172363,-0.931152,508
43425786,10004,0.346436,-0.171997,-0.931763,512
43435800,10014,0.344971,-0.171631,-0.933594,512
43445794,9994,0.347290,-0.170410,-0.936035,515
43455783,9989,0.348022,-0.169067,-0.935669,514
43465780,9997,0.347046,-0.169312,-0.937134,515
43475774,9994,0.348511,-0.169922,-0.937988,515
43485796,10022,0.347900,-0.173706,-0.940674,509
43495787,9991,0.348389,-0.178467,-0.941162,509
43505792,10005,0.347534,-0.180298,-0.942383,514
43515784,9992,0.345947,-0.178101,-0.943481,511
43525782,9998,0.346069,-0.174316,-0.941406,509
43535785,10003,0.345825,-0.170654,-0.938232,516
43545795,10010,0.348511,-0.167969,-0.937988,514
43555793,9998,0.349976,-0.168701,-0.936890,511
43568294,12501,0.352417,-0.175659,-0.933472,513
43575791,7497,0.350342,-0.178345,-0.931519,513
43585779,9988,0.349121,-0.178833,-0.932617,512
43595775,9996,0.346680,-0.177979,-0.932861,511
43605789,10014,0.346069,-0.177124,-0.934448,511
43615786,9997,0.347778,-0.174805,-0.939209,514
43625781,9995,0.351318,-0.167969,-0.941772,506
43635784,10003,0.350342,-0.166504,-0.942017,513
43645786,10002,0.347778,-0.166504,-0.941895,512
43655784,9998,0.346069,-0.166138,-0.939087,507
43665784,10000,0.344360,-0.165894,-0.934448,511
43675805,10021,0.342407,-0.174316,-0.931274,515
43685785,9980,0.343018,-0.176270,-0.930786,516
43695773,9988,0.345093,-0.175659,-0.929932,512
43705772,9999,0.348877,-0.174438,-0.928955,514
43715784,10012,0.351074,-0.171753,-0.929443,509
43725798,10014,0.352295,-0.171753,-0.935669,510
43735781,9983,0.350830,-0.171753,-0.938232,513
43745788,10007,0.348389,-0.173096,-0.941406,510
43755772,9984,0.346680,-0.176270,-0.941284,513
43765797,10025,0.344971,-0.176514,-0.941284,508
43775793,9996,0.342896,-0.176514,-0.941406,510
43785776,9983,0.341187,-0.177124,-0.938599,517
43795837,10061,0.343262,-0.175537,-0.938232,517
43805779,9942,0.345703,-0.175659,-0.939575,518
43815788,10009,0.350220,-0.175659,-0.939331,515
43825773,9985,0.353516,-0.174194,-0.937256,517
43835791,10018,0.354614,-0.173828,-0.934448,512
43845777,9986,0.352661,-0.175537,-0.935547,514
43855776,9999,0.349121,-0.177124,-0.937622,518
43865785,10009,0.348145,-0.177490,-0.937622,520
43875794,10009,0.344971,-0.176758,-0.939087,512
43885783,9989,0.343140,-0.174683,-0.931519,512
43895792,10009,0.344849,-0.175415,-0.930786,515
43905784,9992,0.347534,-0.175903,-0.932373,511
43915806,10022,0.351440,-0.175537,-0.933594,514
43925781,9975,0.352539,-0.175171,-0.932983,515
43935798,10017,0.352417,-0.173828,-0.932739,515
43945791,9993,0.349243,-0.177734,-0.935425,517
43955774,9983,0.348145,-0.182739,-0.938721,509
43965796,10022,0.347168,-0.184814,-0.942993,511
43975782,9986,0.345337,-0.182129,-0.944824,515
43985789,10007,0.342651,-0.175659,-0.941895,513
43995780,9991,0.345947,-0.173828,-0.937500,514
44005794,10014,0.348877,-0.175781,-0.937378,515
44015771,9977,0.349854,-0.177979,-0.936035,507
44025793,10022,0.352295,-0.179321,-0.932007,509
44035783,9990,0.353760,-0.175903,-0.936035,509
44045770,9987,0.354858,-0.169800,-0.931763,513
44055785,10015,0.352539,-0.174072,-0.939453,519
44065783,9998,0.347534,-0.165161,-0.933960,511
44075774,9991,0.349487,-0.164185,-0.929443,514
44085790,10016,0.353638,-0.164673,-0.930542,514
44095775,9985,0.351929,-0.168213,-0.931885,519
44105780,10005,0.352417,-0.172852,-0.938965,511
44115772,9992,0.349609,-0.169922,-0.937134,510
44125793,10021,0.346924,-0.168701,-0.930420,515
44135795,10002,0.345581,-0.168945,-0.927612,512
44145817,10022,0.345703,-0.172363,-0.931274,516
44155794,9977,0.350708,-0.179321,-0.940796,515
44165775,9981,0.351563,-0.175659,-0.936523,520
44175796,10021,0.349854,-0.176514,-0.932739,516
44185798,10002,0.349243,-0.176025,-0.932373,515
44195772,9974,0.348999,-0.176880,-0.935791,508
44205773,10001,0.347046,-0.182495,-0.945190,515
44215789,10016,0.345459,-0.179687,-0.941406,513
44225789,10000,0.344727,-0.177490,-0.937134,514
44235773,9984,0.345215,-0.171875,-0.934448,507
44245790,10017,0.348511,-0.166870,-0.933472,512
44255787,9997,0.353027,-0.165405,-0.933838,511
44265825,10038,0.355469,-0.167480,-0.935425,511
44275788,9963,0.355591,-0.167480,-0.933350,506
44285789,10001,0.354248,-0.168335,-0.931030,511
44295779,9990,0.352295,-0.169678,-0.930298,509
44305782,10003,0.349243,-0.170776,-0.933472,512
44315789,10007,0.346313,-0.170898,-0.940063,514
44325793,10004,0.345825,-0.169800,-0.936035,511
44335776,9983,0.344971,-0.170532,-0.934814,513
44345774,9998,0.347412,-0.173218,-0.937744,506
44355796,10022,0.348755,-0.176880,-0.938354,512
44365781,9985,0.350220,-0.177124,-0.937012,508
44375778,9997,0.349854,-0.176147,-0.936035,513
44385820,10042,0.351196,-0.176636,-0.936523,509
44395796,9976,0.351685,-0.174438,-0.937866,512
44405776,9980,0.351807,-0.175537,-0.937378,511
44415796,10020,0.352173,-0.175659,-0.935181,507
44425795,9999,0.348389,-0.176758,-0.935059,514
44435775,9980,0.348022,-0.176514,-0.936035,513
44445776,10001,0.346924,-0.174927,-0.934448,506
44455792,10016,0.348267,-0.173462,-0.933105,515
44465792,10000,0.348877,-0.173462,-0.931763,512
44475790,9998,0.352051,-0.171753,-0.932739,515
44485787,9997,0.353149,-0.169556,-0.932739,515
44495790,10003,0.353394,-0.169189,-0.932495,517
44505820,10030,0.352783,-0.171143,-0.936157,517
44515773,9953,0.351685,-0.171875,-0.938843,519
44525798,10025,0.346924,-0.172241,-0.940918,513
44535772,9974,0.344849,-0.171021,-0.937500,521
44545787,10015,0.347168,-0.170410,-0.938843,516
44555785,9998,0.349365,-0.173218,-0.940552,523
44565779,9994,0.348511,-0.170776,-0.938599,512
44575887,10108,0.352051,-0.173340,-0.907471,519
44585771,9884,0.353149,-0.175171,-0.936401,513
44595799,10028,0.353149,-0.178101,-0.936890,519
44605786,9987,0.350586,-0.176514,-0.934570,511
44615788,10002,0.348389,-0.176025,-0.934814,516
44625803,10015,0.347900,-0.177979,-0.936157,517
44635779,9976,0.347168,-0.175049,-0.938599,513
44645783,10004,0.349121,-0.173828,-0.936279,517
44655797,10014,0.350220,-0.171997,-0.933960,516
44665785,9988,0.351196,-0.175171,-0.933228,515
44675778,9993,0.352051,-0.175049,-0.933105,514
44685783,10005,0.354004,-0.172363,-0.930908,513
44695788,10005,0.354248,-0.169434,-0.929077,512
44705796,10008,0.353760,-0.168213,-0.929810,512
44715771,9975,0.351807,-0.169678,-0.931152,507
44725785,10014,0.352905,-0.172974,-0.932495,509
44735772,9987,0.351440,-0.173706,-0.934326,513
44745778,10006,0.348999,-0.173340,-0.937500,514
44755797,10019,0.347778,-0.171387,-0.938599,506
44765773,9976,0.346680,-0.170044,-0.939697,511
44775792,10019,0.345825,-0.168945,-0.941284,513
44785775,9983,0.346313,-0.169312,-0.941040,513
44795793,10018,0.348145,-0.171021,-0.940918,514
44805789,9996,0.349609,-0.171021,-0.937866,515
44815796,10007,0.351563,-0.171509,-0.934814,517
44825770,9974,0.352417,-0.171631,-0.932129,514
44835795,10025,0.352661,-0.172363,-0.932251,512
44845780,9985,0.351807,-0.172607,-0.933228,514
44855773,9993,0.349854,-0.173340,-0.931030,514
44865832,10059,0.350220,-0.173462,-0.932373,512
44875777,9945,0.350098,-0.173462,-0.932983,512
44885791,10014,0.349976,-0.174316,-0.932739,514
44895788,9997,0.351440,-0.175537,-0.935913,514
44905791,10003,0.349365,-0.173950,-0.939331,508
44915778,9987,0.348877,-0.173218,-0.938110,506
44925779,10001,0.348022,-0.172852,-0.937256,512
44935792,10013,0.348511,-0.173462,-0.937744,513
44945782,9990,0.348511,-0.171631,-0.937744,510
44955778,9996,0.351196,-0.173096,-0.933594,512
44965773,9995,0.350342,-0.175537,-0.934448,509
44975775,10002,0.351318,-0.175537,-0.934692,507
44985780,10005,0.351685,-0.175903,-0.936157,511
44995802,10022,0.351074,-0.176514,-0.936279,511
45005780,9978,0.349487,-0.173462,-0.937866,511
45015787,10007,0.351807,-0.177490,-0.941650,511
45025781,9994,0.347534,-0.175415,-0.937988,508
45035773,9992,0.349487,-0.178223,-0.942139,508
45045777,10004,0.346680,-0.176147,-0.937744,507
45055797,10020,0.346802,-0.175049,-0.933228,512
45065780,9983,0.348999,-0.180298,-0.930786,515
45075773,9993,0.351563,-0.184082,-0.936401,506
45085785,10012,0.351196,-0.185913,-0.938721,512
45095791,10006,0.348267,-0.184448,-0.936646,513
45105795,10004,0.345215,-0.180786,-0.930664,512
45115777,9982,0.349121,-0.178711,-0.932129,505
45125798,10021,0.352417,-0.178223,-0.940308,511
45135774,9976,0.351807,-0.173828,-0.945068,512
45145785,10011,0.348877,-0.166382,-0.942017,511
45155791,10006,0.341431,-0.165039,-0.935547,510
45165773,9982,0.337769,-0.166992,-0.924438,511
45175780,10007,0.340942,-0.167847,-0.927124,511
45185770,9990,0.351074,-0.171387,-0.930786,506
45195799,10029,0.358887,-0.174561,-0.933594,511
45205787,9988,0.364258,-0.177002,-0.932129,511
45215779,9992,0.365356,-0.177124,-0.932617,512
45225770,9991,0.353149,-0.181152,-0.947754,512
45235832,10062,0.343384,-0.182861,-0.956055,510
45245781,9949,0.336060,-0.182129,-0.959106,514
45255777,9996,0.329102,-0.178467,-0.957275,516
45265798,10021,0.329712,-0.178955,-0.953491,522
45275798,10000,0.342773,-0.179199,-0.934937,522
45285795,9997,0.352173,-0.180542,-0.924805,520
45295795,10000,0.359131,-0.182251,-0.921265,520
45305777,9982,0.362793,-0.180054,-0.917603,517
45315796,10019,0.365601,-0.176270,-0.916504,516
45325780,9984,0.363770,-0.169922,-0.920044,515
45335779,9999,0.353882,-0.167236,-0.925781,516
45345778,9999,0.348145,-0.166992,-0.932495,516
45355805,10027,0.343262,-0.168579,-0.940796,512
45365795,9990,0.341675,-0.172729,-0.948364,516
45375771,9976,0.342041,-0.178589,-0.950562,516
45385785,10014,0.345337,-0.175171,-0.942261,517
45395792,10007,0.347168,-0.173950,-0.940308,517
45405777,9985,0.349609,-0.176270,-0.940674,516
45415794,10017,0.350342,-0.176025,-0.938110,515
45425771,9977,0.352051,-0.175049,-0.934326,509
45435794,10023,0.352661,-0.179321,-0.930542,514
45445776,9982,0.353149,-0.182373,-0.931274,513
45455786,10010,0.353271,-0.179077,-0.936523,516
45465774,9988,0.350952,-0.175049,-0.937500,512
45475841,10067,0.349854,-0.169067,-0.937866,510
45485798,9957,0.345947,-0.165527,-0.937866,510
45495784,9986,0.340332,-0.163696,-0.937500,515
45505788,10004,0.340820,-0.164307,-0.937134,514
45515773,9985,0.342651,-0.164795,-0.936890,515
45525770,9997,0.346313,-0.165894,-0.933105,514
45535799,10029,0.351074,-0.165771,-0.930786,515
45545791,9992,0.356079,-0.164551,-0.926025,514
45555778,9987,0.358154,-0.168335,-0.927612,509
45565771,9993,0.358276,-0.171387,-0.933716,514
45579067,13296,0.352661,-0.170776,-0.938721,514
45585779,6712,0.000000,0.000000,0.000000,514
45595793,10014,0.348022,-0.172363,-0.938477,510
45605771,9978,0.346436,-0.174927,-0.942261,506
45615799,10028,0.348267,-0.177002,-0.945068,512
45625786,9987,0.348267,-0.178345,-0.942871,513
45635782,9996,0.349121,-0.179443,-0.939941,512
45645785,10003,0.349487,-0.181641,-0.931763,508
45655787,10002,0.349243,-0.176270,-0.931396,506
45665772,9985,0.354492,-0.184204,-0.939575,513
45675773,10001,0.350098,-0.174927,-0.932251,512
45685795,10022,0.356445,-0.171021,-0.940796,506
45695787,9992,0.351196,-0.160400,-0.931030,511
45705826,10039,0.354004,-0.156616,-0.925659,507
45715787,9961,0.353271,-0.163818,-0.930176,513
45725793,10006,0.356689,-0.171021,-0.939209,509
45735777,9984,0.356445,-0.174438,-0.942261,509
45745778,10001,0.350708,-0.170288,-0.937866,509
45755778,10000,0.345581,-0.161011,-0.930420,505
45765774,9996,0.346191,-0.162598,-0.934448,512
45775798,10024,0.349854,-0.172241,-0.943115,504
45785797,9999,0.350586,-0.179565,-0.948120,513
45795785,9988,0.347412,-0.178345,-0.942749,514
45805778,9993,0.347290,-0.177246,-0.934326,511
45815783,10005,0.348022,-0.175415,-0.935303,513
45825828,10045,0.349121,-0.176025,-0.941284,507
45835773,9945,0.350586,-0.177856,-0.946045,512
45845791,10018,0.350586,-0.180176,-0.943359,511
45855787,9996,0.346069,-0.178101,-0.936646,507
45865783,9996,0.345825,-0.171997,-0.927856,508
45875771,9988,0.349731,-0.171997,-0.930054,507
45885783,10012,0.354492,-0.174683,-0.932007,511
45895799,10016,0.356812,-0.176147,-0.933838,506
45905786,9987,0.358765,-0.176514,-0.929565,507
45915770,9984,0.356934,-0.176270,-0.926270,507
45925772,10002,0.354736,-0.174194,-0.928223,510
45935822,10050,0.352661,-0.172485,-0.933472,507
45945800,9978,0.350220,-0.171387,-0.937500,512
45955786,9986,0.349609,-0.171875,-0.938843,506
45965792,10006,0.348999,-0.174927,-0.937012,506
45975797,10005,0.350220,-0.176636,-0.934937,510
45985781,9984,0.352661,-0.178833,-0.935181,512
45995789,10008,0.353638,-0.181152,-0.937134,516
46005775,9986,0.353394,-0.178955,-0.936890,515
46015794,10019,0.350952,-0.174194,-0.933472,510
46025797,10003,0.352783,-0.168945,-0.928955,516
46035787,9990,0.352783,-0.168701,-0.930420,519
46045786,9999,0.354370,-0.170044,-0.931396,513
46055774,9988,0.355957,-0.170410,-0.932617,517
46065787,10013,0.353149,-0.171875,-0.929199,517
46075795,10008,0.355591,-0.176636,-0.941650,517
46085792,9997,0.347534,-0.170776,-0.940186,511
46095794,10002,0.345581,-0.173828,-0.939697,518
46105780,9986,0.343994,-0.168945,-0.939697,517
46115792,10012,0.344360,-0.171509,-0.940186,509
46125778,9986,0.350464,-0.174805,-0.936523,515
46135796,10018,0.353027,-0.179810,-0.937256,511
46145785,9989,0.352783,-0.184570,-0.934570,514
46155780,9995,0.351196,-0.183716,-0.932861,508
46165801,10021,0.350586,-0.181519,-0.932861,515
46175783,9982,0.348755,-0.179321,-0.932861,512
46185799,10016,0.351318,-0.173096,-0.933594,511
46195774,9975,0.350342,-0.173584,-0.934937,507
46205773,9999,0.351440,-0.174316,-0.934204,513
46215775,10002,0.353027,-0.175415,-0.935059,511
46225786,10011,0.351563,-0.174561,-0.936401,505
46235780,9994,0.351318,-0.172852,-0.936646,506
46245781,10001,0.350464,-0.172119,-0.936157,513
46255796,10015,0.351440,-0.171387,-0.936523,509
46265785,9989,0.352417,-0.168823,-0.934570,512
46275786,10001,0.353027,-0.168701,-0.933594,513
46285792,10006,0.355835,-0.172974,-0.932739,506
46295795,10003,0.355469,-0.176392,-0.932495,510
46305798,10003,0.353516,-0.177612,-0.931763,513
46315789,9991,0.352173,-0.179443,-0.929932,512
46325776,9987,0.351685,-0.180176,-0.930542,514
46335789,10013,0.351074,-0.180054,-0.931152,515
46345775,9986,0.350220,-0.177856,-0.933350,515
46355771,9996,0.350708,-0.179077,-0.935791,515
46365795,10024,0.351318,-0.178467,-0.934692,512
46375785,9990,0.351563,-0.177612,-0.935059,516
46385793,10008,0.351685,-0.178711,-0.934937,513
46395796,10003,0.351929,-0.178345,-0.937622,513
46405770,9974,0.351440,-0.176270,-0.937256,513
46415781,10011,0.350952,-0.174194,-0.938354,511
46425794,10013,0.349609,-0.174561,-0.940063,511
46435783,9989,0.349121,-0.173584,-0.938599,507
46445787,10004,0.349121,-0.173340,-0.934448,506
46455790,10003,0.349487,-0.173096,-0.936401,507
46465783,9993,0.349365,-0.173340,-0.936523,506
46475780,9997,0.351807,-0.172241,-0.935303,513
46485798,10018,0.353027,-0.172485,-0.935059,510
46495786,9988,0.353882,-0.172974,-0.933838,511
46505785,9999,0.353638,-0.173584,-0.932251,509
46515816,10031,0.352661,-0.174316,-0.932129,507
46525770,9954,0.352661,-0.175171,-0.932861,512
46535782,10012,0.352173,-0.174438,-0.934204,505
46545798,10016,0.349731,-0.174561,-0.935425,508
46555774,9976,0.348755,-0.175659,-0.934570,510
46565776,10002,0.349976,-0.176758,-0.936646,505
46575778,10002,0.351074,-0.177856,-0.937256,512
46585793,10015,0.351196,-0.178223,-0.940063,509
46599922,14129,0.349609,-0.175537,-0.933960,507
46606246,6324,0.349609,-0.173584,-0.932617,512
46615787,9541,0.351807,-0.172241,-0.932861,506
46625776,9989,0.353271,-0.173706,-0.932495,508
46635803,10027,0.355957,-0.175659,-0.932251,515
46645778,9975,0.355957,-0.176514,-0.930054,503
46655795,10017,0.354736,-0.176147,-0.927124,509
46665789,9994,0.353271,-0.177002,-0.931152,510
46675798,10009,0.351563,-0.177490,-0.933472,508
46685792,9994,0.349976,-0.175171,-0.936035,511
46695798,10006,0.349976,-0.173828,-0.938232,510
46705792,9994,0.348511,-0.172485,-0.938354,508
46715775,9983,0.349487,-0.176270,-0.939575,514
46725790,10015,0.349121,-0.177979,-0.940674,516
46735782,9992,0.350098,-0.178589,-0.939819,514
46745797,10015,0.349731,-0.177368,-0.938477,516
46755793,9996,0.351074,-0.177612,-0.937134,511
46765798,10005,0.350830,-0.175659,-0.933838,518
46775773,9975,0.351929,-0.176270,-0.931396,519
46785778,10005,0.352417,-0.176147,-0.928833,517
46795774,9996,0.353271,-0.177124,-0.928101,515
46805783,10009,0.352783,-0.177856,-0.930176,517
46815785,10002,0.353027,-0.179565,-0.932617,514
46825788,10003,0.348755,-0.174683,-0.935669,516
46835793,10005,0.347290,-0.172729,-0.936523,515
46845790,9997,0.348145,-0.172363,-0.937866,516
46855797,10007,0.349854,-0.172241,-0.936890,514
46865790,9993,0.352661,-0.172363,-0.939453,512
46875803,10013,0.353760,-0.173828,-0.937134,513
46885784,9981,0.352905,-0.176270,-0.935913,513
46895774,9990,0.352417,-0.177002,-0.933960,512
46905794,10020,0.351196,-0.176514,-0.933594,514
46915785,9991,0.351807,-0.177124,-0.933350,513
46925786,10001,0.351807,-0.176147,-0.931274,512
46935790,10004,0.351685,-0.175903,-0.929321,512
46945791,10001,0.352417,-0.176880,-0.929810,507
46955773,9982,0.352783,-0.177979,-0.931763,513
46965776,10003,0.352295,-0.178955,-0.933350,511
46975790,10014,0.352417,-0.179565,-0.933960,513
46985771,9981,0.350342,-0.177490,-0.936646,511
46995807,10036,0.349365,-0.172974,-0.936646,513
47005787,9980,0.350464,-0.172729,-0.935425,509
47015787,10000,0.351685,-0.171509,-0.934448,511
47025785,9998,0.353516,-0.171753,-0.933105,515
47035794,10009,0.354004,-0.173340,-0.933350,515
47045782,9988,0.352783,-0.171631,-0.933838,508
47055775,9993,0.351563,-0.171997,-0.934082,509
47065770,9995,0.349243,-0.171753,-0.934326,507
47075784,10014,0.349121,-0.174194,-0.934204,515
47085791,10007,0.350952,-0.177368,-0.936890,514
47095779,9988,0.353027,-0.178589,-0.937744,511
47105799,10020,0.352905,-0.178467,-0.937134,514
47115781,9982,0.353027,-0.177246,-0.936768,507
47125792,10011,0.352051,-0.175171,-0.933838,509
47135772,9980,0.352173,-0.176758,-0.933472,512
47145790,10018,0.351685,-0.177734,-0.936890,514
47155781,9991,0.352417,-0.177979,-0.934570,512
47165780,9999,0.350952,-0.177734,-0.932007,511
47175791,10011,0.350098,-0.178101,-0.930908,513
47185779,9988,0.349976,-0.176025,-0.930786,512
47195785,10006,0.351685,-0.173706,-0.936157,512
47205794,10009,0.351929,-0.171509,-0.935791,511
47215789,9995,0.353149,-0.171387,-0.935547,509
47225790,10001,0.351929,-0.172729,-0.934814,505
47235810,10020,0.352661,-0.173950,-0.934448,512
47245814,10004,0.352539,-0.179077,-0.936279,511
47255784,9970,0.352905,-0.182129,-0.936768,510
47265771,9987,0.352539,-0.180298,-0.933594,505
47275771,10000,0.350830,-0.180908,-0.929810,511
47285770,9999,0.351440,-0.183838,-0.930054,512
47295781,10011,0.352905,-0.186401,-0.930054,509
47305788,10007,0.353882,-0.179687,-0.935547,506
47315777,9989,0.352417,-0.178345,-0.935669,511
47325790,10013,0.350464,-0.177124,-0.935669,510
47335796,10006,0.348755,-0.173950,-0.934448,512
47345788,9992,0.348877,-0.173462,-0.934692,511
47355803,10015,0.351685,-0.173584,-0.937866,511
47365800,9997,0.352051,-0.172119,-0.935791,509
47375793,9993,0.353516,-0.171753,-0.932129,508
47385782,9989,0.352173,-0.171265,-0.929932,511
47395783,10001,0.352051,-0.171387,-0.929932,510
47405780,9997,0.351685,-0.171753,-0.934326,506
47415780,10000,0.352173,-0.173218,-0.934814,507
47425797,10017,0.350342,-0.175293,-0.937256,506
47435795,9998,0.350342,-0.177856,-0.935669,509
47445782,9987,0.349487,-0.181030,-0.937012,513
47455773,9991,0.348511,-0.183228,-0.937866,514
47465771,9998,0.348145,-0.186401,-0.939331,509
47475800,10029,0.348877,-0.184937,-0.937744,517
47485776,9976,0.349243,-0.181152,-0.934570,515
47495793,10017,0.348877,-0.178467,-0.932739,517
47505791,9998,0.351196,-0.176636,-0.931030,516
47515792,10001,0.353638,-0.177612,-0.931396,517
47525770,9978,0.353638,-0.180786,-0.933716,517
47535792,10022,0.351929,-0.179077,-0.935547,518
47545777,9985,0.350220,-0.177124,-0.937256,516
47555773,9996,0.345947,-0.175537,-0.938110,516
47565780,10007,0.345703,-0.171997,-0.939819,515
47575779,9999,0.348145,-0.173584,-0.940430,508
47585780,10001,0.349121,-0.175781,-0.941650,512
47595785,10005,0.351685,-0.176514,-0.937378,515
47605779,9994,0.352539,-0.178101,-0.933105,514
47615778,9999,0.351685,-0.178589,-0.929810,509
47625785,10007,0.353394,-0.181519,-0.933472,515
47635772,9987,0.354126,-0.181396,-0.933472,513
47645789,10017,0.352051,-0.178833,-0.933228,512
47655775,9986,0.351563,-0.178589,-0.930908,507
47665775,10000,0.351929,-0.177368,-0.931030,509
47675779,10004,0.350586,-0.177246,-0.935303,507
47685790,10011,0.352051,-0.177612,-0.936768,506
47695799,10009,0.351196,-0.178101,-0.936768,513
47705785,9986,0.351074,-0.175903,-0.936523,513
47715771,9986,0.350586,-0.174805,-0.936035,510
47725793,10022,0.350464,-0.174683,-0.934082,508
47735790,9997,0.350342,-0.176758,-0.935547,506
47745789,9999,0.351685,-0.176758,-0.934692,513
47755781,9992,0.352295,-0.178101,-0.934082,512
47765776,9995,0.352417,-0.177490,-0.932129,515
47775782,10006,0.353271,-0.177002,-0.931396,515
47785770,9988,0.352539,-0.176147,-0.933472,514
47795771,10001,0.351074,-0.177124,-0.936279,514
47805776,10005,0.349731,-0.177979,-0.935913,515
47815796,10020,0.349976,-0.177856,-0.936890,514
47825797,10001,0.348389,-0.175659,-0.936157,511
47835786,9989,0.351440,-0.175415,-0.937256,512
47845776,9990,0.352539,-0.175293,-0.938354,509
47855783,10007,0.353149,-0.174072,-0.936279,515
47865781,9998,0.353760,-0.174316,-0.933105,508
47875793,10012,0.352295,-0.173950,-0.932983,514
47885789,9996,0.351563,-0.178223,-0.933105,506
47895789,10000,0.351685,-0.178467,-0.932861,509
47905781,9992,0.351196,-0.177612,-0.933228,514
47915792,10011,0.351929,-0.177734,-0.932617,511
47925773,9981,0.351685,-0.177368,-0.931396,511
47935796,10023,0.352173,-0.176392,-0.931763,510
47945775,9979,0.352539,-0.175903,-0.936768,512
47955792,10017,0.353149,-0.176636,-0.935913,513
47965792,10000,0.350342,-0.175049,-0.934448,511
47975811,10019,0.351807,-0.177002,-0.933838,509
47985773,9962,0.352051,-0.178711,-0.934814,507
47995791,10018,0.351440,-0.178223,-0.937256,511
48005783,9992,0.351563,-0.177490,-0.937866,512
48015794,10011,0.351074,-0.176270,-0.936646,509
48025790,9996,0.352051,-0.175903,-0.932251,513
48035797,10007,0.353516,-0.174316,-0.931030,512
48045798,10001,0.355225,-0.176880,-0.932983,506
48055790,9992,0.356689,-0.178589,-0.929687,512
48065796,10006,0.354980,-0.177124,-0.927856,504
48075782,9986,0.353271,-0.175659,-0.929321,511
48085770,9988,0.352661,-0.175293,-0.930420,512
48095815,10045,0.353149,-0.174805,-0.932007,504
48105783,9968,0.351807,-0.174561,-0.936523,508
48115783,10000,0.352173,-0.176147,-0.937378,507
48125771,9988,0.350830,-0.176880,-0.938477,514
48135772,10001,0.350342,-0.176880,-0.938232,513
48145772,10000,0.351196,-0.175049,-0.938599,511
48155781,10009,0.350830,-0.173828,-0.936523,521
48165792,10011,0.353394,-0.177490,-0.936890,517
48175791,9999,0.353149,-0.179810,-0.936768,517
48185774,9983,0.351685,-0.180298,-0.932983,520
48195794,10020,0.350708,-0.178589,-0.929810,518
48205773,9979,0.352417,-0.182007,-0.928833,517
48215787,10014,0.355225,-0.182373,-0.932617,513
48225799,10012,0.355835,-0.180176,-0.933228,516
48235812,10013,0.353516,-0.175537,-0.931274,516
48245781,9969,0.352539,-0.173340,-0.929932,511
48255791,10010,0.352173,-0.171753,-0.930542,515
48265785,9994,0.353760,-0.175781,-0.938110,514
48275796,10011,0.354004,-0.176636,-0.939453,512
48285773,9977,0.353271,-0.177368,-0.938599,512
48295798,10025,0.352783,-0.176758,-0.936157,513
48305775,9977,0.351196,-0.175049,-0.934204,510
48315770,9995,0.351074,-0.171509,-0.936890,512
48325782,10012,0.353149,-0.171753,-0.937012,512
48335776,9994,0.353394,-0.172241,-0.932495,518
48345818,10042,0.353638,-0.174072,-0.930298,506
48355771,9953,0.354614,-0.177002,-0.928833,512
48365795,10024,0.354126,-0.180298,-0.931396,513
48375785,9990,0.354126,-0.180908,-0.933228,505
48385794,10009,0.354248,-0.178711,-0.933594,515
48395782,9988,0.352417,-0.176392,-0.936035,507
48405793,10011,0.352173,-0.174561,-0.935059,511
48415771,9978,0.351563,-0.173096,-0.934814,511
48425785,10014,0.350952,-0.174805,-0.936768,508
48435793,10008,0.351074,-0.175781,-0.938843,516
48445794,10001,0.351685,-0.177002,-0.937744,512
48455791,9997,0.350586,-0.174683,-0.936646,514
48465783,9992,0.351563,-0.173096,-0.933594,507
48475812,10029,0.351563,-0.176025,-0.932251,513
48485774,9962,0.353027,-0.176270,-0.933594,513
48495773,9999,0.352539,-0.176025,-0.933594,507
48505783,10010,0.353149,-0.177124,-0.933228,511
48515791,10008,0.352295,-0.177979,-0.932495,512
48525776,9985,0.351685,-0.178223,-0.934326,510
48535777,10001,0.352661,-0.177002,-0.934692,512
48545780,10003,0.352173,-0.177002,-0.935547,506
48555771,9991,0.352173,-0.176392,-0.936157,515
48565787,10016,0.353027,-0.175415,-0.933594,515
48575774,9987,0.352295,-0.175171,-0.933960,512
48585774,10000,0.354370,-0.177979,-0.937622,504
48595784,10010,0.354004,-0.177002,-0.937378,512
48608976,13192,0.351318,-0.174194,-0.933228,512
48615787,6811,0.350708,-0.175049,-0.930298,512
48625771,9984,0.351929,-0.176636,-0.932739,512
48635781,10010,0.352783,-0.177246,-0.935425,512
48645798,10017,0.351563,-0.176514,-0.933105,505
48655792,9994,0.352051,-0.177856,-0.932739,512
48665785,9993,0.353882,-0.178223,-0.932129,512
48675773,9988,0.356079,-0.179443,-0.935791,512
48685771,9998,0.355347,-0.178833,-0.936279,510
48695774,10003,0.352295,-0.174072,-0.932495,510
48705771,9997,0.351685,-0.173950,-0.929565,512
48715790,10019,0.354004,-0.175171,-0.930786,511
48725802,10012,0.357056,-0.179932,-0.933960,508
48735814,10012,0.359131,-0.179077,-0.931152,511
48745774,9960,0.354858,-0.175537,-0.928101,512
48755774,10000,0.352661,-0.175537,-0.929321,510
48765771,9997,0.352295,-0.176880,-0.931885,505
48775782,10011,0.350098,-0.175903,-0.933594,508
48785777,9995,0.351318,-0.178589,-0.934937,507
48795774,9997,0.350586,-0.178955,-0.937256,511
48805790,10016,0.350464,-0.176392,-0.937744,512
48815775,9985,0.349976,-0.174927,-0.936401,513
48825800,10025,0.349854,-0.175171,-0.936157,508
48835776,9976,0.351563,-0.177002,-0.937622,514
48845822,10046,0.351807,-0.177368,-0.907837,518
48855797,9975,0.352905,-0.175537,-0.933228,519
48865800,10003,0.353271,-0.174805,-0.932007,516
48875771,9971,0.351807,-0.176392,-0.930420,520
48885777,10006,0.353638,-0.177246,-0.930908,518
48895794,10017,0.354126,-0.177734,-0.931519,519
48905789,9995,0.355591,-0.178467,-0.933228,517
48915791,10002,0.354492,-0.176270,-0.932007,515
48925779,9988,0.352173,-0.173706,-0.933228,514
48935776,9997,0.348389,-0.172974,-0.934692,517
48945785,10009,0.349854,-0.174805,-0.936646,509
48955798,10013,0.352051,-0.177368,-0.937988,514
48965786,9988,0.352051,-0.177979,-0.934082,515
48975786,10000,0.353760,-0.179321,-0.934692,515
48985786,10000,0.354736,-0.178467,-0.934692,515
48995793,10007,0.353027,-0.176514,-0.932983,515
49005791,9998,0.352295,-0.175903,-0.931152,509
49015776,9985,0.354004,-0.178101,-0.933105,506
49025799,10023,0.355347,-0.177734,-0.933350,513
49035790,9991,0.354248,-0.177368,-0.933472,513
49045787,9997,0.352295,-0.175903,-0.930298,512
49055771,9984,0.351685,-0.178833,-0.933472,511
49065784,10013,0.353271,-0.177124,-0.938477,512
49075782,9998,0.351318,-0.174438,-0.941406,515
49085772,9990,0.349609,-0.173462,-0.939331,513
49095773,10001,0.349243,-0.173218,-0.934937,510
49105809,10036,0.351196,-0.174316,-0.930908,516
49115786,9977,0.353638,-0.178955,-0.935547,515
49125797,10011,0.352905,-0.178345,-0.935425,516
49135770,9973,0.354004,-0.176758,-0.931885,512
49145771,10001,0.353760,-0.173584,-0.927246,513
49155791,10020,0.355225,-0.172974,-0.926270,512
49165790,9999,0.355591,-0.174438,-0.928223,514
49175780,9990,0.354004,-0.179810,-0.937134,513
49185773,9993,0.353760,-0.179687,-0.935669,513
49195798,10025,0.351196,-0.177002,-0.933838,512
49205779,9981,0.349609,-0.175171,-0.933716,512
