t_us,dt_us,ax,ay,az,ppg
19839086,10022,-0.359253,0.691040,0.593994,518
19849082,9996,-0.359497,0.696411,0.592407,527
19859066,9984,-0.356079,0.699463,0.591187,532
19869085,10019,-0.352783,0.698242,0.590576,538
19879082,9997,-0.349854,0.696411,0.589355,545
19889078,9996,-0.346802,0.694336,0.587524,548
19899087,10009,-0.343994,0.694336,0.586426,548
19909082,9995,-0.337402,0.692383,0.589111,551
19919068,9986,-0.335693,0.689087,0.590088,558
19929078,10010,-0.334473,0.683960,0.593262,551
19939075,9997,-0.334839,0.680786,0.595703,548
19949065,9990,-0.337158,0.676147,0.598755,556
19959118,10053,-0.344482,0.673950,0.592529,553
19969091,9973,-0.348999,0.673950,0.589233,552
19979079,9988,-0.352905,0.673950,0.589966,551
19989086,10007,-0.353638,0.676025,0.590210,540
19999073,9987,-0.352783,0.675049,0.587891,541
20009091,10018,-0.352417,0.679810,0.586182,532
20019085,9994,-0.358032,0.684082,0.584839,531
20029071,9986,-0.362061,0.688843,0.583862,528
20039082,10011,-0.367920,0.691284,0.582275,528
20049075,9993,-0.371094,0.688477,0.583252,526
20059078,10003,-0.371948,0.688599,0.584229,525
20069093,10015,-0.375366,0.695068,0.582397,526
20079093,10000,-0.377197,0.698242,0.583740,518
20089064,9971,-0.376343,0.699463,0.586426,524
20099092,10028,-0.378174,0.700928,0.589355,523
20109074,9982,-0.380127,0.703613,0.590698,523
20119065,9991,-0.380005,0.710693,0.594849,524
20129077,10012,-0.376221,0.715210,0.595215,524
20139071,9994,-0.375854,0.716797,0.594727,521
20149080,10009,-0.373535,0.719482,0.593750,524
20159093,10013,-0.368652,0.719482,0.591919,524
20169071,9978,-0.364624,0.715942,0.591309,516
20179092,10021,-0.351929,0.703125,0.591553,519
20189068,9976,-0.346802,0.697388,0.590210,513
20199074,10006,-0.345215,0.690674,0.587769,523
20209082,10008,-0.348389,0.684570,0.585449,527
20219084,10002,-0.351685,0.678467,0.582153,528
20229075,9991,-0.348755,0.670898,0.578857,531
20239073,9998,-0.347046,0.668823,0.578003,521
20249082,10009,-0.346924,0.671021,0.577637,526
20259073,9991,-0.347534,0.676758,0.578613,524
20269067,9994,-0.347778,0.680908,0.583252,521
20279076,10009,-0.346436,0.683838,0.586060,522
20289079,10003,-0.344482,0.687622,0.586426,518
20299075,9996,-0.343384,0.685059,0.586914,520
20309067,9992,-0.342407,0.681885,0.588135,521
20319086,10019,-0.341675,0.681030,0.590088,516
20329094,10008,-0.345337,0.680420,0.588745,508
20339091,9997,-0.352173,0.675659,0.592285,517
20349083,9992,-0.351074,0.673706,0.593140,512
20359111,10028,-0.351440,0.672974,0.593994,510
20369076,9965,-0.354004,0.675415,0.592285,512
20379067,9991,-0.354248,0.677856,0.595215,512
20389081,10014,-0.354858,0.679810,0.597900,524
20399073,9992,-0.352905,0.682861,0.596191,523
20409092,10019,-0.354980,0.683105,0.593628,532
20419076,9984,-0.358765,0.683105,0.588257,539
20430250,11174,-0.360352,0.681396,0.585693,543
20439916,9666,-0.359131,0.680054,0.586426,548
20449085,9169,0.000000,0.000000,0.000000,543
20459079,9994,-0.361450,0.678589,0.583008,556
20469082,10003,-0.361206,0.682861,0.582764,552
20479067,9985,-0.362183,0.683960,0.582886,554
20489066,9999,-0.365601,0.684937,0.582886,566
20499092,10026,-0.369995,0.690796,0.579712,567
20509084,9992,-0.372314,0.692261,0.578125,569
20519066,9982,-0.373535,0.694824,0.577393,568
20529074,10008,-0.371582,0.696167,0.576904,564
20539071,9997,-0.369751,0.695923,0.578491,555
20549079,10008,-0.367188,0.696167,0.579712,559
20559066,9987,-0.362305,0.701538,0.582520,551
20569078,10012,-0.359131,0.701416,0.584595,556
20579064,9986,-0.357178,0.699951,0.585449,541
20589092,10028,-0.360107,0.697266,0.585937,547
20599084,9992,-0.363647,0.692871,0.586914,546
20609081,9997,-0.368042,0.693848,0.585571,541
20619085,10004,-0.366821,0.691650,0.586060,540
20629079,9994,-0.365601,0.689697,0.585693,538
20639076,9997,-0.364258,0.687134,0.587402,539
20649102,10026,-0.364136,0.687134,0.587402,537
20659072,9970,-0.362549,0.688232,0.588135,536
20669076,10004,-0.364990,0.690552,0.586792,526
20679079,10003,-0.366089,0.692017,0.585693,534
20689092,10013,-0.365845,0.695312,0.584961,523
20699083,9991,-0.363892,0.696899,0.584717,531
20709075,9992,-0.363281,0.699707,0.583496,528
20719081,10006,-0.361328,0.694580,0.584351,532
20729065,9984,-0.358643,0.691528,0.585449,524
20739086,10021,-0.359375,0.688477,0.587280,528
20749081,9995,-0.361206,0.685913,0.586426,534
20759082,10001,-0.363525,0.685303,0.584229,538
20769064,9982,-0.365479,0.686035,0.581421,535
20779072,10008,-0.360229,0.691406,0.581177,529
20789069,9997,-0.355469,0.694702,0.581787,535
20799079,10010,-0.352417,0.697144,0.583008,532
20809071,9992,-0.349731,0.697388,0.583008,529
20819080,10009,-0.350098,0.696289,0.583130,532
20829075,9995,-0.351074,0.690674,0.585693,530
20839064,9989,-0.354370,0.686401,0.586914,527
20849090,10026,-0.359985,0.684448,0.586670,525
20859082,9992,-0.363403,0.683472,0.586426,529
20869077,9995,-0.365112,0.685913,0.584961,520
20879065,9988,-0.362427,0.687378,0.586182,525
20889068,10003,-0.360107,0.690552,0.589233,527
20899077,10009,-0.359619,0.692871,0.588745,524
20909072,9995,-0.359619,0.696533,0.588623,522
20919077,10005,-0.358398,0.697510,0.591064,516
20929077,10000,-0.356812,0.699097,0.592163,514
20939064,9987,-0.356934,0.697021,0.591064,523
20949065,10001,-0.356201,0.696167,0.591675,520
20959087,10022,-0.355469,0.695312,0.589478,519
20969069,9982,-0.355713,0.695190,0.585327,511
20979073,10004,-0.355713,0.694214,0.584473,519
20989092,10019,-0.356079,0.692139,0.583862,515
20999084,9992,-0.354980,0.688110,0.584106,517
21009072,9988,-0.355103,0.687256,0.582397,520
21019074,10002,-0.356445,0.685059,0.580322,518
21029105,10031,-0.356445,0.684082,0.580078,512
21039092,9987,-0.355713,0.686646,0.582520,523
21049072,9980,-0.353516,0.692017,0.586670,524
21059073,10001,-0.353516,0.695557,0.589478,530
21069085,10012,-0.353760,0.697754,0.589722,534
21079069,9984,-0.353271,0.698486,0.590942,540
21089077,10008,-0.354370,0.696289,0.588745,546
21099079,10002,-0.349854,0.695068,0.587769,549
21109116,10037,-0.348389,0.693481,0.590088,550
21119082,9966,-0.346680,0.693481,0.589233,559
21129086,10004,-0.346680,0.692139,0.587280,551
21139087,10001,-0.347290,0.690918,0.586182,561
21149067,9980,-0.347778,0.691772,0.587646,556
21159084,10017,-0.349731,0.692505,0.588501,561
21169092,10008,-0.348022,0.692627,0.587769,565
21179078,9986,-0.348267,0.692749,0.587280,566
21189084,10006,-0.348877,0.691895,0.587769,564
21199093,10009,-0.348755,0.691284,0.589355,558
21209087,9994,-0.351563,0.685181,0.589355,559
21219066,9979,-0.353027,0.686279,0.589478,554
21229077,10011,-0.352417,0.685913,0.590210,550
21239076,9999,-0.353271,0.688110,0.589233,538
21249087,10011,-0.354980,0.690674,0.587769,543
21259068,9981,-0.354248,0.693481,0.588867,538
21269067,9999,-0.354858,0.698853,0.586182,536
21279075,10008,-0.353882,0.698486,0.585937,533
21289104,10029,-0.352783,0.697754,0.583984,529
21299065,9961,-0.352539,0.697266,0.582886,518
21309067,10002,-0.354492,0.696899,0.582886,528
21319082,10015,-0.355835,0.693848,0.578735,526
21329068,9986,-0.358154,0.692993,0.578491,528
21339076,10008,-0.358521,0.692261,0.578369,530
21349066,9990,-0.358521,0.692383,0.576172,528
21359091,10025,-0.360352,0.691406,0.577515,523
21369090,9999,-0.359985,0.691528,0.577515,523
21379085,9995,-0.356934,0.693115,0.577881,533
21389087,10002,-0.354858,0.696289,0.580322,532
21399080,9993,-0.354858,0.699707,0.580566,531
21409083,10003,-0.356445,0.701538,0.581543,531
21419092,10009,-0.356323,0.702759,0.582520,530
21429067,9975,-0.357056,0.699341,0.586914,521
21439064,9997,-0.358521,0.697021,0.588013,529
21449091,10027,-0.358887,0.693115,0.586670,529
21459113,10022,-0.355957,0.691650,0.586670,518
21469080,9967,-0.354980,0.690063,0.587646,528
21479067,9987,-0.355469,0.690918,0.591919,529
21489086,10019,-0.356445,0.692139,0.591064,524
21499075,9989,-0.355225,0.691406,0.592896,518
21509088,10013,-0.356079,0.692139,0.591431,518
21519064,9976,-0.356445,0.691772,0.591553,524
21529068,10004,-0.357178,0.691895,0.591675,522
21539071,10003,-0.359375,0.693848,0.591187,518
21549069,9998,-0.357910,0.696045,0.590332,510
21559091,10022,-0.356201,0.697876,0.589478,514
21569087,9996,-0.356201,0.700806,0.588989,509
21579082,9995,-0.356934,0.702881,0.588135,513
21589073,9991,-0.354492,0.698608,0.585571,512
21599089,10016,-0.354126,0.694214,0.583740,504
21609089,10000,-0.352783,0.689087,0.582275,512
21619086,9997,-0.353638,0.687500,0.579590,509
21629071,9985,-0.353149,0.688232,0.580200,512
21639080,10009,-0.354492,0.689697,0.579346,514
21649082,10002,-0.355835,0.695801,0.583008,514
21659083,10001,-0.355103,0.698120,0.582153,515
21669089,10006,-0.354736,0.697876,0.582886,516
21679070,9981,-0.357056,0.695679,0.580200,518
21689083,10013,-0.358398,0.692261,0.578247,519
21699066,9983,-0.358521,0.685303,0.572876,518
21709068,10002,-0.356934,0.684204,0.572021,516
21719075,10007,-0.355103,0.684937,0.570435,517
21729091,10016,-0.354736,0.687744,0.572021,517
21739068,9977,-0.353760,0.690796,0.573853,515
21749082,10014,-0.354980,0.696411,0.572144,516
21759074,9992,-0.357666,0.697632,0.574219,517
21769077,10003,-0.357300,0.697021,0.574951,509
21779092,10015,-0.357422,0.696899,0.577637,520
21789086,9994,-0.358887,0.696167,0.580078,525
21799071,9985,-0.359863,0.696045,0.581177,528
21809080,10009,-0.361206,0.700684,0.582764,527
21819088,10008,-0.361572,0.703735,0.586060,539
21829081,9993,-0.362793,0.699951,0.586060,539
21839090,10009,-0.362427,0.698120,0.585693,540
21849065,9975,-0.360718,0.698120,0.587524,552
21859083,10018,-0.361694,0.694580,0.588013,547
21869092,10009,-0.361938,0.691406,0.583496,556
21879080,9988,-0.360474,0.688354,0.582153,556
21889085,10005,-0.360229,0.689941,0.582764,555
21899074,9989,-0.359619,0.693970,0.581787,554
21909085,10011,-0.359497,0.698242,0.580933,550
21919069,9984,-0.359375,0.701172,0.583496,529
21929076,10007,-0.360596,0.700195,0.583374,547
21939106,10030,-0.363281,0.697144,0.582153,546
21949087,9981,-0.364868,0.692017,0.580322,542
21959091,10004,-0.364258,0.689453,0.578125,534
21969075,9984,-0.362305,0.688110,0.578125,532
21979079,10004,-0.361816,0.692261,0.577759,538
21989073,9994,-0.361084,0.694580,0.576660,537
21999091,10018,-0.360718,0.696289,0.576172,533
22009088,9997,-0.359741,0.697021,0.576416,534
22019086,9998,-0.361084,0.695435,0.575562,525
22029084,9998,-0.364624,0.692139,0.573242,531
22039074,9990,-0.364014,0.689331,0.572632,529
22049072,9998,-0.363525,0.689209,0.570923,529
22059089,10017,-0.364136,0.691895,0.570435,527
22069085,9996,-0.364258,0.695801,0.570068,528
22079093,10008,-0.364014,0.700073,0.571777,527
22089090,9997,-0.362305,0.698730,0.573486,527
22099079,9989,-0.362305,0.698853,0.574829,528
22109076,9997,-0.360840,0.697021,0.575806,529
22119082,10006,-0.360229,0.695557,0.577393,529
22129100,10018,-0.362793,0.696289,0.576660,528
22139081,9981,-0.365479,0.699585,0.575806,524
22149066,9985,-0.366455,0.703125,0.576660,524
22159076,10010,-0.365356,0.705200,0.577759,526
22169081,10005,-0.363892,0.704102,0.578857,523
22179092,10011,-0.363647,0.701660,0.578735,513
22189069,9977,-0.359009,0.693726,0.578491,521
22199089,10020,-0.358887,0.690552,0.578003,511
22209090,10001,-0.359497,0.688843,0.576050,520
22219067,9977,-0.361328,0.688232,0.575195,518
22229082,10015,-0.363403,0.688232,0.575439,517
22239068,9986,-0.367676,0.693848,0.575073,516
22249091,10023,-0.367798,0.697510,0.577393,514
22259078,9987,-0.367065,0.700195,0.578247,513
22269087,10009,-0.366455,0.700562,0.577148,506
22279078,9991,-0.364624,0.700317,0.578857,512
22289075,9997,-0.363892,0.700684,0.580200,511
22299079,10004,-0.365479,0.704102,0.584717,511
22309089,10010,-0.367065,0.706787,0.584595,502
22319100,10011,-0.369751,0.706177,0.583374,510
22329089,9989,-0.371704,0.704102,0.581665,511
22339084,9995,-0.369751,0.699707,0.578491,513
22349064,9980,-0.370605,0.687744,0.576172,509
22359064,10000,-0.367798,0.681274,0.574829,515
22369070,10006,-0.365356,0.677612,0.573853,514
22379085,10015,-0.362793,0.677734,0.572266,515
22389082,9997,-0.361328,0.681030,0.572510,506
22399099,10017,-0.362915,0.687256,0.571777,516
22409077,9978,-0.364014,0.698608,0.568115,507
22419078,10001,-0.362305,0.700684,0.570435,511
22429071,9993,-0.357056,0.701172,0.570923,511
22439071,10000,-0.353516,0.699707,0.571045,514
22449075,10004,-0.354248,0.696411,0.571899,512
22459065,9990,-0.359741,0.694458,0.571777,507
22469085,10020,-0.363647,0.694946,0.571655,514
22479075,9990,-0.364990,0.696289,0.572510,514
22489070,9995,-0.364746,0.699341,0.573486,509
22499078,10008,-0.361694,0.703247,0.575073,513
22509099,10021,-0.358765,0.705322,0.575684,511
22519071,9972,-0.353638,0.705688,0.577515,502
22529085,10014,-0.354126,0.704956,0.578613,511
22539067,9982,-0.356079,0.703125,0.580811,512
22549082,10015,-0.359497,0.702026,0.583862,515
22559085,10003,-0.363159,0.699219,0.584839,514
22569077,9992,-0.365723,0.694702,0.585205,525
22579066,9989,-0.366333,0.696167,0.586426,527
22589110,10044,-0.365356,0.695923,0.587036,540
22599079,9969,-0.363647,0.696533,0.586548,546
22609072,9993,-0.363037,0.698364,0.584839,550
22619093,10021,-0.361328,0.699829,0.583130,543
22629086,9993,-0.360840,0.701294,0.582642,559
22639075,9989,-0.359741,0.701538,0.581787,560
22649064,9989,-0.359009,0.701294,0.580933,551
22659089,10025,-0.358643,0.703247,0.576904,555
22669070,9981,-0.361084,0.704102,0.575928,548
22679076,10006,-0.356812,0.701050,0.575317,554
22689067,9991,-0.359009,0.698975,0.574951,540
22699083,10016,-0.359741,0.695068,0.574829,544
22709088,10005,-0.360352,0.692505,0.574219,547
22719065,9977,-0.362793,0.691162,0.574829,545
22729071,10006,-0.363281,0.689209,0.577271,546
22739074,10003,-0.363281,0.689453,0.578979,540
22749080,10006,-0.362305,0.690186,0.579590,536
22759068,9988,-0.361206,0.693237,0.580566,536
22769081,10013,-0.360840,0.695190,0.581543,533
22779064,9983,-0.358887,0.699219,0.581055,526
22789067,10003,-0.356201,0.702026,0.580933,528
22799064,9997,-0.356934,0.701782,0.581421,521
22809075,10011,-0.357788,0.700195,0.579468,517
22819066,9991,-0.356079,0.698730,0.578979,525
22829078,10012,-0.353149,0.697510,0.580200,512
22839087,10009,-0.352295,0.697998,0.578979,520
22849084,9997,-0.354370,0.699341,0.578613,521
22859087,10003,-0.357422,0.700073,0.576416,512
22869092,10005,-0.358032,0.699707,0.577026,520
22879109,10017,-0.356445,0.699585,0.577515,521
22889080,9971,-0.355957,0.698730,0.576538,522
22899076,9996,-0.354736,0.698242,0.578003,532
22909081,10005,-0.353638,0.700439,0.578491,523
22919066,9985,-0.354126,0.700806,0.578979,521
22929070,10004,-0.352173,0.701050,0.580444,515
22939072,10002,-0.353027,0.699585,0.581299,511
22949076,10004,-0.351807,0.698975,0.584229,512
22959092,10016,-0.350464,0.699585,0.584229,506
22969071,9979,-0.348877,0.699829,0.585083,513
22979084,10013,-0.347534,0.700806,0.586304,505
22989090,10006,-0.347656,0.703003,0.586060,512
22999087,9997,-0.348267,0.702026,0.586182,510
23009082,9995,-0.349609,0.699097,0.585083,509
23019064,9982,-0.351807,0.697510,0.583130,505
23029090,10026,-0.353760,0.695312,0.580933,505
23039087,9997,-0.355469,0.694580,0.579590,500
23049068,9981,-0.357666,0.695190,0.579224,502
23059088,10020,-0.359131,0.696655,0.576904,505
23069068,9980,-0.359619,0.697388,0.576172,498
23079089,10021,-0.358765,0.698364,0.575928,506
23089067,9978,-0.356689,0.699585,0.578857,500
23099068,10001,-0.355347,0.700684,0.579468,510
23109093,10025,-0.354248,0.698608,0.578613,503
23119091,9998,-0.355957,0.695435,0.578735,509
23129084,9993,-0.356079,0.693481,0.577393,502
23139089,10005,-0.357178,0.694214,0.579590,508
23149083,9994,-0.357544,0.694214,0.579590,507
23159079,9996,-0.358887,0.696167,0.578979,499
23169068,9989,-0.358032,0.699829,0.580444,503
23179070,10002,-0.356079,0.699829,0.582886,502
23189082,10012,-0.354736,0.699097,0.582764,504
23199087,10005,-0.354126,0.697266,0.582642,493
23209069,9982,-0.356079,0.694702,0.582031,501
23219066,9997,-0.355835,0.693481,0.580566,493
23229093,10027,-0.355835,0.694702,0.579346,503
23239073,9980,-0.355103,0.693848,0.578369,501
23249086,10013,-0.353882,0.693115,0.577393,505
23259066,9980,-0.353882,0.695923,0.574463,494
23269082,10016,-0.353394,0.696899,0.571777,494
23279082,10000,-0.352783,0.697998,0.569580,504
23289074,9992,-0.352417,0.695801,0.570679,503
23299089,10015,-0.350586,0.694214,0.571167,501
23309074,9985,-0.351685,0.693237,0.572510,504
23319089,10015,-0.352783,0.693848,0.572266,506
23329069,9980,-0.358154,0.698486,0.575806,502
23339089,10020,-0.357422,0.697998,0.577393,501
23349075,9986,-0.357544,0.698486,0.577759,503
23359092,10017,-0.358398,0.698364,0.578491,517
23369074,9982,-0.358276,0.699463,0.578003,516
23379067,9993,-0.356567,0.700439,0.576050,526
23389066,9999,-0.357544,0.702881,0.578857,526
23399084,10018,-0.358521,0.703857,0.579834,535
23409071,9987,-0.357178,0.704346,0.580811,540
23419088,10017,-0.357910,0.703735,0.580200,539
23429076,9988,-0.357056,0.703613,0.580444,545
23439065,9989,-0.357666,0.699097,0.580811,548
23449065,10000,-0.357788,0.695679,0.579712,550
23459078,10013,-0.359985,0.693970,0.576050,547
23469080,10002,-0.360596,0.692383,0.575439,550
23479077,9997,-0.359741,0.692017,0.575439,543
23489082,10005,-0.359863,0.692871,0.575806,547
23499074,9992,-0.363037,0.697754,0.575073,546
23509066,9992,-0.367188,0.698730,0.575806,544
23519091,10025,-0.368408,0.699219,0.575195,543
23529064,9973,-0.367798,0.695312,0.573608,536
23539077,10013,-0.367798,0.693115,0.572266,535
23549078,10001,-0.370972,0.694458,0.571045,527
23559109,10031,-0.372437,0.695312,0.567871,529
23569075,9966,-0.372925,0.695557,0.567627,524
23579081,10006,-0.373047,0.698364,0.564697,524
23589085,10004,-0.370850,0.698975,0.566528,522
23599094,10009,-0.370361,0.700562,0.564697,520
23609086,9992,-0.369751,0.703003,0.563721,521
23619083,9997,-0.371094,0.704590,0.564697,518
23629087,10004,-0.371582,0.705688,0.566895,519
23639075,9988,-0.374390,0.706299,0.567993,518
23649066,9991,-0.374512,0.708130,0.570190,519
23659085,10019,-0.371216,0.707031,0.577515,517
23669078,9993,-0.371216,0.705444,0.581421,517
23679110,10032,-0.371216,0.701172,0.582031,520
23689086,9976,-0.370605,0.696533,0.582520,518
23699079,9993,-0.370239,0.693359,0.579834,519
23709068,9989,-0.369629,0.657959,0.578369,521
23719080,10012,-0.370728,0.683228,0.575928,524
23729080,10000,-0.372437,0.683960,0.574585,518
23739080,10000,-0.372070,0.685547,0.573975,523
23749077,9997,-0.372314,0.687988,0.574463,514
23759064,9987,-0.370239,0.690674,0.576538,520
23769067,10003,-0.366821,0.694580,0.576294,519
23779075,10008,-0.366455,0.696777,0.576416,509
23789071,9996,-0.366821,0.697876,0.578369,512
23799087,10016,-0.364990,0.697876,0.578003,505
23809066,9979,-0.362183,0.697632,0.578979,513
23819089,10023,-0.362549,0.697510,0.579834,506
23829094,10005,-0.368774,0.699585,0.579834,509
23839082,9988,-0.369873,0.700195,0.582031,512
23849080,9998,-0.368530,0.699097,0.582153,508
23859090,10010,-0.368164,0.697021,0.582153,509
23869083,9993,-0.368286,0.696777,0.582642,507
23879065,9982,-0.366455,0.692383,0.582397,508
23889086,10021,-0.365112,0.690918,0.579712,509
23899071,9985,-0.364502,0.688599,0.578125,508
23909090,10019,-0.366333,0.685791,0.575195,500
23919094,10004,-0.367798,0.685181,0.572144,510
23929078,9984,-0.362915,0.685425,0.573730,508
23939078,10000,-0.361694,0.686890,0.572266,499
23949077,9999,-0.359375,0.688354,0.573853,505
23959065,9988,-0.359497,0.690918,0.576904,508
23969118,10053,-0.359863,0.694214,0.579346,497
23979092,9974,-0.362427,0.697266,0.579468,506
23989080,9988,-0.364014,0.696533,0.583008,506
23999091,10011,-0.365723,0.694336,0.584106,503
24009074,9983,-0.365234,0.692871,0.583740,507
24019087,10013,-0.365967,0.690918,0.583252,506
24029077,9990,-0.368164,0.689453,0.583374,505
24039070,9993,-0.368530,0.689941,0.582031,510
24049073,10003,-0.368774,0.689453,0.581543,514
24059082,10009,-0.367920,0.687378,0.581299,516
24069087,10005,-0.366943,0.687012,0.579834,517
24079064,9977,-0.368164,0.687012,0.577881,526
24089065,10001,-0.367676,0.688354,0.575073,528
24099075,10010,-0.366211,0.687988,0.572754,536
24109076,10001,-0.366699,0.691040,0.572510,538
24119067,9991,-0.365967,0.693237,0.573364,543
24129094,10027,-0.365356,0.696533,0.574951,546
24139084,9990,-0.365112,0.698853,0.575562,550
24149070,9986,-0.361450,0.704346,0.582031,550
24159076,10006,-0.361572,0.706787,0.583496,550
24169110,10034,-0.359985,0.704712,0.586060,546
24179088,9978,-0.359131,0.704468,0.587769,545
24189076,9988,-0.358398,0.704468,0.589111,546
24199072,9996,-0.354492,0.702515,0.589966,542
24209244,10172,-0.354980,0.697510,0.592651,532
24219081,9837,-0.356201,0.693970,0.589966,535
24229068,9987,-0.359863,0.689819,0.589966,536
24239075,10007,-0.361816,0.687988,0.589844,539
24249079,10004,-0.362427,0.684082,0.587769,528
24259073,9994,-0.364380,0.676758,0.584473,538
24269091,10018,-0.367065,0.679810,0.581299,529
24279068,9977,-0.366577,0.684570,0.582397,532
24289068,10000,-0.364624,0.688721,0.581909,526
24299091,10023,-0.362427,0.692871,0.579834,518
24309068,9977,-0.361572,0.695557,0.578979,522
24319086,10018,-0.362427,0.700684,0.578735,518
24329064,9978,-0.363770,0.702637,0.578857,511
24339086,10022,-0.365479,0.704590,0.578247,493
24349078,9992,-0.366821,0.709839,0.577637,491
24359089,10011,-0.366211,0.710571,0.574951,476
24369066,9977,-0.363892,0.718872,0.585083,454
24379065,9999,-0.375000,0.735352,0.586304,442
24389076,10011,-0.376343,0.737549,0.578125,430
24399072,9996,-0.369995,0.717773,0.568237,415
24409064,9992,-0.361328,0.702759,0.566895,405
24419089,10025,-0.362427,0.705688,0.566040,387
24429081,9992,-0.372192,0.706177,0.563232,388
24439064,9983,-0.375610,0.699951,0.556885,375
24449090,10026,-0.377075,0.691650,0.550049,377
24459072,9982,-0.379761,0.681519,0.544312,405
24469072,10000,-0.380737,0.678955,0.540527,400
24479092,10020,-0.383301,0.686279,0.538818,413
24489105,10013,-0.381714,0.685303,0.534424,420
24499064,9959,-0.381104,0.687378,0.533936,443
24509082,10018,-0.379883,0.693848,0.534302,453
24519089,10007,-0.380981,0.703979,0.538208,470
24529077,9988,-0.381470,0.713013,0.546509,484
24539092,10015,-0.380493,0.715210,0.545898,501
24549080,9988,-0.379761,0.715942,0.546997,509
24559094,10014,-0.377075,0.715942,0.547974,518
24569086,9992,-0.376587,0.715454,0.549316,528
24579065,9979,-0.376831,0.713867,0.550781,536
24589085,10020,-0.373779,0.707397,0.552612,538
24599468,10383,-0.374756,0.706421,0.553101,542
24609092,9624,-0.373291,0.706543,0.556396,537
24619086,9994,-0.368774,0.707642,0.557251,545
24629088,10002,-0.367676,0.704468,0.558960,544
24639090,10002,-0.365234,0.699951,0.564941,531
24649086,9996,-0.363770,0.699707,0.568115,527
24659069,9983,-0.363647,0.702637,0.571899,536
24669073,10004,-0.365601,0.705444,0.573608,525
24679077,10004,-0.365601,0.707397,0.573608,525
24689089,10012,-0.364502,0.707031,0.575317,515
24699067,9978,-0.365479,0.710205,0.577393,519
24709091,10024,-0.365967,0.711670,0.578735,514
24719082,9991,-0.364624,0.710327,0.578247,504
24731610,12528,-0.362671,0.707397,0.575562,516
24739086,7476,0.000000,0.000000,0.000000,511
24749091,10005,-0.367065,0.707642,0.575439,509
24759094,10003,-0.366211,0.706055,0.575562,502
24769077,9983,-0.364990,0.702637,0.575195,512
24779069,9992,-0.362915,0.699341,0.576660,505
24789092,10023,-0.363892,0.696411,0.576660,513
24799068,9976,-0.364380,0.693970,0.572998,508
24809093,10025,-0.366821,0.692505,0.571899,514
24819070,9977,-0.367920,0.691528,0.570435,525
24829084,10014,-0.368774,0.692139,0.569946,525
24839076,9992,-0.367188,0.693481,0.570190,524
24849090,10014,-0.368774,0.695312,0.568359,535
24859084,9994,-0.368652,0.697876,0.567505,540
24869075,9991,-0.368896,0.698608,0.565430,545
24879083,10008,-0.367554,0.699341,0.563965,552
24889093,10010,-0.365356,0.699829,0.562988,556
24899086,9993,-0.363892,0.699829,0.563599,558
24909090,10004,-0.362305,0.700073,0.565552,560
24919066,9976,-0.361938,0.700562,0.567383,558
24929072,10006,-0.361572,0.699951,0.566284,559
24939090,10018,-0.363647,0.698486,0.566895,557
24949086,9996,-0.363770,0.695923,0.566895,552
24959068,9982,-0.363037,0.692749,0.567139,550
24969070,10002,-0.362183,0.693237,0.567505,535
24979080,10010,-0.362671,0.692017,0.566162,542
24989089,10009,-0.362427,0.692139,0.566772,534
24999064,9975,-0.362793,0.692261,0.565552,532
25009093,10029,-0.363159,0.694214,0.564453,531
25019077,9984,-0.363037,0.699097,0.563354,524
25029065,9988,-0.363647,0.702759,0.564941,526
25039068,10003,-0.363525,0.704956,0.568848,521
25049091,10023,-0.364502,0.708618,0.569702,515
25059088,9997,-0.363770,0.709961,0.571777,519
25069079,9991,-0.365479,0.711548,0.573853,515
25079082,10003,-0.367920,0.710083,0.579102,511
25089064,9982,-0.366455,0.707764,0.580078,511
25099090,10026,-0.365356,0.705200,0.581665,508
25109080,9990,-0.365845,0.702881,0.578979,508
25119069,9989,-0.366211,0.702148,0.577759,510
25129088,10019,-0.364258,0.700195,0.576538,509
25139089,10001,-0.363037,0.700317,0.576294,515
25149069,9980,-0.363403,0.699829,0.577515,516
25159090,10021,-0.362549,0.699951,0.576904,513
25169066,9976,-0.362549,0.700073,0.577148,514
25179080,10014,-0.361450,0.699707,0.577881,519
25189067,9987,-0.360962,0.696411,0.578979,514
25199085,10018,-0.360840,0.694702,0.580078,513
25209070,9985,-0.361206,0.692383,0.579834,517
25219066,9996,-0.362671,0.692139,0.581543,518
25229086,10020,-0.362793,0.692383,0.581421,518
25239068,9982,-0.362915,0.693604,0.582031,515
25249070,10002,-0.363403,0.693604,0.580444,506
25259070,10000,-0.364258,0.694946,0.577881,513
25269089,10019,-0.363525,0.697021,0.577393,509
25279073,9984,-0.362183,0.699097,0.574951,506
25289081,10008,-0.363770,0.700439,0.573120,504
25299078,9997,-0.361206,0.701294,0.572998,502
25309086,10008,-0.361816,0.701538,0.572144,499
25319085,9999,-0.363647,0.703247,0.572266,490
25329074,9989,-0.364502,0.702148,0.571289,494
25339081,10007,-0.365601,0.701050,0.571167,497
25349079,9998,-0.368286,0.697998,0.569458,488
25359066,9987,-0.369141,0.698486,0.567749,497
25369081,10015,-0.370483,0.697632,0.567627,500
25379064,9983,-0.370605,0.698242,0.568604,502
25389081,10017,-0.370605,0.698364,0.567261,500
25399066,9985,-0.370728,0.700073,0.567749,496
25409077,10011,-0.371582,0.703125,0.567017,504
25419081,10004,-0.371094,0.703491,0.565674,501
25429085,10004,-0.370361,0.703003,0.564087,501
25439069,9984,-0.369629,0.702148,0.565186,503
25449086,10017,-0.369141,0.699829,0.566284,502
25459074,9988,-0.369385,0.697510,0.564941,501
25469086,10012,-0.371338,0.696167,0.564331,502
25479064,9978,-0.372192,0.696167,0.566284,500
25489084,10020,-0.373779,0.695679,0.570923,502
25499084,10000,-0.370972,0.695679,0.573364,497
25509108,10024,-0.369019,0.694824,0.571899,507
25519094,9986,-0.369507,0.695435,0.573486,498
25529074,9980,-0.369629,0.695312,0.572510,507
25539079,10005,-0.370972,0.696411,0.572632,508
25549082,10003,-0.372070,0.698608,0.570923,508
25559084,10002,-0.370117,0.699585,0.572388,502
25569090,10006,-0.363647,0.697144,0.573242,504
25579079,9989,-0.363159,0.696289,0.573364,504
25589086,10007,-0.365234,0.696045,0.572998,495
25599090,10004,-0.367554,0.697754,0.574585,503
25609078,9988,-0.368774,0.699097,0.575317,496
25619069,9991,-0.366943,0.699341,0.575806,502
25629085,10016,-0.367432,0.697998,0.577637,512
25639092,10007,-0.367188,0.697876,0.576782,516
25649083,9991,-0.365356,0.698975,0.576660,527
25659075,9992,-0.364624,0.700562,0.578613,533
25669073,9998,-0.365967,0.701050,0.576660,540
25679075,10002,-0.365723,0.699951,0.574585,548
25689089,10014,-0.364502,0.700806,0.574341,553
25699067,9978,-0.363647,0.700073,0.573730,557
25709081,10014,-0.364258,0.699951,0.572021,561
25719080,9999,-0.363525,0.700439,0.571045,561
25729384,10304,-0.366577,0.698853,0.570190,560
25739092,9708,-0.365112,0.699341,0.572266,560
25749077,9985,-0.364136,0.700073,0.573608,556
25759087,10010,-0.364746,0.700684,0.574097,555
25769074,9987,-0.364502,0.700195,0.574829,549
25779088,10014,-0.365601,0.697510,0.571777,537
25789064,9976,-0.370239,0.697998,0.571899,537
25799070,10006,-0.370239,0.695312,0.573853,534
25809065,9995,-0.371582,0.692139,0.573364,523
25819080,10015,-0.370972,0.691406,0.572144,505
25829078,9998,-0.371704,0.691406,0.573242,517
25839088,10010,-0.370850,0.695801,0.572754,511
25849088,10000,-0.369263,0.698120,0.573608,503
25859091,10003,-0.370117,0.700073,0.572388,506
25869089,9998,-0.368286,0.700439,0.573120,504
25879078,9989,-0.369873,0.703003,0.578491,500
25889091,10013,-0.373901,0.698120,0.574951,497
25899103,10012,-0.367065,0.704102,0.577759,503
25909094,9991,-0.367432,0.695801,0.575439,505
25919083,9989,-0.372437,0.695435,0.574097,497
25929084,10001,-0.369141,0.696289,0.574341,503
25939085,10001,-0.369873,0.695801,0.575439,511
25949068,9983,-0.366943,0.696167,0.578491,512
25959092,10024,-0.366577,0.696899,0.578125,504
25969092,10000,-0.365845,0.694580,0.576172,517
25979074,9982,-0.364258,0.694946,0.576294,508
25989082,10008,-0.363037,0.693604,0.575195,517
25999071,9989,-0.361206,0.694336,0.575317,514
26009091,10020,-0.360474,0.694336,0.576416,517
26019095,10004,-0.359619,0.694946,0.575928,517
26029077,9982,-0.357910,0.693237,0.576782,516
26039074,9997,-0.357666,0.692993,0.578735,517
26049074,10000,-0.356567,0.692139,0.578979,508
26059076,10002,-0.358643,0.691895,0.579102,508
26069082,10006,-0.361084,0.692017,0.578125,513
26079090,10008,-0.362427,0.692505,0.577271,513
26089066,9976,-0.361572,0.693115,0.576538,508
26099094,10028,-0.361328,0.692261,0.576050,506
26109091,9997,-0.361450,0.693726,0.575439,498
26119086,9995,-0.363037,0.692993,0.574585,507
26129092,10006,-0.365112,0.694946,0.576050,503
26139071,9979,-0.366333,0.696655,0.577148,500
26149069,9998,-0.367554,0.698608,0.576538,501
26159077,10008,-0.368530,0.698730,0.576050,504
26169087,10010,-0.366089,0.700806,0.576782,509
26179067,9980,-0.364380,0.700806,0.577881,506
26189093,10026,-0.365845,0.702515,0.579346,507
26199070,9977,-0.367798,0.701904,0.579102,508
26209076,10006,-0.369141,0.701294,0.578613,500
26219075,9999,-0.371704,0.694458,0.576416,509
26229083,10008,-0.369873,0.693359,0.578369,508
26239076,9993,-0.369019,0.695923,0.578613,510
26249076,10000,-0.368896,0.698730,0.576904,507
26259088,10012,-0.368530,0.700073,0.578369,510
26269080,9992,-0.367310,0.703247,0.578369,506
26279074,9994,-0.365479,0.707397,0.575195,500
26289090,10016,-0.363770,0.706787,0.575562,504
26299093,10003,-0.360840,0.705566,0.575562,501
26309076,9983,-0.355835,0.703003,0.576294,499
26319085,10009,-0.353394,0.699951,0.577393,498
26329088,10003,-0.356323,0.695557,0.579224,496
26339064,9976,-0.357178,0.694824,0.580322,500
26349067,10003,-0.357910,0.692749,0.580566,505
26359084,10017,-0.358643,0.690918,0.580444,499
26369080,9996,-0.358276,0.690308,0.581421,510
26379065,9985,-0.357910,0.692261,0.581665,517
26389070,10005,-0.355469,0.692017,0.582886,527
26399083,10013,-0.354248,0.692871,0.583130,533
26409070,9987,-0.354980,0.692383,0.581665,538
26419087,10017,-0.355957,0.693970,0.580200,546
26429086,9999,-0.355469,0.694580,0.579224,552
26439088,10002,-0.359009,0.696167,0.574951,556
26449087,9999,-0.358032,0.697266,0.573120,549
26459082,9995,-0.356934,0.696411,0.572144,552
26469091,10009,-0.357666,0.696899,0.572388,560
26479101,10010,-0.357788,0.697021,0.572266,559
26489070,9969,-0.359009,0.696899,0.575073,557
26499070,10000,-0.360229,0.696167,0.576050,555
26509078,10008,-0.363159,0.694092,0.572754,544
26519088,10010,-0.365234,0.694092,0.571533,545
26529090,10002,-0.364136,0.694946,0.570435,539
26539075,9985,-0.362915,0.695435,0.569580,534
26549783,10708,-0.361206,0.695801,0.569946,528
26559064,9281,-0.361084,0.695312,0.566895,518
26569081,10017,-0.359497,0.694824,0.567017,514
26579064,9983,-0.356812,0.694946,0.566895,515
26589073,10009,-0.357300,0.696533,0.568359,507
26599106,10033,-0.363281,0.699707,0.567993,508
26609090,9984,-0.365356,0.700073,0.568115,508
26619074,9984,-0.364624,0.702393,0.568237,502
26629066,9992,-0.365967,0.704468,0.570801,507
26639067,10001,-0.366211,0.705200,0.572021,510
26649075,10008,-0.366943,0.709106,0.572876,510
26659082,10007,-0.366821,0.711792,0.573853,513
26669111,10029,-0.364014,0.711914,0.574951,513
26679080,9969,-0.364380,0.709473,0.575928,515
26689083,10003,-0.364258,0.708008,0.577637,515
26699079,9996,-0.364746,0.708496,0.576904,507
26709071,9992,-0.360962,0.706909,0.576416,520
26719076,10005,-0.360352,0.705444,0.578247,521
26729072,9996,-0.359863,0.707275,0.579346,518
26739078,10006,-0.360352,0.705811,0.579590,521
26749074,9996,-0.359863,0.704956,0.582642,522
26759087,10013,-0.359497,0.702759,0.584229,515
26769081,9994,-0.359253,0.698975,0.584961,519
26779064,9983,-0.359131,0.696411,0.584717,521
26789083,10019,-0.360229,0.695435,0.584839,521
26799068,9985,-0.361450,0.693970,0.585083,516
26809082,10014,-0.361450,0.696655,0.584106,519
26819079,9997,-0.359253,0.698486,0.581665,519
26829072,9993,-0.359741,0.698730,0.577881,517
26839075,10003,-0.360840,0.699951,0.575562,512
26849082,10007,-0.360107,0.700195,0.573975,515
26859070,9988,-0.359741,0.700195,0.571289,512
26869111,10041,-0.358398,0.702637,0.567261,511
26879068,9957,-0.357300,0.702393,0.567871,511
26889090,10022,-0.356323,0.702637,0.566406,507
26899093,10003,-0.356812,0.703003,0.565674,507
26909087,9994,-0.357178,0.704468,0.566284,505
26919083,9996,-0.357422,0.702515,0.566406,504
26929088,10005,-0.357910,0.696899,0.568237,504
26939093,10005,-0.361328,0.695068,0.567871,507
26949087,9994,-0.362915,0.694580,0.567383,500
26959085,9998,-0.363525,0.693970,0.568359,499
26969076,9991,-0.363892,0.692627,0.568359,512
26979093,10017,-0.364868,0.694092,0.569702,507
26989098,10005,-0.363281,0.695557,0.571899,516
26999072,9974,-0.361572,0.696411,0.569214,507
27009072,10000,-0.361938,0.697144,0.569092,515
27019091,10019,-0.364014,0.697388,0.572266,509
27029085,9994,-0.365234,0.699341,0.572021,513
27039080,9995,-0.367188,0.702515,0.571289,513
27049092,10012,-0.366699,0.703125,0.571411,507
27059075,9983,-0.365356,0.703003,0.573608,513
27069075,10000,-0.364380,0.704834,0.575562,511
27079090,10015,-0.363525,0.705566,0.576782,511
27089067,9977,-0.364624,0.706787,0.578369,501
27099076,10009,-0.366089,0.706787,0.579224,506
27109068,9992,-0.366943,0.707031,0.581543,514
27119084,10016,-0.365112,0.708252,0.583496,516
27129089,10005,-0.364868,0.708252,0.583008,515
27139074,9985,-0.365601,0.706787,0.583252,528
27149093,10019,-0.363037,0.705811,0.581421,536
27159083,9990,-0.361206,0.703613,0.578491,544
27169071,9988,-0.360962,0.701538,0.576416,550
27179070,9999,-0.359375,0.701050,0.574951,555
27189090,10020,-0.357666,0.700195,0.572998,557
27199085,9995,-0.359131,0.696777,0.568237,556
27209071,9986,-0.359619,0.694092,0.567505,563
27219067,9996,-0.359375,0.690430,0.567749,564
27229077,10010,-0.357910,0.688477,0.567261,559
27239091,10014,-0.358032,0.685059,0.566895,562
27249084,9993,-0.359131,0.684082,0.567261,558
27259086,10002,-0.364624,0.687256,0.570068,555
27269106,10020,-0.367188,0.691284,0.571411,550
27279065,9959,-0.369141,0.693481,0.571289,540
27289088,10023,-0.371582,0.696533,0.572144,539
27299072,9984,-0.370728,0.698486,0.572998,534
27309084,10012,-0.368652,0.702759,0.573608,531
27319067,9983,-0.369995,0.705566,0.572632,522
27329089,10022,-0.371704,0.708252,0.571899,522
27339090,10001,-0.370728,0.707520,0.569702,512
27349083,9993,-0.368164,0.707153,0.568237,511
27359084,10001,-0.366577,0.705811,0.566284,505
27370611,11527,-0.360107,0.704224,0.565186,512
27381083,10472,-0.356812,0.703979,0.564941,510
27389105,8022,-0.353882,0.702026,0.565674,510
27399085,9980,-0.349487,0.699463,0.567017,515
27409088,10003,-0.346558,0.696777,0.569092,508
27419073,9985,-0.346802,0.689941,0.575073,519
27429083,10010,-0.350220,0.686279,0.573608,521
27439093,10010,-0.357910,0.684082,0.572021,525
27449086,9993,-0.360718,0.682861,0.570801,525
27459099,10013,-0.360229,0.682983,0.569702,527
27469065,9966,-0.357422,0.689575,0.570190,526
27479076,10011,-0.357544,0.694702,0.570801,527
27489065,9989,-0.359253,0.699829,0.571533,523
27499077,10012,-0.359619,0.704712,0.575073,522
27509068,9991,-0.360474,0.705811,0.578857,519
27519082,10014,-0.360840,0.703003,0.579956,525
27529066,9984,-0.366455,0.698975,0.577881,515
27539076,10010,-0.369629,0.698730,0.575195,521
27549083,10007,-0.371826,0.700195,0.574707,512
27559081,9998,-0.369385,0.700195,0.575928,519
27569080,9999,-0.366455,0.703857,0.576294,511
27579080,10000,-0.365601,0.712402,0.578857,518
27589094,10014,-0.363892,0.715210,0.581299,512
27599072,9978,-0.363403,0.717285,0.583984,515
27609065,9993,-0.362183,0.715576,0.584961,513
27619077,10012,-0.363159,0.714844,0.585815,508
27629072,9995,-0.363770,0.713745,0.586304,512
27639079,10007,-0.362549,0.707764,0.587891,514
27649091,10012,-0.360229,0.703735,0.587280,514
27659080,9989,-0.359985,0.699463,0.587524,514
27669083,10003,-0.361450,0.696289,0.586426,512
27679084,10001,-0.360596,0.693970,0.585815,513
27690504,11420,-0.361938,0.690918,0.580688,505
27699088,8584,-0.360718,0.691406,0.579590,510
27709088,10000,-0.358032,0.692261,0.575684,509
27719080,9992,-0.357178,0.694702,0.573486,512
27729070,9990,-0.355469,0.694824,0.572510,506
27739075,10005,-0.354248,0.699097,0.573242,507
27749085,10010,-0.354492,0.702637,0.572388,507
27759069,9984,-0.354614,0.702026,0.570557,501
27769086,10017,-0.352905,0.703247,0.570679,509
27779065,9979,-0.352295,0.702515,0.571045,506
27789065,10000,-0.351807,0.700195,0.570557,507
27799089,10024,-0.354126,0.697388,0.570435,510
27809065,9976,-0.354004,0.696777,0.570801,503
27819071,10006,-0.356201,0.697266,0.569824,513
27829069,9998,-0.356567,0.696289,0.569336,516
27839087,10018,-0.357544,0.695557,0.571045,520
27849074,9987,-0.361084,0.696411,0.571289,529
27859097,10023,-0.359375,0.698608,0.569214,529
27869083,9986,-0.360229,0.699829,0.568115,539
27879076,9993,-0.361328,0.702759,0.567627,546
27889073,9997,-0.360718,0.706055,0.569702,550
27899079,10006,-0.361084,0.708862,0.569702,549
27909088,10009,-0.358154,0.711304,0.571899,557
27919093,10005,-0.359863,0.711670,0.574951,560
27929086,9993,-0.359741,0.712158,0.575317,554
27939068,9982,-0.360107,0.710571,0.575562,562
27949074,10006,-0.360596,0.709473,0.575806,560
27959085,10011,-0.360352,0.701294,0.579102,557
27969075,9990,-0.359863,0.699829,0.579590,547
27979104,10029,-0.360962,0.697998,0.578003,548
27989077,9973,-0.361572,0.697021,0.578247,541
27999087,10010,-0.360840,0.695435,0.579590,540
28009070,9983,-0.359619,0.695679,0.579102,533
28019088,10018,-0.360107,0.695679,0.577515,518
28029084,9996,-0.359863,0.698364,0.577271,517
28039075,9991,-0.359863,0.700806,0.576416,519
28049107,10032,-0.357788,0.702271,0.578735,518
28059088,9981,-0.357056,0.703125,0.578735,515
28071420,12332,-0.357056,0.702515,0.577148,505
28079076,7656,-0.356689,0.701538,0.574951,511
28089084,10008,-0.356934,0.699341,0.574341,509
28099064,9980,-0.359131,0.699097,0.573975,511
28109082,10018,-0.360718,0.700439,0.574585,511
28119092,10010,-0.361084,0.701782,0.574463,504
28129077,9985,-0.359863,0.702637,0.574219,514
28139081,10004,-0.361572,0.701904,0.573242,516
28149088,10007,-0.361206,0.702637,0.574097,517
28159067,9979,-0.359985,0.704346,0.575195,513
28169068,10001,-0.360474,0.703613,0.571777,513
28179071,10003,-0.361328,0.699707,0.570068,513
28189065,9994,-0.361206,0.698120,0.568237,522
28199076,10011,-0.359253,0.697388,0.567017,523
28209088,10012,-0.359619,0.698853,0.568604,515
28219065,9977,-0.359741,0.698975,0.567993,521
28229078,10013,-0.361694,0.700195,0.567749,520
28239103,10025,-0.362915,0.700439,0.568115,517
28249067,9964,-0.364746,0.700684,0.568726,516
28259092,10025,-0.364624,0.700928,0.569092,506
28269074,9982,-0.363647,0.700928,0.568848,514
28279072,9998,-0.363037,0.703125,0.567749,513
28289093,10021,-0.361694,0.704468,0.568237,511
28299089,9996,-0.360474,0.705322,0.567993,510
28309088,9999,-0.361328,0.704346,0.569336,502
28319083,9995,-0.361938,0.701904,0.569946,508
28329073,9990,-0.362061,0.700562,0.572144,497
28339084,10011,-0.364136,0.699341,0.574951,504
28349069,9985,-0.367065,0.696045,0.575562,504
28359098,10029,-0.366211,0.695557,0.575195,505
28369077,9979,-0.365479,0.695068,0.575806,503
28379075,9998,-0.366577,0.698486,0.576172,505
28389088,10013,-0.365845,0.700317,0.575073,499
28399070,9982,-0.366333,0.699707,0.574097,498
28409088,10018,-0.364380,0.699219,0.573975,509
28419092,10004,-0.362305,0.699219,0.572144,507
28429106,10014,-0.362183,0.697632,0.572754,508
28439080,9974,-0.363159,0.698975,0.574341,508
28449083,10003,-0.363403,0.699707,0.571045,509
28459067,9984,-0.365112,0.700073,0.571899,510
28469074,10007,-0.362061,0.698975,0.575439,506
28479068,9994,-0.356445,0.695312,0.577881,512
28489071,10003,-0.353638,0.692871,0.581421,512
28499069,9998,-0.354980,0.691895,0.581421,512
28509076,10007,-0.358521,0.696289,0.577881,509
28519085,10009,-0.360107,0.698730,0.577881,513
28529071,9986,-0.361450,0.697754,0.577393,515
28539089,10018,-0.361084,0.697021,0.576904,519
28549097,10008,-0.361206,0.697754,0.575562,524
28559083,9986,-0.361816,0.699219,0.570557,523
28569070,9987,-0.364380,0.698853,0.567993,536
28579078,10008,-0.362915,0.697876,0.566406,535
28589089,10011,-0.359741,0.698730,0.565918,549
28599078,9989,-0.361084,0.698608,0.565186,555
28609076,9998,-0.364502,0.698486,0.566284,553
28619073,9997,-0.364746,0.699463,0.566040,561
28629074,10001,-0.364380,0.699219,0.564453,557
28639076,10002,-0.362671,0.700317,0.564453,553
28649069,9993,-0.360840,0.701172,0.564941,560
28659089,10020,-0.360718,0.702637,0.565918,553
28669080,9991,-0.363037,0.703979,0.563599,551
28679091,10011,-0.364380,0.703491,0.562988,540
28689069,9978,-0.367188,0.701172,0.560059,532
28699065,9996,-0.370117,0.698975,0.560547,531
28709092,10027,-0.369263,0.698242,0.562500,518
28719093,10001,-0.369019,0.698975,0.564697,521
28729083,9990,-0.367920,0.706665,0.567627,517
28739091,10008,-0.365967,0.711670,0.570679,513
28749082,9991,-0.364624,0.715332,0.572021,512
28759067,9985,-0.364624,0.718384,0.572998,507
28769065,9998,-0.364258,0.719849,0.574707,507
28779093,10028,-0.361450,0.714233,0.574097,499
28789089,9996,-0.363159,0.707397,0.573975,504
28799087,9998,-0.364746,0.701538,0.571777,498
28809072,9985,-0.368530,0.697144,0.570923,509
28819080,10008,-0.369507,0.695557,0.571533,502
28829085,10005,-0.368164,0.695068,0.570557,509
28839077,9992,-0.362427,0.699951,0.571289,512
28849089,10012,-0.359497,0.703613,0.572021,511
28859080,9991,-0.353882,0.708740,0.572876,515
28869073,9993,-0.351196,0.710449,0.572266,514
28879094,10021,-0.351440,0.710327,0.571411,519
28889076,9982,-0.355957,0.707886,0.567261,513
28899089,10013,-0.353516,0.706055,0.564941,521
28909068,9979,-0.350830,0.704346,0.564575,517
28919072,10004,-0.350708,0.703491,0.564331,509
28929097,10025,-0.350464,0.703735,0.565552,510
28939074,9977,-0.349854,0.703003,0.569580,504
28949080,10006,-0.352783,0.703003,0.571655,493
28959076,9996,-0.356323,0.703857,0.572388,500
28969072,9996,-0.359375,0.705078,0.573853,499
28979764,10692,-0.359497,0.708130,0.574097,499
28989076,9312,-0.358887,0.710937,0.574829,503
28999092,10016,-0.357300,0.711304,0.571777,506
29009068,9976,-0.356567,0.710449,0.570435,509
29019072,10004,-0.358276,0.709473,0.569092,512
29029076,10004,-0.360474,0.708984,0.568481,523
29039084,10008,-0.363281,0.706787,0.565552,527
29049072,9988,-0.363281,0.700195,0.560791,530
29059064,9992,-0.361694,0.699463,0.558472,535
29069091,10027,-0.360474,0.701050,0.554687,528
29079091,10000,-0.361938,0.702148,0.557373,531
29089070,9979,-0.360596,0.703125,0.559570,533
29099082,10012,-0.363281,0.701904,0.559814,545
29109072,9990,-0.365601,0.698853,0.559448,549
29119070,9998,-0.367554,0.699219,0.559570,547
29129070,10000,-0.367676,0.700928,0.560791,550
29139088,10018,-0.367432,0.703247,0.561523,542
29149079,9991,-0.366943,0.707764,0.561646,552
29159068,9989,-0.364624,0.711304,0.563477,548
29169077,10009,-0.360962,0.710937,0.565674,548
29179074,9997,-0.360718,0.709351,0.567383,555
29189112,10038,-0.364014,0.709839,0.567261,558
29199074,9962,-0.364746,0.709717,0.566895,557
29209081,10007,-0.365723,0.708374,0.566406,558
29219091,10010,-0.363647,0.709106,0.566162,569
29229083,9992,-0.362671,0.711548,0.568115,568
29239065,9982,-0.361084,0.714478,0.570801,572
29249079,10014,-0.362427,0.714722,0.572998,573
29259081,10002,-0.362305,0.712280,0.574097,577
29269089,10008,-0.366577,0.704468,0.569458,571
29279077,9988,-0.367920,0.701172,0.567383,572
29289078,10001,-0.368164,0.700317,0.566895,573
29299072,9994,-0.366211,0.702759,0.565796,569
29309074,10002,-0.361450,0.706055,0.565552,559
29319085,10011,-0.355957,0.707520,0.564575,559
29329070,9985,-0.348999,0.706299,0.563965,553
29339068,9998,-0.350586,0.702515,0.563599,538
29349079,10011,-0.351318,0.698975,0.560303,533
29359073,9994,-0.351196,0.695312,0.559692,529
29369092,10019,-0.352661,0.692505,0.556519,514
29379079,9987,-0.351929,0.692383,0.559204,512
29389113,10034,-0.351440,0.693726,0.560913,496
29405998,16885,-0.359375,0.707520,0.563843,500
29412041,6043,0.000000,0.000000,0.000000,498
29419089,7048,-0.362183,0.713379,0.563354,501
29429082,9993,-0.363281,0.719116,0.565552,499
29439071,9989,-0.361938,0.718262,0.565796,504
29449087,10016,-0.360840,0.717041,0.566284,497
29459092,10005,-0.361328,0.716187,0.565430,502
29469086,9994,-0.364380,0.717285,0.563232,503
29479072,9986,-0.367432,0.716553,0.562622,504
29489068,9996,-0.375366,0.714600,0.558228,513
29501502,12434,-0.376099,0.713379,0.555908,514
29516372,14870,-0.373657,0.714844,0.554565,518
29522772,6400,0.000000,0.000000,0.000000,520
29529097,6325,-0.371948,0.714966,0.554077,520
29539090,9993,-0.367554,0.709961,0.555176,515
29549089,9999,-0.367188,0.709717,0.558350,523
29559084,9995,-0.367432,0.714478,0.562256,516
29569068,9984,-0.367798,0.719727,0.564697,519
29579065,9997,-0.365845,0.723267,0.567017,526
29589081,10016,-0.365234,0.722168,0.568359,527
29599068,9987,-0.364380,0.716431,0.567383,527
29609089,10021,-0.360229,0.712524,0.569092,528
29620572,11483,-0.354492,0.709961,0.571777,523
29629092,8520,-0.351685,0.708374,0.572632,520
29639088,9996,-0.350708,0.707520,0.572876,516
29649092,10004,-0.349365,0.707275,0.576172,514
29659073,9981,-0.349854,0.709351,0.578735,514
29669072,9999,-0.348877,0.709595,0.579224,516
29679081,10009,-0.347290,0.708008,0.577759,515
29689085,10004,-0.346680,0.706909,0.575684,510
29699080,9995,-0.346069,0.703613,0.574463,510
29711260,12180,-0.346558,0.703979,0.571533,510
29721584,10324,-0.346680,0.705566,0.568848,506
29729075,7491,-0.347168,0.708374,0.568115,501
29739080,10005,-0.347046,0.711060,0.564331,496
29749065,9985,-0.345215,0.714600,0.563843,502
29759086,10021,-0.345703,0.720337,0.562988,501
29769073,9987,-0.345215,0.720215,0.561035,498
29779079,10006,-0.345459,0.719116,0.557861,499
29789090,10011,-0.346924,0.719116,0.557007,499
29799107,10017,-0.347778,0.718140,0.557495,499
29809071,9964,-0.348389,0.716919,0.558105,494
29819068,9997,-0.351074,0.715332,0.555054,500
29829075,10007,-0.352661,0.716064,0.555908,500
29839074,9999,-0.352905,0.716431,0.556396,492
29849077,10003,-0.354004,0.715210,0.555176,502
29859078,10001,-0.353271,0.714966,0.555298,501
29869078,10000,-0.354858,0.713379,0.553223,504
29879092,10014,-0.353027,0.709717,0.553467,504
29889077,9985,-0.352173,0.707275,0.554932,506
29899068,9991,-0.351563,0.706665,0.555420,508
29909084,10016,-0.354248,0.704712,0.557861,511
29919091,10007,-0.356201,0.707153,0.559448,507
29929070,9979,-0.358154,0.712158,0.560913,520
29939084,10014,-0.359985,0.717407,0.562622,526
29949086,10002,-0.361084,0.721313,0.565918,528
29959086,10000,-0.361206,0.725830,0.567871,532
29969070,9984,-0.358887,0.728638,0.566895,535
29979084,10014,-0.354004,0.726196,0.568237,539
29989087,10003,-0.354004,0.725586,0.570190,535
29999096,10009,-0.354370,0.724609,0.571289,548
30009089,9993,-0.353638,0.723022,0.571655,548
30019073,9984,-0.354004,0.718872,0.570679,543
30029071,9998,-0.355835,0.709351,0.569092,551
30039094,10023,-0.356201,0.706177,0.569092,550
30049084,9990,-0.354126,0.703613,0.567749,551
30059085,10001,-0.355591,0.702393,0.567017,538
30069070,9985,-0.354370,0.703613,0.565063,543
30079087,10017,-0.353638,0.707031,0.563232,541
30089088,10001,-0.349243,0.711304,0.560791,530
30099077,9989,-0.346680,0.711426,0.560547,529
30109064,9987,-0.345581,0.711304,0.559814,525
30119759,10695,-0.347412,0.709717,0.559570,525
30129092,9333,-0.348511,0.708008,0.559326,517
30139067,9975,-0.351196,0.705811,0.559570,513
30149075,10008,-0.352539,0.703491,0.560913,506
30159091,10016,-0.354370,0.703369,0.561035,498
30169072,9981,-0.355591,0.704468,0.559448,506
30179104,10032,-0.353271,0.707397,0.559937,507
30189084,9980,-0.353027,0.708984,0.560303,507
30199085,10001,-0.353516,0.714844,0.558228,508
30209085,10000,-0.353882,0.716553,0.558838,510
30227454,18369,-0.350342,0.716431,0.559326,512
30232817,5363,-0.349609,0.714966,0.559326,518
30239083,6266,0.000000,0.000000,0.000000,507
30249074,9991,-0.351318,0.716919,0.560913,509
30259076,10002,-0.351685,0.717896,0.561890,514
30269085,10009,-0.352661,0.718140,0.564453,515
30279082,9997,-0.352417,0.718506,0.567017,516
30289075,9993,-0.352905,0.715820,0.567139,516
30299087,10012,-0.352295,0.712402,0.568237,516
30309069,9982,-0.353882,0.710449,0.571533,518
30319074,10005,-0.356201,0.708618,0.572510,516
30329076,10002,-0.357422,0.706787,0.573730,513
30339084,10008,-0.361084,0.705322,0.572266,507
30349075,9991,-0.360596,0.702393,0.571289,515
30359068,9993,-0.358765,0.703857,0.569946,512
30369091,10023,-0.356201,0.707153,0.571167,503
30379086,9995,-0.354614,0.709473,0.571411,509
30389089,10003,-0.353149,0.711182,0.572388,508
30399074,9985,-0.350098,0.712769,0.572021,506
30409086,10012,-0.349121,0.715576,0.571655,506
30419081,9995,-0.352539,0.714966,0.572266,507
30429089,10008,-0.352661,0.714111,0.570801,496
30439090,10001,-0.352417,0.711060,0.571045,500
30449076,9986,-0.351685,0.709106,0.571411,507
30459067,9991,-0.350586,0.707886,0.569824,508
30469093,10026,-0.349731,0.705688,0.570557,510
30479092,9999,-0.350342,0.706055,0.571411,502
30489069,9977,-0.351440,0.705200,0.570068,504
30499088,10019,-0.351196,0.704102,0.567627,507
30512105,13017,-0.352417,0.703125,0.566650,514
30520268,8163,-0.354980,0.703125,0.564819,514
30529069,8801,-0.355957,0.703735,0.564209,512
30539071,10002,-0.355347,0.706299,0.563843,512
30549089,10018,-0.355469,0.706665,0.564575,510
30559075,9986,-0.354370,0.707031,0.564575,508
30569081,10006,-0.355591,0.707031,0.565918,511
30579073,9992,-0.357422,0.708618,0.566162,510
30589085,10012,-0.357544,0.710449,0.566772,512
30599071,9986,-0.357178,0.711060,0.566040,510
30609069,9998,-0.357666,0.711670,0.565430,517
30621887,12818,-0.357666,0.712280,0.565308,517
30629068,7181,0.000000,0.000000,0.000000,527
30639068,10000,-0.356934,0.712158,0.567261,529
30649074,10006,-0.359009,0.712036,0.566650,528
30659088,10014,-0.358521,0.713379,0.567627,537
30669081,9993,-0.356323,0.713257,0.568359,530
30679070,9989,-0.354858,0.713257,0.567993,544
30689098,10028,-0.353027,0.713867,0.569580,544
30699067,9969,-0.351440,0.714478,0.570801,542
30709066,9999,-0.349731,0.713501,0.571777,542
30719090,10024,-0.348389,0.709839,0.571533,538
30729086,9996,-0.348511,0.705322,0.572998,546
30739093,10007,-0.348999,0.701294,0.574341,542
30749069,9976,-0.349243,0.702393,0.572021,537
30759083,10014,-0.348877,0.703369,0.571899,529
30769076,9993,-0.347778,0.705933,0.572754,524
30779084,10008,-0.346558,0.706177,0.572632,526
30789080,9996,-0.345215,0.707153,0.571777,514
30799072,9992,-0.347290,0.708862,0.571899,516
30809087,10015,-0.348022,0.709473,0.572632,511
30819086,9999,-0.347778,0.708374,0.572021,507
30837936,18850,-0.345825,0.704590,0.570435,505
30843868,5932,-0.347290,0.703979,0.570190,502
30851240,7372,-0.347778,0.704712,0.571655,506
30859068,7828,-0.348877,0.704346,0.571899,502
30869081,10013,-0.350952,0.701660,0.571289,507
30879083,10002,-0.351318,0.699463,0.571655,509
30889091,10008,-0.354370,0.699951,0.573242,507
30899100,10009,-0.355713,0.698364,0.570435,505
30909069,9969,-0.354004,0.700684,0.571289,514
30919086,10017,-0.353882,0.703857,0.570801,518
30929090,10004,-0.353882,0.708130,0.571411,510
30939092,10002,-0.353638,0.711914,0.571533,517
30949086,9994,-0.352905,0.713989,0.571533,513
30959073,9987,-0.350464,0.712158,0.572754,522
30969077,10004,-0.352295,0.711304,0.572876,524
30979087,10010,-0.352783,0.708984,0.572632,522
30989081,9994,-0.353394,0.707764,0.573975,519
30999080,9999,-0.352173,0.707031,0.574097,520
31009075,9995,-0.351563,0.706299,0.573486,510
31019085,10010,-0.350586,0.704834,0.573242,516
31029066,9981,-0.349976,0.703491,0.573364,509
31039090,10024,-0.349243,0.703735,0.575195,515
31049073,9983,-0.349976,0.702637,0.574829,513
31059068,9995,-0.350342,0.702148,0.575562,512
31069075,10007,-0.351929,0.698975,0.574341,507
31079077,10002,-0.352295,0.699097,0.574585,508
31089069,9992,-0.350220,0.698853,0.575317,499
31099075,10006,-0.350464,0.699585,0.573364,504
31109082,10007,-0.350342,0.701050,0.573730,503
31119073,9991,-0.350708,0.703735,0.573730,506
31129066,9993,-0.349487,0.704590,0.574585,503
31139067,10001,-0.348145,0.704590,0.575684,502
31149074,10007,-0.347290,0.706421,0.572144,504
31159121,10047,-0.348511,0.707520,0.570190,502
31169069,9948,-0.349609,0.709351,0.570190,499
31179080,10011,-0.351685,0.709961,0.569214,502
31189083,10003,-0.351563,0.711182,0.569824,502
31199092,10009,-0.352295,0.712036,0.567627,505
31209085,9993,-0.350708,0.711792,0.568726,504
31220580,11495,-0.347534,0.713379,0.569214,505
31229066,8486,0.000000,0.000000,0.000000,507
31239071,10005,-0.350220,0.709839,0.571655,512
31258116,19045,-0.351563,0.704468,0.572754,514
31264666,6550,-0.351318,0.701904,0.575684,517
31270097,5431,0.000000,0.000000,0.000000,516
31279074,8977,-0.352051,0.701050,0.577759,521
31289099,10025,-0.354980,0.700928,0.579102,526
31299064,9965,-0.354858,0.701416,0.579468,530
31309089,10025,-0.354736,0.699707,0.579346,536
31319075,9986,-0.354858,0.698608,0.579224,543
31329089,10014,-0.354370,0.697266,0.576538,542
31339080,9991,-0.353760,0.701660,0.574463,547
31349064,9984,-0.355835,0.703735,0.571899,550
31359073,10009,-0.356079,0.707153,0.571045,552
31369072,9999,-0.354736,0.708008,0.571411,542
31379065,9993,-0.353271,0.707642,0.571167,552
31389076,10011,-0.352661,0.706177,0.570923,542
31399070,9994,-0.353394,0.703491,0.570801,547
31409085,10015,-0.355835,0.702881,0.571411,544
31419074,9989,-0.354858,0.701660,0.572632,538
31429093,10019,-0.354370,0.700806,0.573242,535
31439083,9990,-0.355225,0.698608,0.573242,531
31449092,10009,-0.359619,0.696777,0.570190,518
31459064,9972,-0.363403,0.698364,0.568604,524
31469075,10011,-0.365967,0.697754,0.567627,514
31479097,10022,-0.365723,0.697388,0.563843,505
31489087,9990,-0.361084,0.694946,0.562622,506
31499093,10006,-0.358765,0.701660,0.559570,509
31509073,9980,-0.358154,0.708862,0.560425,504
31519093,10020,-0.359497,0.716797,0.561401,504
31529084,9991,-0.359741,0.721191,0.563599,504
31539065,9981,-0.359619,0.722168,0.566040,507
31549071,10006,-0.359619,0.722900,0.566284,509
31559085,10014,-0.361084,0.725098,0.570679,505
31569087,10002,-0.360962,0.725830,0.572144,515
31579084,9997,-0.360596,0.728149,0.575806,513
31589084,10000,-0.356812,0.726807,0.577271,520
31599091,10007,-0.354980,0.724731,0.578613,517
31609070,9979,-0.350464,0.720947,0.578735,525
31619090,10020,-0.350220,0.717285,0.577515,528
31629076,9986,-0.351440,0.714233,0.578247,525
31639074,9998,-0.352295,0.707031,0.574463,530
31649087,10013,-0.352173,0.701294,0.572021,524
31659071,9984,-0.349976,0.693848,0.571655,526
31669074,10003,-0.351440,0.682861,0.570190,521
31679071,9997,-0.354248,0.683472,0.568237,528
31689070,9999,-0.354614,0.685059,0.568481,520
31699087,10017,-0.354126,0.690063,0.570801,521
31709069,9982,-0.351685,0.693481,0.572754,522
31719091,10022,-0.348755,0.700195,0.574707,521
31729068,9977,-0.349609,0.703247,0.573730,512
31739092,10024,-0.350464,0.707886,0.575195,509
31749087,9995,-0.352417,0.708984,0.575317,512
31759079,9992,-0.353760,0.707275,0.572510,513
31769086,10007,-0.354370,0.705200,0.570557,514
31779081,9995,-0.355225,0.699097,0.567017,509
31789077,9996,-0.353882,0.698975,0.567993,510
31799080,10003,-0.353638,0.699707,0.568237,507
31809091,10011,-0.355225,0.698486,0.569336,507
31819076,9985,-0.357544,0.697510,0.570312,506
31829087,10011,-0.363403,0.698120,0.568115,500
31839081,9994,-0.364380,0.699707,0.568481,505
31849078,9997,-0.364990,0.703735,0.567261,513
31859084,10006,-0.364258,0.707031,0.567261,513
31869089,10005,-0.361572,0.707153,0.567383,507
31879090,10001,-0.359741,0.705811,0.567017,506
31889078,9988,-0.362793,0.702759,0.566650,512
31899075,9997,-0.366089,0.702637,0.567139,513
31909087,10012,-0.368774,0.702271,0.567261,516
31919074,9987,-0.370239,0.700562,0.567383,519
31929113,10039,-0.370361,0.701172,0.569458,523
31940866,11753,-0.364746,0.707520,0.570068,523
31949089,8223,-0.364014,0.712402,0.571289,527
31959382,10293,-0.364746,0.715210,0.571533,541
31969068,9686,-0.365845,0.718018,0.574829,546
31979082,10014,-0.366089,0.718384,0.574463,545
31989092,10010,-0.366699,0.713013,0.573486,552
31999072,9980,-0.367310,0.712769,0.574219,553
32009090,10018,-0.366333,0.713867,0.574707,555
32019079,9989,-0.367432,0.712402,0.576050,548
32029083,10004,-0.366211,0.709473,0.578857,551
32039091,10008,-0.366333,0.706055,0.578491,547
32049065,9974,-0.368896,0.697021,0.577271,544
32059074,10009,-0.369385,0.692627,0.575928,542
32069087,10013,-0.369263,0.691895,0.573242,528
32079066,9979,-0.369263,0.692505,0.572754,530
32089091,10025,-0.367554,0.694458,0.570801,528
32099090,9999,-0.365967,0.700562,0.565674,526
32109093,10003,-0.363403,0.703003,0.565674,516
32119069,9976,-0.361084,0.705688,0.563965,520
32129093,10024,-0.358398,0.704224,0.562744,518
32139088,9995,-0.359253,0.703369,0.561157,515
32149068,9980,-0.361938,0.702637,0.559937,508
32159086,10018,-0.360596,0.700928,0.558960,512
32169069,9983,-0.361206,0.700073,0.558716,512
32179073,10004,-0.361816,0.699951,0.557617,514
32189082,10009,-0.362915,0.699951,0.558838,504
32199092,10010,-0.361694,0.699585,0.559937,517
32209066,9974,-0.361572,0.696777,0.562256,518
32219085,10019,-0.362671,0.694458,0.562744,521
32229068,9983,-0.364136,0.692261,0.562988,525
32239084,10016,-0.366577,0.692261,0.561401,528
32249108,10024,-0.367920,0.692383,0.561768,527
32259067,9959,-0.368286,0.693237,0.562378,533
32269083,10016,-0.367065,0.696899,0.563477,523
32279089,10006,-0.367676,0.699341,0.563721,522
32289073,9984,-0.368530,0.703247,0.564087,530
32299081,10008,-0.369385,0.704102,0.566772,525
32309066,9985,-0.370850,0.704224,0.568604,522
32319091,10025,-0.373169,0.699707,0.569702,526
32329078,9987,-0.372559,0.698242,0.571167,513
32339091,10013,-0.374390,0.698975,0.571533,520
32349087,9996,-0.375122,0.700195,0.571899,519
32359087,10000,-0.374878,0.702759,0.573975,514
32369079,9992,-0.375610,0.704590,0.572388,514
32379066,9987,-0.375000,0.707764,0.572388,515
32389082,10016,-0.376587,0.709961,0.571045,514
32399091,10009,-0.377319,0.710449,0.570679,514
32409065,9974,-0.376343,0.709839,0.569702,509
32419071,10006,-0.375366,0.708618,0.569092,512
32429073,10002,-0.373291,0.703857,0.566528,511
32439091,10018,-0.373291,0.702393,0.566162,513
32449078,9987,-0.372437,0.700684,0.564209,515
32459097,10019,-0.374146,0.698975,0.561890,505
32469067,9970,-0.373413,0.700195,0.561401,505
32479089,10022,-0.373413,0.699341,0.558472,515
32489069,9980,-0.367188,0.696533,0.558716,516
32499089,10020,-0.365845,0.698608,0.561401,514
32509090,10001,-0.366577,0.699585,0.560547,514
32519102,10012,-0.368164,0.702759,0.562500,510
32529088,9986,-0.368408,0.703369,0.562988,519
32539086,9998,-0.372070,0.704224,0.563721,512
32549084,9998,-0.372559,0.705200,0.565186,526
32559069,9985,-0.371582,0.704712,0.566528,527
32569088,10019,-0.370728,0.705322,0.567017,535
32579077,9989,-0.369263,0.705078,0.566772,537
32589087,10010,-0.368164,0.703735,0.571899,532
32599089,10002,-0.367432,0.702759,0.574829,544
32609089,10000,-0.366699,0.702271,0.576416,548
32619083,9994,-0.367310,0.704224,0.577271,551
32629071,9988,-0.367188,0.707153,0.575684,546
32639091,10020,-0.367920,0.709106,0.576538,554
32649085,9994,-0.364624,0.713867,0.576782,544
32659067,9982,-0.364990,0.710937,0.576294,545
32669067,10000,-0.363403,0.709473,0.576294,545
32679082,10015,-0.364746,0.706177,0.576172,529
32689089,10007,-0.367798,0.704712,0.575684,534
32699078,9989,-0.372192,0.701050,0.576050,524
32709076,9998,-0.371948,0.697021,0.573120,530
32719092,10016,-0.372681,0.695679,0.570801,525
32729091,9999,-0.373535,0.695312,0.569702,525
32739073,9982,-0.374756,0.698364,0.568481,513
32749071,9998,-0.373413,0.700684,0.568359,522
32759085,10014,-0.372803,0.705322,0.569336,521
32769070,9985,-0.372070,0.710205,0.572754,520
32779082,10012,-0.370728,0.713135,0.574341,513
32789071,9989,-0.371216,0.718018,0.572876,514
32799066,9995,-0.371338,0.723877,0.572021,508
32809088,10022,-0.360596,0.733398,0.580322,515
32819071,9983,-0.352661,0.729980,0.583984,512
32829078,10007,-0.349365,0.719604,0.585327,515
32839079,10001,-0.349121,0.709717,0.581177,508
32849068,9989,-0.354004,0.699341,0.577515,511
32859087,10019,-0.360840,0.688599,0.575195,521
32869066,9979,-0.366089,0.670288,0.572144,519
32879091,10025,-0.366455,0.659546,0.571167,529
32889079,9988,-0.366699,0.652466,0.567017,531
32899074,9995,-0.367554,0.652466,0.561890,534
32909077,10003,-0.366577,0.656128,0.563354,530
32919070,9993,-0.362915,0.666870,0.568115,531
32929073,10003,-0.362549,0.672729,0.569092,528
32939086,10013,-0.362061,0.678345,0.567139,527
32949081,9995,-0.362793,0.685669,0.565308,520
32959093,10012,-0.360962,0.691895,0.565063,514
32969080,9987,-0.358276,0.698486,0.567139,512
32981189,12109,-0.355957,0.704102,0.567871,508
32989076,7887,-0.356445,0.704346,0.568481,508
32999084,10008,-0.358765,0.704956,0.568726,505
33009093,10009,-0.363770,0.703613,0.570435,502
33019073,9980,-0.367065,0.700806,0.571777,506
33029093,10020,-0.369263,0.697266,0.571411,506
33039078,9985,-0.368774,0.696167,0.569824,506
33049076,9998,-0.369873,0.696899,0.569702,508
33059065,9989,-0.371460,0.697632,0.570312,503
33069073,10008,-0.374512,0.699219,0.571289,512
33079080,10007,-0.374512,0.699463,0.574219,505
33089079,9999,-0.372314,0.699829,0.576050,510
33099073,9994,-0.371094,0.699341,0.577148,509
33109087,10014,-0.368530,0.699829,0.577759,509
33119073,9986,-0.368408,0.701416,0.575439,509
33129071,9998,-0.366943,0.702271,0.575073,511
33139092,10021,-0.366333,0.703369,0.573486,505
33149092,10000,-0.365967,0.703735,0.572510,518
33159082,9990,-0.363892,0.703369,0.573975,523
33169068,9986,-0.361816,0.703247,0.575562,526
33179090,10022,-0.363403,0.703857,0.575806,532
33189076,9986,-0.366333,0.708130,0.575439,536
33199065,9989,-0.368652,0.707031,0.575684,535
33209079,10014,-0.369629,0.706665,0.575317,544
33219081,10002,-0.369019,0.705933,0.574463,547
33229065,9984,-0.366943,0.704590,0.571411,556
33239098,10033,-0.364380,0.707397,0.570435,551
33249083,9985,-0.367065,0.707642,0.567139,555
33259305,10222,-0.366699,0.707520,0.568115,554
33269079,9774,-0.367188,0.706909,0.567261,550
33279082,10003,-0.367432,0.707153,0.566772,541
33289072,9990,-0.369019,0.705078,0.567505,545
33299118,10046,-0.372314,0.703125,0.568115,539
33309072,9954,-0.373413,0.702759,0.567993,538
33319064,9992,-0.374512,0.699585,0.567383,535
33329079,10015,-0.373291,0.699829,0.567261,523
33339080,10001,-0.372070,0.701660,0.566772,528
33349087,10007,-0.371704,0.703613,0.564575,525
33359066,9979,-0.371094,0.704102,0.562988,516
33369084,10018,-0.370239,0.701538,0.560425,522
33379071,9987,-0.370361,0.699097,0.558716,521
33389079,10008,-0.370483,0.696411,0.555420,512
33399092,10013,-0.371460,0.696289,0.553833,520
33409068,9976,-0.372070,0.694214,0.555664,518
33419077,10009,-0.375488,0.696289,0.555908,520
33429068,9991,-0.376343,0.696533,0.556274,513
33439066,9998,-0.376099,0.696777,0.558350,518
33449089,10023,-0.375610,0.695557,0.559570,525
33459070,9981,-0.375732,0.693359,0.558838,514
33469092,10022,-0.378662,0.695190,0.558838,515
33479082,9990,-0.378296,0.698608,0.558350,522
33489094,10012,-0.376587,0.704102,0.561279,522
33499090,9996,-0.373413,0.708618,0.563599,518
33509073,9983,-0.368408,0.711182,0.564453,512
33519073,10000,-0.363281,0.712646,0.568359,509
33529079,10006,-0.365112,0.710571,0.572388,518
33539065,9986,-0.365356,0.706055,0.571289,516
33549073,10008,-0.364990,0.698608,0.571167,511
33559071,9998,-0.365356,0.692627,0.572144,515
33569090,10019,-0.366943,0.682983,0.574707,513
33579073,9983,-0.372192,0.680298,0.576904,518
33589091,10018,-0.373047,0.679810,0.577637,520
33599081,9990,-0.372681,0.681396,0.576782,510
33609072,9991,-0.370483,0.685669,0.578491,515
33619072,10000,-0.368530,0.691040,0.578613,519
33629066,9994,-0.368408,0.698242,0.571899,511
33639083,10017,-0.365845,0.701050,0.570190,515
33649080,9997,-0.364502,0.700073,0.567871,507
33659066,9986,-0.362183,0.701172,0.566895,514
33669111,10045,-0.363037,0.706177,0.565430,510
33679083,9972,-0.363892,0.718384,0.567017,498
33689089,10006,-0.361816,0.722656,0.568115,506
33699076,9987,-0.359253,0.722534,0.568481,504
33709074,9998,-0.360352,0.719238,0.567627,504
33719080,10006,-0.361206,0.718994,0.567993,501
33729070,9990,-0.364624,0.717896,0.569458,510
33739064,9994,-0.366943,0.714478,0.569580,511
33749070,10006,-0.367798,0.711548,0.569458,519
33759067,9997,-0.368530,0.708374,0.571533,524
33769076,10009,-0.368286,0.707886,0.570923,523
33779083,10007,-0.367065,0.708252,0.571289,530
33789077,9994,-0.364380,0.707275,0.571411,539
33799095,10018,-0.364014,0.704834,0.572632,542
33809082,9987,-0.363525,0.705200,0.573975,547
33819069,9987,-0.363892,0.706421,0.574097,543
33829068,9999,-0.367310,0.707275,0.573486,554
33839070,10002,-0.368042,0.707031,0.571533,556
33849111,10041,-0.365723,0.704834,0.570923,554
33859079,9968,-0.365356,0.703735,0.569824,553
33869085,10006,-0.366333,0.704102,0.567505,544
33879083,9998,-0.368164,0.703125,0.565186,549
33889079,9996,-0.369751,0.702759,0.564209,545
33899081,10002,-0.371216,0.697144,0.562866,541
33909083,10002,-0.372070,0.695312,0.563843,538
33919083,10000,-0.371948,0.697510,0.563843,534
33929089,10006,-0.371826,0.699463,0.561523,522
33939069,9980,-0.373047,0.703125,0.559204,525
33949074,10005,-0.373291,0.705322,0.558960,523
33959091,10017,-0.371826,0.706055,0.560425,522
33969093,10002,-0.370728,0.705200,0.560791,521
33979073,9980,-0.369019,0.705078,0.560669,514
33989070,9997,-0.369751,0.705688,0.559204,516
33999069,9999,-0.370605,0.706177,0.558960,508
34009088,10019,-0.369873,0.707642,0.556030,516
34019085,9997,-0.367432,0.707153,0.557739,513
34029102,10017,-0.365845,0.703979,0.559570,518
34039072,9970,-0.365356,0.703125,0.562866,513
34049074,10002,-0.365601,0.700439,0.565918,521
34059074,10000,-0.366455,0.695679,0.572388,516
34069086,10012,-0.364990,0.692749,0.572876,526
34079089,10003,-0.362061,0.691406,0.574097,525
34089078,9989,-0.359741,0.692505,0.574341,522
34099093,10015,-0.357178,0.694580,0.573975,521
34109072,9979,-0.357300,0.698364,0.575439,521
34119075,10003,-0.361938,0.704468,0.576660,516
34129064,9989,-0.364502,0.705444,0.579712,513
34139065,10001,-0.364380,0.704956,0.579712,518
34149090,10025,-0.364624,0.702759,0.577759,518
34159094,10004,-0.367676,0.703125,0.575195,518
34169067,9973,-0.369385,0.708130,0.569336,510
34179074,10007,-0.370361,0.709106,0.565186,513
34189079,10005,-0.370972,0.707520,0.559204,515
34199091,10012,-0.372925,0.705688,0.555664,507
34209066,9975,-0.372803,0.703613,0.552856,512
34219099,10033,-0.371338,0.702271,0.552490,503
34229093,9994,-0.372559,0.698242,0.551514,512
34239064,9971,-0.374756,0.697144,0.548462,512
34249091,10027,-0.377075,0.696045,0.547729,513
34259077,9986,-0.378174,0.698120,0.548096,514
34269064,9987,-0.379028,0.699951,0.548218,510
34279068,10004,-0.377319,0.704834,0.548462,515
34289073,10005,-0.376221,0.707886,0.550171,512
34301242,12169,-0.374512,0.711426,0.553955,511
34309084,7842,-0.373291,0.714478,0.557007,502
34319075,9991,-0.373657,0.714722,0.557739,508
34329079,10004,-0.373047,0.712036,0.560181,515
34339101,10022,-0.378052,0.710693,0.560547,518
34349078,9977,-0.379395,0.708130,0.560547,523
34359067,9989,-0.378418,0.708008,0.559204,519
34369072,10005,-0.377319,0.705566,0.553711,524
34379064,9992,-0.375854,0.702881,0.551880,535
34389064,10000,-0.374390,0.701660,0.550171,534
34399066,10002,-0.370972,0.704224,0.550293,534
34409092,10026,-0.369507,0.707642,0.550293,545
34419075,9983,-0.369629,0.713013,0.552002,548
34429069,9994,-0.369629,0.715332,0.554443,548
34439090,10021,-0.371948,0.714478,0.557861,547
34449085,9995,-0.373535,0.711426,0.557007,548
34459083,9998,-0.375732,0.708130,0.559448,538
34469065,9982,-0.377441,0.707031,0.560547,546
34479092,10027,-0.376831,0.704468,0.561279,542
34489071,9979,-0.378174,0.703247,0.563354,537
34499078,10007,-0.380981,0.706665,0.565063,535
34509083,10005,-0.380005,0.710571,0.566406,529
34519093,10010,-0.379761,0.715576,0.566895,521
34529078,9985,-0.378784,0.718872,0.566650,517
34539075,9997,-0.376709,0.721436,0.567383,513
34549089,10014,-0.376221,0.720093,0.559448,518
34559081,9992,-0.375000,0.718384,0.555420,510
34569110,10029,-0.371704,0.712891,0.554932,513
34579089,9979,-0.370117,0.709595,0.556274,514
34589090,10001,-0.371338,0.707886,0.555176,513
34599086,9996,-0.372925,0.706543,0.556274,513
34609091,10005,-0.371582,0.701050,0.558594,512
34619093,10002,-0.371704,0.697388,0.560547,516
34629068,9975,-0.372559,0.693359,0.563232,520
34639074,10006,-0.371948,0.691528,0.564331,523
34649082,10008,-0.371216,0.693115,0.567505,524
34659069,9987,-0.367432,0.701294,0.569092,522
34669066,9997,-0.366699,0.704468,0.570435,519
34679064,9998,-0.365112,0.707275,0.569946,526
34689093,10029,-0.363647,0.708008,0.570190,520
34699108,10015,-0.363281,0.707153,0.570679,520
34709092,9984,-0.364502,0.706909,0.568115,517
34719081,9989,-0.365967,0.701416,0.566895,519
34729072,9991,-0.366211,0.697021,0.568359,511
34739066,9994,-0.367920,0.695679,0.566284,515
34749092,10026,-0.370117,0.695068,0.564941,513
34759111,10019,-0.372681,0.695801,0.563232,513
34769064,9953,-0.374878,0.696167,0.563232,521
34779066,10002,-0.375000,0.698120,0.561890,523
34789080,10014,-0.376343,0.702759,0.559814,521
34799081,10001,-0.375977,0.704102,0.559814,519
34809084,10003,-0.375366,0.707153,0.560547,518
34819086,10002,-0.405273,0.708618,0.558594,517
34829066,9980,-0.376099,0.708618,0.559326,515
34839086,10020,-0.376709,0.707520,0.560547,512
34849070,9984,-0.376343,0.704346,0.562134,519
34859083,10013,-0.375488,0.700073,0.563599,517
34869076,9993,-0.375610,0.695801,0.563721,515
34879080,10004,-0.376465,0.698364,0.565552,508
34889083,10003,-0.376831,0.700439,0.567383,511
34899090,10007,-0.375732,0.702515,0.570312,513
34909066,9976,-0.377197,0.704712,0.573120,509
34919081,10015,-0.375732,0.706055,0.571167,516
34929071,9990,-0.376099,0.704346,0.567627,523
34939121,10050,-0.375488,0.703125,0.567993,523
34949087,9966,-0.374756,0.701660,0.567871,532
34959090,10003,-0.374512,0.703613,0.567261,540
34969068,9978,-0.373169,0.703613,0.569458,540
34979089,10021,-0.374756,0.703613,0.568115,550
34989071,9982,-0.376343,0.701538,0.568970,544
35004769,15698,-0.376221,0.697998,0.570557,552
35010563,5794,0.000000,0.000000,0.000000,554
35019074,8511,-0.372070,0.693970,0.571045,556
35029086,10012,-0.373535,0.693359,0.569824,556
35039085,9999,-0.370850,0.694092,0.567505,553
35049068,9983,-0.370972,0.696289,0.566162,551
35059069,10001,-0.370850,0.697266,0.566772,548
35069082,10013,-0.371338,0.696289,0.566772,542
35079080,9998,-0.371460,0.696045,0.566772,538
35089080,10000,-0.372437,0.696533,0.567017,526
35099078,9998,-0.372925,0.696167,0.567627,530
35109086,10008,-0.372925,0.694702,0.567749,525
35119109,10023,-0.374268,0.694092,0.567993,529
35129080,9971,-0.375610,0.692505,0.566650,526
35139081,10001,-0.376099,0.694092,0.567749,517
35149091,10010,-0.376953,0.695923,0.568237,524
35159070,9979,-0.376465,0.696533,0.568115,527
35169076,10006,-0.375854,0.696289,0.568359,526
35179090,10014,-0.376221,0.698853,0.567993,519
35189065,9975,-0.378052,0.699707,0.567261,527
35199083,10018,-0.378784,0.703125,0.564697,527
35209069,9986,-0.378662,0.704346,0.563843,529
35219065,9996,-0.378906,0.703979,0.563721,527
35229068,10003,-0.378052,0.704224,0.562134,530
35239090,10022,-0.376099,0.703979,0.561157,521
35249089,9999,-0.377075,0.705078,0.562378,522
35259076,9987,-0.376953,0.705078,0.566162,524
35269079,10003,-0.376343,0.704956,0.566284,522
35279070,9991,-0.376221,0.703369,0.566650,520
35289067,9997,-0.377197,0.701782,0.566528,518
35299079,10012,-0.376221,0.700806,0.566650,522
35309088,10009,-0.374146,0.700684,0.566528,522
35319089,10001,-0.373657,0.700317,0.566772,521
35329093,10004,-0.374023,0.700073,0.567993,517
35339069,9976,-0.374878,0.698853,0.567627,520
35349087,10018,-0.371948,0.697266,0.570923,522
35359074,9987,-0.371582,0.695557,0.570190,522
35369068,9994,-0.373779,0.694336,0.570190,514
35379091,10023,-0.375244,0.694824,0.568115,511
35389090,9999,-0.375732,0.695801,0.565918,517
35399086,9996,-0.376831,0.697998,0.563477,516
35409069,9983,-0.375854,0.699341,0.562744,511
35419083,10014,-0.370850,0.700073,0.561523,515
35429076,9993,-0.368896,0.701294,0.560181,512
35439079,10003,-0.370361,0.703003,0.559692,512
35449094,10015,-0.370850,0.704956,0.559814,503
35459086,9992,-0.369751,0.705200,0.559326,509
35469077,9991,-0.368286,0.702881,0.558960,505
35479068,9991,-0.367798,0.700806,0.559082,493
35489076,10008,-0.366333,0.702393,0.559448,493
35499072,9996,-0.367554,0.704712,0.557739,492
35509072,10000,-0.368774,0.705566,0.558350,500
35519075,10003,-0.368774,0.704102,0.561401,501
35529070,9995,-0.371460,0.699341,0.560669,500
35539085,10015,-0.373169,0.698364,0.562378,511
35549064,9979,-0.374268,0.698975,0.562622,519
35559074,10010,-0.375366,0.700806,0.562866,528
35569070,9996,-0.377075,0.702393,0.562378,525
35579075,10005,-0.377441,0.701782,0.564697,541
35589091,10016,-0.378784,0.700073,0.564331,534
35599086,9995,-0.379395,0.700562,0.563721,549
35609088,10002,-0.380371,0.702026,0.562378,544
35619078,9990,-0.381592,0.702759,0.561646,550
35629076,9998,-0.381836,0.702271,0.560913,553
35639065,9989,-0.382324,0.703003,0.562622,553
35649072,10007,-0.382324,0.704834,0.561523,553
35659065,9993,-0.383545,0.708130,0.560059,552
35669078,10013,-0.383301,0.709839,0.559814,554
35679089,10011,-0.384644,0.710571,0.558105,549
35689085,9996,-0.382080,0.708862,0.556885,553
35699116,10031,-0.381836,0.708618,0.557861,550
35709089,9973,-0.381226,0.708130,0.556152,549
35719087,9998,-0.380249,0.706177,0.554565,548
35729083,9996,-0.379150,0.705200,0.554443,538
35739068,9985,-0.378418,0.704102,0.556152,541
35749071,10003,-0.376709,0.702881,0.558472,547
35759066,9995,-0.376953,0.704346,0.559326,544
35769071,10005,-0.375244,0.703247,0.560303,545
35779085,10014,-0.375244,0.703369,0.559570,544
35789071,9986,-0.374512,0.703491,0.559570,536
35799071,10000,-0.375732,0.704834,0.558472,537
35809069,9998,-0.374878,0.706299,0.557861,530
35819088,10019,-0.373901,0.707397,0.559448,533
35829072,9984,-0.373169,0.707764,0.561646,524
35839084,10012,-0.370972,0.708862,0.561157,531
35849073,9989,-0.371094,0.707275,0.560059,528
35859079,10006,-0.371704,0.704468,0.560669,527
35869073,9994,-0.371094,0.703125,0.562012,524
35879077,10004,-0.368408,0.701782,0.561890,523
35889070,9993,-0.367554,0.701782,0.560181,519
35899077,10007,-0.368896,0.702881,0.558716,521
35909085,10008,-0.371216,0.701172,0.557129,518
35919092,10007,-0.371460,0.702026,0.559692,519
35929069,9977,-0.369385,0.701782,0.559814,512
35939071,10002,-0.370972,0.700317,0.559082,518
35949083,10012,-0.372070,0.700195,0.559326,517
35959089,10006,-0.371582,0.700562,0.560425,515
35969071,9982,-0.371216,0.703003,0.560303,516
35979088,10017,-0.372925,0.704712,0.561768,512
35989093,10005,-0.374756,0.706909,0.561768,509
35999075,9982,-0.372681,0.706421,0.562134,514
36009064,9989,-0.371338,0.704224,0.563477,511
36019090,10026,-0.373047,0.702148,0.563477,512
36029087,9997,-0.373779,0.702515,0.563843,509
36040132,11045,-0.375610,0.702881,0.562866,518
36049080,8948,-0.376953,0.704590,0.564575,514
36059066,9986,-0.375854,0.705322,0.564087,524
36069121,10055,-0.376221,0.707764,0.563965,527
36079092,9971,-0.376709,0.710815,0.562134,533
36089083,9991,-0.374878,0.712036,0.562500,539
36099079,9996,-0.373413,0.712280,0.561279,542
36109087,10008,-0.372314,0.713257,0.559204,544
36119078,9991,-0.371704,0.712646,0.559326,547
36129085,10007,-0.371338,0.714722,0.557739,552
36139071,9986,-0.371826,0.713623,0.557251,552
36149085,10014,-0.370361,0.713013,0.556274,549
36159065,9980,-0.369629,0.710937,0.555908,548
36169084,10019,-0.369263,0.707886,0.557861,549
36179089,10005,-0.369629,0.704224,0.558105,552
36189094,10005,-0.371704,0.703003,0.557373,548
36199066,9972,-0.373413,0.701538,0.559448,547
36209083,10017,-0.373779,0.701294,0.560059,540
36219084,10001,-0.373901,0.700806,0.560791,545
36229082,9998,-0.373657,0.702271,0.562744,545
36239075,9993,-0.373535,0.703857,0.562134,541
36249093,10018,-0.372803,0.706787,0.563110,531
36259113,10020,-0.371094,0.707642,0.564209,538
36269066,9953,-0.371948,0.707764,0.565308,534
36279076,10010,-0.372559,0.707397,0.564453,530
36289087,10011,-0.374023,0.708252,0.564575,530
36299064,9977,-0.373047,0.710327,0.563965,529
36309067,10003,-0.373047,0.711304,0.562988,530
36319083,10016,-0.371582,0.710327,0.561768,530
36329081,9998,-0.370239,0.710449,0.560791,528
36339068,9987,-0.369019,0.710937,0.560425,518
36349087,10019,-0.370361,0.712402,0.560425,520
36359083,9996,-0.369385,0.710815,0.559448,519
36369077,9994,-0.368164,0.709351,0.561157,523
36379092,10015,-0.367920,0.708496,0.560059,525
36389066,9974,-0.368530,0.707275,0.562256,523
36399086,10020,-0.372070,0.705566,0.562988,522
36409068,9982,-0.370972,0.703979,0.563599,516
36419069,10001,-0.371582,0.702148,0.565063,521
36429073,10004,-0.371460,0.700439,0.565308,517
36439082,10009,-0.372314,0.700562,0.566040,517
36449100,10018,-0.372803,0.700195,0.566284,519
36459079,9979,-0.374146,0.701172,0.565796,511
36469070,9991,-0.375366,0.701660,0.564209,519
36479084,10014,-0.375488,0.702759,0.563477,518
36489069,9985,-0.373901,0.705078,0.561646,516
36499068,9999,-0.372925,0.707031,0.561646,512
36509085,10017,-0.373047,0.708008,0.562866,511
36519088,10003,-0.373413,0.708984,0.562256,500
36529084,9996,-0.374634,0.708740,0.560425,509
36539072,9988,-0.378418,0.704834,0.560425,510
36549083,10011,-0.378540,0.703491,0.562012,509
36559075,9992,-0.377808,0.701660,0.558228,503
36569064,9989,-0.375000,0.699341,0.558838,508
36579072,10008,-0.372314,0.697998,0.559448,509
36589073,10001,-0.372437,0.699341,0.557495,511
36599079,10006,-0.373291,0.699585,0.557739,508
36609085,10006,-0.374878,0.700684,0.558960,512
36619073,9988,-0.371948,0.698853,0.560547,511
36629080,10007,-0.371338,0.696899,0.560913,508
36639083,10003,-0.370117,0.695923,0.561646,511
36649087,10004,-0.369873,0.695923,0.562500,501
36659082,9995,-0.371094,0.697144,0.563599,509
36669084,10002,-0.370972,0.695312,0.563599,509
36679080,9996,-0.372192,0.695923,0.564819,505
36689081,10001,-0.373047,0.698730,0.567383,515
36699090,10009,-0.374878,0.699829,0.569458,514
36709082,9992,-0.375366,0.700684,0.570923,524
36719078,9996,-0.375977,0.699585,0.570435,524
36729065,9987,-0.375488,0.701416,0.570801,531
36739079,10014,-0.374756,0.703003,0.569214,528
36749092,10013,-0.374390,0.705322,0.568726,536
36759084,9992,-0.373535,0.707153,0.569092,537
36769065,9981,-0.374390,0.706909,0.568848,538
36779092,10027,-0.375854,0.703247,0.569336,542
36789072,9980,-0.376221,0.700073,0.570801,544
36799077,10005,-0.376221,0.696655,0.570557,541
36809089,10012,-0.375977,0.695068,0.569458,541
36819111,10022,-0.376099,0.691284,0.568359,534
36829080,9969,-0.374512,0.689209,0.567261,540
36839077,9997,-0.375366,0.685669,0.564087,536
36849074,9997,-0.375977,0.687866,0.563232,537
36859082,10008,-0.375854,0.690674,0.563721,534
36869075,9993,-0.375244,0.693604,0.562744,531
36879073,9998,-0.374634,0.695557,0.561157,529
36889065,9992,-0.371826,0.703247,0.559814,527
36899087,10022,-0.371460,0.703857,0.560059,522
36909068,9981,-0.371704,0.705078,0.559082,524
36919087,10019,-0.373291,0.704224,0.560547,521
36929065,9978,-0.374268,0.703369,0.559814,520
36939089,10024,-0.373413,0.700806,0.561279,515
36949077,9988,-0.374390,0.702026,0.563965,513
36960630,11553,-0.375977,0.702148,0.565674,512
36969073,8443,-0.377808,0.700439,0.567627,515
36979064,9991,-0.377808,0.700562,0.568848,520
36989080,10016,-0.376587,0.701416,0.569092,517
36999116,10036,-0.377197,0.702026,0.571167,513
37009087,9971,-0.377319,0.702881,0.572144,517
37019070,9983,-0.377441,0.704102,0.572632,519
37029078,10008,-0.377441,0.705322,0.572876,515
37039067,9989,-0.376831,0.706421,0.574829,521
37049088,10021,-0.376709,0.703491,0.575439,511
37059086,9998,-0.375854,0.699463,0.577148,512
37069071,9985,-0.375732,0.698608,0.577026,515
37079078,10007,-0.377930,0.696533,0.575928,514
37089083,10005,-0.379395,0.696655,0.575073,515
37099082,9999,-0.380005,0.695435,0.573242,507
37109085,10003,-0.381104,0.693726,0.572266,510
37119074,9989,-0.380371,0.694336,0.568237,512
37129085,10011,-0.380859,0.696533,0.566162,502
37143144,14059,-0.378418,0.700195,0.563965,509
37149078,5934,0.000000,0.000000,0.000000,510
37159084,10006,-0.375732,0.700928,0.563232,497
37169074,9990,-0.377197,0.699829,0.562256,498
37179080,10006,-0.375977,0.699341,0.560547,505
37189076,9996,-0.378296,0.697388,0.559326,503
37199082,10006,-0.379028,0.695557,0.558594,504
37209070,9988,-0.378052,0.692749,0.558838,504
37219077,10007,-0.375732,0.691284,0.555420,502
37229084,10007,-0.376587,0.692017,0.555908,506
37239086,10002,-0.375610,0.694946,0.555664,503
37249214,10128,-0.375244,0.696533,0.555664,506
37259069,9855,-0.375244,0.698364,0.555176,504
37269079,10010,-0.372925,0.700439,0.556396,503
37279066,9987,-0.371948,0.699341,0.556152,502
37289090,10024,-0.371826,0.700195,0.555176,502
37299072,9982,-0.373169,0.700195,0.554687,503
37309070,9998,-0.374268,0.700928,0.553345,505
37319066,9996,-0.375610,0.701172,0.556030,505
37329103,10037,-0.377441,0.705444,0.559692,510
37339082,9979,-0.377075,0.705444,0.563599,513
37349083,10001,-0.380737,0.706299,0.567261,518
37359092,10009,-0.381470,0.706665,0.568970,512
37369089,9997,-0.383179,0.705933,0.568848,527
37379064,9975,-0.384277,0.706543,0.572754,531
37389069,10005,-0.383667,0.705444,0.573120,533
37399091,10022,-0.381958,0.706665,0.575195,536
37409089,9998,-0.379761,0.707886,0.573853,540
37419081,9992,-0.378174,0.708496,0.575195,544
37429091,10010,-0.377808,0.708618,0.573242,538
37439091,10000,-0.374756,0.704712,0.570068,542
37449084,9993,-0.372314,0.700195,0.567993,546
37459075,9991,-0.370850,0.696411,0.565552,537
37469076,10001,-0.369019,0.692871,0.563599,540
37479064,9988,-0.369385,0.692383,0.563721,531
37489088,10024,-0.370728,0.693970,0.561890,534
37499065,9977,-0.371826,0.694214,0.559570,532
37509093,10028,-0.370728,0.695435,0.559570,529
37519084,9991,-0.371094,0.699341,0.559937,528
37529089,10005,-0.371826,0.703003,0.559326,526
37539087,9998,-0.371826,0.704956,0.557739,515
37549088,10001,-0.372070,0.704956,0.557129,519
37559089,10001,-0.371948,0.704468,0.556030,510
37569077,9988,-0.374512,0.702515,0.552856,509
37579076,9999,-0.376099,0.702026,0.551880,513
37589073,9997,-0.377075,0.703369,0.555176,511
37599072,9999,-0.377441,0.703003,0.555786,515
37609092,10020,-0.376709,0.703247,0.558105,517
37619081,9989,-0.376709,0.703247,0.558228,518
37629087,10006,-0.375854,0.705078,0.558105,517
37639066,9979,-0.374023,0.706299,0.560059,512
37649086,10020,-0.371826,0.707031,0.560791,517
37659080,9994,-0.370850,0.704834,0.560181,513
37669067,9987,-0.369751,0.705200,0.560547,515
37679070,10003,-0.367188,0.703979,0.561646,509
37689084,10014,-0.366211,0.700928,0.562500,515
37699074,9990,-0.364990,0.699707,0.561523,516
37709081,10007,-0.366821,0.700073,0.563721,515
37719089,10008,-0.367676,0.703247,0.563843,516
37729082,9993,-0.369873,0.703003,0.563232,511
37739077,9995,-0.369263,0.707275,0.563843,511
37749075,9998,-0.367676,0.709351,0.563110,510
37759069,9994,-0.369385,0.710083,0.565796,507
37769110,10041,-0.368896,0.709839,0.566895,506
37779083,9973,-0.365845,0.707031,0.566284,505
37789065,9982,-0.364380,0.704590,0.566895,506
37799092,10027,-0.365967,0.705322,0.567261,504
37809084,9992,-0.369019,0.704956,0.567017,503
37819088,10004,-0.372925,0.707153,0.569214,503
37829070,9982,-0.374878,0.705078,0.569458,503
37839064,9994,-0.375732,0.702881,0.567139,495
37849080,10016,-0.377319,0.700684,0.564453,500
37859085,10005,-0.376831,0.699707,0.562988,504
37869066,9981,-0.375610,0.696899,0.558228,504
37879073,10007,-0.376587,0.698975,0.556396,493
37889067,9994,-0.379150,0.700806,0.554687,504
37899067,10000,-0.378540,0.704224,0.554932,506
37909067,10000,-0.376099,0.712280,0.558594,496
37919075,10008,-0.373657,0.718872,0.568115,501
37929069,9994,-0.365967,0.729004,0.571045,498
37939064,9995,-0.363892,0.729614,0.574585,494
37949108,10044,-0.363159,0.727661,0.575806,498
37959078,9970,-0.363037,0.724854,0.574951,499
37969074,9996,-0.361938,0.722534,0.574219,500
37979065,9991,-0.362915,0.706665,0.567871,492
37989086,10021,-0.362305,0.698242,0.566284,492
37999092,10006,-0.361816,0.691895,0.564453,507
38009065,9973,-0.361206,0.687500,0.562744,508
38019076,10011,-0.362427,0.684937,0.558716,510
38029064,9988,-0.364746,0.687256,0.553345,504
38039072,10008,-0.367310,0.689087,0.551636,513
38049070,9998,-0.369263,0.693481,0.551880,517
38059075,10005,-0.371826,0.698364,0.553711,511
38069079,10004,-0.372192,0.702759,0.554443,520
38079081,10002,-0.372070,0.704956,0.553711,526
38089087,10006,-0.371704,0.708740,0.550171,526
38099067,9980,-0.372681,0.711548,0.547363,531
38109073,10006,-0.375732,0.714600,0.544678,524
38119086,10013,-0.376099,0.715454,0.541992,534
38129066,9980,-0.376343,0.715454,0.543579,527
38139077,10011,-0.374634,0.718262,0.549561,527
38149075,9998,-0.370605,0.719116,0.556396,526
38159080,10005,-0.363892,0.719604,0.563232,521
38169069,9989,-0.356812,0.720215,0.568115,526
38179076,10007,-0.349609,0.719116,0.571655,526
38189083,10007,-0.346680,0.720093,0.572998,525
38199085,10002,-0.348267,0.717773,0.574951,520
38209069,9984,-0.353882,0.714111,0.573486,519
38219088,10019,-0.357178,0.705933,0.567749,519
38229086,9998,-0.356201,0.699463,0.563354,518
38239088,10002,-0.356079,0.695190,0.562744,514
38249064,9976,-0.354736,0.703735,0.561157,506
38259084,10020,-0.356567,0.709961,0.563232,514
38269078,9994,-0.360229,0.712524,0.564087,515
38279106,10028,-0.364624,0.709717,0.564331,514
38289074,9968,-0.371460,0.707520,0.564209,513
38299087,10013,-0.375732,0.706787,0.562012,515
38309067,9980,-0.374878,0.705200,0.560913,512
38319083,10016,-0.373535,0.705444,0.562256,513
38329113,10030,-0.372070,0.705811,0.561523,507
38339075,9962,-0.371948,0.707275,0.561646,505
38349083,10008,-0.373047,0.708618,0.564331,505
38359089,10006,-0.370239,0.709106,0.562744,511
38369079,9990,-0.371216,0.707642,0.561768,502
38379066,9987,-0.369995,0.706543,0.560913,502
38389086,10020,-0.369263,0.703369,0.560791,498
38399083,9997,-0.366943,0.700317,0.558716,495
38409075,9992,-0.367676,0.700317,0.560303,492
38419085,10010,-0.368408,0.707764,0.563843,490
38429071,9986,-0.366577,0.711060,0.568481,487
38439074,10003,-0.365845,0.714233,0.571899,476
38449077,10003,-0.366455,0.715332,0.572021,480
38459074,9997,-0.364868,0.714478,0.571533,486
38469087,10013,-0.367676,0.710327,0.569946,489
38479067,9980,-0.366577,0.703857,0.568481,489
38489083,10016,-0.366089,0.699219,0.566528,491
38499069,9986,-0.367065,0.695557,0.564331,497
38509092,10023,-0.368896,0.695679,0.565308,497
38519070,9978,-0.371704,0.702393,0.564819,503
38529083,10013,-0.372803,0.704956,0.563232,507
38539088,10005,-0.371948,0.707397,0.562622,510
38549084,9996,-0.371460,0.707397,0.562256,511
38559071,9987,-0.370728,0.706543,0.561401,512
38569086,10015,-0.370361,0.706421,0.559326,509
38579089,10003,-0.372925,0.707764,0.557007,512
38589082,9993,-0.375488,0.708496,0.556763,511
38599065,9983,-0.374634,0.711060,0.556885,504
38609076,10011,-0.372803,0.715210,0.557129,504
38619088,10012,-0.371582,0.716675,0.556885,505
38629069,9981,-0.376953,0.715454,0.557373,501
38639091,10022,-0.378540,0.713501,0.559570,494
38649072,9981,-0.375366,0.709106,0.557739,500
38659108,10036,-0.373413,0.704346,0.557251,499
38669067,9959,-0.370605,0.698486,0.560425,490
38679079,10012,-0.369141,0.695557,0.559814,495
38689090,10011,-0.371704,0.699341,0.558960,496
38699070,9980,-0.371216,0.700684,0.560913,496
38709085,10015,-0.374146,0.699585,0.561646,502
38719089,10004,-0.373291,0.697144,0.559692,502
38729074,9985,-0.372437,0.693848,0.556030,504
38739085,10011,-0.375000,0.689697,0.551270,503
38749080,9995,-0.374023,0.692383,0.550903,496
38759078,9998,-0.369263,0.699463,0.553711,503
38769092,10014,-0.364868,0.706665,0.552734,502
38779071,9979,-0.362671,0.713867,0.555298,500
38789078,10007,-0.364624,0.723633,0.593140,500
38799074,9996,-0.373901,0.735718,0.572754,495
38809085,10011,-0.378174,0.733032,0.575439,498
38819081,9996,-0.379028,0.724121,0.576050,508
38829084,10003,-0.378906,0.715576,0.576660,512
38839083,9999,-0.375732,0.706177,0.575317,515
38849067,9984,-0.375000,0.698242,0.571777,519
38859078,10011,-0.370972,0.698120,0.573120,521
38869069,9991,-0.365356,0.699097,0.574097,524
38879064,9995,-0.359985,0.699707,0.578979,531
38889079,10015,-0.358154,0.700195,0.581421,531
38899066,9987,-0.359009,0.700562,0.581177,533
38909080,10014,-0.365601,0.702515,0.580933,533
38919071,9991,-0.367676,0.701294,0.578491,534
38929073,10002,-0.369141,0.697388,0.576294,524
38939084,10011,-0.367310,0.694092,0.576050,524
38949077,9993,-0.362793,0.692261,0.573853,532
38959074,9997,-0.361084,0.695190,0.574097,529
38969065,9991,-0.364868,0.698975,0.573364,527
38979082,10017,-0.368164,0.703125,0.573120,528
38989088,10006,-0.370239,0.700562,0.571655,526
38999091,10003,-0.372803,0.699219,0.571167,525
39009071,9980,-0.379028,0.696167,0.564575,520
39019082,10011,-0.377563,0.696411,0.562134,522
39029082,10000,-0.374390,0.696167,0.559326,527
39039079,9997,-0.373169,0.696045,0.557373,526
39049085,10006,-0.371826,0.697510,0.556030,522
39059100,10015,-0.368408,0.698975,0.555664,517
39069064,9964,-0.367432,0.696899,0.555786,525
39079066,10002,-0.367798,0.694824,0.554932,520
39089064,9998,-0.369385,0.696411,0.554077,517
39099081,10017,-0.368896,0.698608,0.554321,509
39109088,10007,-0.367065,0.700928,0.554443,505
39119080,9992,-0.360718,0.702271,0.556152,511
39129081,10001,-0.361084,0.703125,0.558472,512
39139074,9993,-0.363037,0.705811,0.560791,509
39149091,10017,-0.364868,0.707031,0.562256,507
39159080,9989,-0.365967,0.706299,0.563110,508
39169091,10011,-0.365601,0.704102,0.565796,507
39179087,9996,-0.369019,0.705078,0.565674,507
39189065,9978,-0.369263,0.706665,0.566162,508
39199087,10022,-0.369751,0.707031,0.566162,506
39209073,9986,-0.369873,0.706787,0.566406,503
39219093,10020,-0.369629,0.708740,0.566772,508
39229081,9988,-0.368530,0.712036,0.570312,514
39239098,10017,-0.366821,0.710205,0.574219,514
39249088,9990,-0.366333,0.707153,0.572998,513
39259088,10000,-0.366699,0.704834,0.574707,516
39269078,9990,-0.368408,0.704224,0.574219,517
39279081,10003,-0.372070,0.703735,0.572388,514
39289091,10010,-0.370972,0.703003,0.571289,516
39299080,9989,-0.370117,0.703369,0.568359,514
39309086,10006,-0.368530,0.703735,0.567017,514
39319082,9996,-0.365967,0.704346,0.567261,510
39329090,10008,-0.362549,0.706665,0.567505,506
39339085,9995,-0.360107,0.707153,0.566650,505
39349084,9999,-0.360840,0.708984,0.567017,502
39359086,10002,-0.361938,0.707764,0.567139,499
39369070,9984,-0.361938,0.704346,0.567627,501
39379065,9995,-0.360229,0.700806,0.567627,494
39389072,10007,-0.363281,0.696777,0.566772,501
39399090,10018,-0.363770,0.696167,0.568481,501
39409111,10021,-0.364136,0.697021,0.569336,502
39419092,9981,-0.364014,0.696777,0.570312,497
39429074,9982,-0.365479,0.696411,0.570312,495
39439090,10016,-0.365723,0.698608,0.571045,495
39449069,9979,-0.365723,0.700317,0.571899,505
39459067,9998,-0.364380,0.700439,0.572510,492
39469087,10020,-0.361816,0.699951,0.570923,501
39479071,9984,-0.360229,0.701294,0.568848,495
39489070,9999,-0.358521,0.702881,0.568848,504
39499071,10001,-0.362793,0.706177,0.566650,506
39509081,10010,-0.366943,0.705688,0.567017,507
39519071,9990,-0.366089,0.704346,0.566162,512
39529079,10008,-0.365967,0.703247,0.564453,513
39539104,10025,-0.364868,0.702881,0.563843,517
39549085,9981,-0.364502,0.703125,0.566528,519
39559071,9986,-0.363159,0.706543,0.568237,522
39569064,9993,-0.362061,0.708008,0.570068,524
39579115,10051,-0.359985,0.704956,0.570068,525
39589067,9952,-0.358398,0.702515,0.571899,530
39599073,10006,-0.355591,0.699341,0.575073,526
39609065,9992,-0.349609,0.693481,0.578247,525
39619088,10023,-0.348877,0.691040,0.578857,532
39629093,10005,-0.347900,0.687256,0.577637,530
39639073,9980,-0.346558,0.683350,0.575928,527
39649082,10009,-0.348999,0.683105,0.578247,528
39659071,9989,-0.349487,0.682007,0.579346,519
39669081,10010,-0.349487,0.678589,0.579712,520
39679072,9991,-0.348999,0.679687,0.580444,526
39689091,10019,-0.351563,0.683960,0.579712,524
39699087,9996,-0.352173,0.692505,0.580811,522
39709089,10002,-0.353516,0.705322,0.583496,517
39719088,9999,-0.356934,0.731323,0.586060,516
39729088,10000,-0.356812,0.738159,0.584595,516
39739092,10004,-0.356812,0.738525,0.582397,504
39749073,9981,-0.357544,0.734741,0.580078,512
39759091,10018,-0.358276,0.726440,0.579346,511
39769094,10003,-0.358154,0.710571,0.576050,508
39779069,9975,-0.356689,0.704834,0.575073,509
39789064,9995,-0.356812,0.701294,0.573120,510
39799090,10026,-0.359375,0.700928,0.572876,510
39809092,10002,-0.358276,0.700439,0.571167,513
39819067,9975,-0.358276,0.699219,0.569092,514
39829079,10012,-0.354736,0.696167,0.567383,516
39839071,9992,-0.352783,0.694824,0.568604,517
39849085,10014,-0.350952,0.693970,0.569702,513
39859080,9995,-0.349121,0.693237,0.570679,511
39869078,9998,-0.350830,0.694946,0.568726,512
39879081,10003,-0.354126,0.704468,0.570801,514
39889093,10012,-0.355469,0.710449,0.570801,505
39899084,9991,-0.354614,0.714111,0.572388,503
39909073,9989,-0.354614,0.715698,0.572021,510
39919089,10016,-0.354492,0.714844,0.573242,511
39929071,9982,-0.352051,0.711670,0.574463,514
39939080,10009,-0.349609,0.707031,0.576782,507
39949090,10010,-0.349121,0.704712,0.578247,511
39959081,9991,-0.349121,0.706055,0.580078,512
39969081,10000,-0.352051,0.707031,0.580078,511
39979067,9986,-0.354004,0.708496,0.580078,511
39989090,10023,-0.351196,0.709106,0.581665,503
39999084,9994,-0.348633,0.709351,0.581909,502
40009086,10002,-0.348022,0.710205,0.580688,510
40019089,10003,-0.348999,0.710815,0.580200,509
40029084,9995,-0.347168,0.710327,0.579834,510
40039085,10001,-0.348267,0.705200,0.578247,505
40049077,9992,-0.349365,0.702393,0.579224,511
40059068,9991,-0.351807,0.700195,0.579224,506
40069086,10018,-0.353638,0.701294,0.578491,513
40079087,10001,-0.355225,0.701172,0.578735,513
40089066,9979,-0.355469,0.700806,0.579102,514
40099078,10012,-0.356567,0.702515,0.577759,512
40109081,10003,-0.356445,0.704102,0.575928,512
40119745,10664,-0.355835,0.704102,0.575195,504
40129085,9340,-0.355957,0.702759,0.572998,510
40139068,9983,-0.354126,0.701904,0.571045,505
40149084,10016,-0.354248,0.700562,0.566162,500
40159092,10008,-0.353760,0.702026,0.564941,507
40169091,9999,-0.353516,0.703857,0.564819,503
40179094,10003,-0.352661,0.705566,0.566162,509
40189075,9981,-0.350830,0.705078,0.567139,501
40199066,9991,-0.353638,0.704712,0.568359,512
40209078,10012,-0.355957,0.700317,0.567993,511
40219071,9993,-0.358521,0.700195,0.568115,517
40229088,10017,-0.360352,0.699585,0.569092,518
40239082,9994,-0.361938,0.699341,0.568604,516
40249087,10005,-0.362305,0.698975,0.568237,523
40259087,10000,-0.359863,0.701538,0.571167,528
40269086,9999,-0.358887,0.702881,0.572021,528
40279074,9988,-0.358887,0.706055,0.574829,522
40289081,10007,-0.358032,0.705078,0.572266,527
40299066,9985,-0.357056,0.703125,0.571899,530
40309077,10011,-0.357788,0.701782,0.571167,529
40319079,10002,-0.357788,0.702393,0.571045,531
40329064,9985,-0.356079,0.705566,0.571899,529
40339089,10025,-0.356201,0.709351,0.572388,527
40349093,10004,-0.355957,0.711914,0.571045,527
40359077,9984,-0.354492,0.711792,0.573120,522
40369091,10014,-0.356201,0.708862,0.572021,515
40379067,9976,-0.355225,0.705566,0.571655,506
40389083,10016,-0.355591,0.703003,0.572876,519
40399088,10005,-0.358398,0.699829,0.573364,518
40409071,9983,-0.360474,0.700684,0.572266,516
40419072,10001,-0.362549,0.703491,0.572510,509
40429082,10010,-0.364380,0.704102,0.572021,514
40439091,10009,-0.364258,0.706177,0.571655,514
40449087,9996,-0.364258,0.707031,0.570801,512
40459084,9997,-0.364136,0.706787,0.569702,515
40469068,9984,-0.363281,0.705688,0.568726,517
40479064,9996,-0.361450,0.706177,0.563965,514
40489081,10017,-0.359497,0.706299,0.562134,513
40499092,10011,-0.359131,0.708252,0.563477,514
40509077,9985,-0.357666,0.709229,0.563721,516
40519080,10003,-0.357056,0.709473,0.565918,518
40529075,9995,-0.355835,0.706421,0.568115,516
40539068,9993,-0.356812,0.702515,0.569580,515
40549082,10014,-0.354614,0.699097,0.571411,515
40559066,9984,-0.353271,0.698975,0.571655,516
40569080,10014,-0.355713,0.699707,0.569946,514
40579076,9996,-0.357178,0.699585,0.570923,516
40589082,10006,-0.356445,0.701782,0.570435,508
40599082,10000,-0.355347,0.703369,0.570068,515
40609072,9990,-0.356079,0.704102,0.570923,514
40619066,9994,-0.354858,0.704224,0.571411,515
40629084,10018,-0.354614,0.704102,0.574341,514
40639087,10003,-0.355103,0.703125,0.576172,511
40649092,10005,-0.356323,0.703491,0.577515,512
40659085,9993,-0.358643,0.703735,0.578247,506
40669064,9979,-0.359253,0.703003,0.577393,509
40679069,10005,-0.359741,0.702881,0.577637,501
40689071,10002,-0.360229,0.702393,0.576904,512
40699076,10005,-0.361206,0.706909,0.575562,511
40709081,10005,-0.362427,0.707031,0.573730,505
40719067,9986,-0.361816,0.706299,0.573608,512
40729089,10022,-0.361572,0.706421,0.573120,513
40739082,9993,-0.360229,0.705444,0.571777,511
40749086,10004,-0.363403,0.703613,0.569214,511
40759079,9993,-0.364868,0.703491,0.567627,509
40769068,9989,-0.364868,0.703125,0.568237,511
40779087,10019,-0.365967,0.701538,0.566162,506
40789068,9981,-0.365845,0.700684,0.567017,509
40799076,10008,-0.363892,0.695312,0.569702,507
40809078,10002,-0.360962,0.692749,0.572632,505
40819075,9997,-0.359741,0.691162,0.574829,510
40829081,10006,-0.361694,0.692017,0.576538,508
40839086,10005,-0.366699,0.691162,0.575928,510
40849078,9992,-0.370361,0.692383,0.576538,511
40859091,10013,-0.371460,0.696533,0.580078,505
40869085,9994,-0.370483,0.699829,0.581177,507
40879073,9988,-0.367920,0.703125,0.580566,518
40889070,9997,-0.366943,0.708008,0.578247,517
40899067,9997,-0.367554,0.713379,0.578979,520
40909079,10012,-0.364258,0.721069,0.579468,517
40919093,10014,-0.361816,0.719971,0.576416,521
40929083,9990,-0.361572,0.717407,0.572144,524
40939104,10021,-0.362183,0.716431,0.570435,522
40949066,9962,-0.362183,0.713135,0.568848,523
40959077,10011,-0.361694,0.709351,0.565674,528
40969091,10014,-0.358643,0.696289,0.566650,528
40979120,10029,-0.357422,0.692627,0.566406,527
40989084,9964,-0.358643,0.690308,0.563477,531
40999082,9998,-0.361206,0.691162,0.564087,528
41009085,10003,-0.362427,0.692017,0.566284,528
41019083,9998,-0.358398,0.691284,0.568848,528
41029093,10010,-0.357910,0.689819,0.568115,527
41039070,9977,-0.354614,0.687744,0.567871,527
41049076,10006,-0.352905,0.685913,0.567139,516
41059074,9998,-0.350464,0.686523,0.568237,524
41069081,10007,-0.353027,0.685669,0.567993,515
41079065,9984,-0.355103,0.686890,0.567993,519
41089074,10009,-0.357422,0.688477,0.568604,511
41099070,9996,-0.358765,0.690674,0.572021,509
41109079,10009,-0.360718,0.694824,0.571655,510
41119106,10027,-0.361572,0.697021,0.571655,510
41129093,9987,-0.362061,0.703491,0.574219,510
41139069,9976,-0.360962,0.704590,0.573975,510
41149073,10004,-0.362183,0.705811,0.572876,511
41159081,10008,-0.364624,0.705566,0.571411,511
41169090,10009,-0.366211,0.706909,0.570435,512
41179086,9996,-0.368286,0.708984,0.567017,505
41189084,9998,-0.364868,0.709351,0.565918,514
41199091,10007,-0.364014,0.710571,0.565308,514
41209074,9983,-0.363403,0.711304,0.564331,512
41219086,10012,-0.364014,0.710937,0.563965,506
41229088,10002,-0.362915,0.710571,0.562012,514
41239083,9995,-0.363770,0.703735,0.565063,514
41249084,10001,-0.362915,0.700562,0.566528,506
41259066,9982,-0.362061,0.698975,0.566650,515
41269064,9998,-0.361084,0.696411,0.568604,508
41279089,10025,-0.359863,0.696777,0.568359,513
41289072,9983,-0.357300,0.694458,0.569458,509
41299077,10005,-0.356934,0.693604,0.568359,509
41309088,10011,-0.359375,0.692261,0.570801,504
41319076,9988,-0.364380,0.691895,0.571167,503
41329116,10040,-0.366821,0.692017,0.568726,512
41339078,9962,-0.372070,0.691895,0.568604,512
41349087,10009,-0.377441,0.694702,0.573975,510
41359086,9999,-0.377808,0.700562,0.574707,507
41369081,9995,-0.376587,0.705444,0.574463,507
41379091,10010,-0.373779,0.710571,0.578491,504
41389091,10000,-0.369385,0.715088,0.578979,505
41399064,9973,-0.361572,0.719116,0.578491,498
41409066,10002,-0.358643,0.719116,0.577148,502
41419085,10019,-0.358643,0.717163,0.575195,506
41429066,9981,-0.359375,0.715332,0.572998,505
41439071,10005,-0.361328,0.712402,0.571533,502
41449081,10010,-0.362305,0.712646,0.569946,498
41459076,9995,-0.352051,0.714233,0.569458,502
41469075,9999,-0.347168,0.714966,0.571045,507
41479066,9991,-0.345703,0.714722,0.572510,507
41489084,10018,-0.343872,0.714355,0.574219,510
41499078,9994,-0.345215,0.711426,0.576904,504
41509089,10011,-0.350342,0.702759,0.574463,516
41519076,9987,-0.354858,0.699341,0.572754,513
41529085,10009,-0.358398,0.695435,0.573242,525
41539080,9995,-0.357666,0.695312,0.574219,526
41549076,9996,-0.353638,0.696167,0.572876,531
41559089,10013,-0.357422,0.701050,0.570190,533
41569068,9979,-0.359985,0.700562,0.567993,538
41579066,9998,-0.360962,0.700317,0.566895,539
41589069,10003,-0.359497,0.698730,0.562012,533
41599089,10020,-0.358765,0.694458,0.559204,543
41609074,9985,-0.359985,0.691528,0.560547,531
41619093,10019,-0.361816,0.691772,0.556274,540
41629075,9982,-0.366089,0.694702,0.552856,535
41639068,9993,-0.369629,0.697266,0.551147,527
41649083,10015,-0.372681,0.701172,0.552612,525
41659065,9982,-0.374390,0.706665,0.557251,530
41669084,10019,-0.372192,0.716187,0.560059,522
41679084,10000,-0.366455,0.722290,0.563965,526
41689091,10007,-0.361328,0.729980,0.567261,518
41699093,10002,-0.354736,0.738647,0.572510,506
41709094,10001,-0.349609,0.744141,0.577759,510
41719093,9999,-0.350342,0.743774,0.582275,511
41729077,9984,-0.352783,0.727173,0.586182,511
41739072,9995,-0.354248,0.714600,0.584229,511
41749082,10010,-0.355591,0.702637,0.583984,507
41759091,10009,-0.354614,0.696045,0.585449,514
41769091,10000,-0.351074,0.694580,0.587524,515
41779069,9978,-0.347778,0.703125,0.590576,507
41789064,9995,-0.345825,0.709839,0.592407,508
41799092,10028,-0.343628,0.716797,0.592163,518
41809065,9973,-0.343506,0.721191,0.587524,520
41819074,10009,-0.346313,0.722778,0.584473,515
41829090,10016,-0.347168,0.721558,0.579102,519
41839064,9974,-0.345703,0.711548,0.567139,517
41849096,10032,-0.345581,0.707397,0.564941,507
41859093,9997,-0.346436,0.703003,0.564331,509
41869085,9992,-0.346802,0.700195,0.567383,513
41879071,9986,-0.347656,0.696167,0.567017,513
41889079,10008,-0.350220,0.689941,0.570068,514
41899068,9989,-0.350464,0.689087,0.568115,515
41909065,9997,-0.350830,0.691772,0.565430,517
41919076,10011,-0.354004,0.694214,0.560059,513
41929078,10002,-0.355469,0.697510,0.556396,517
41939076,9998,-0.356689,0.700439,0.547852,513
41949070,9994,-0.356445,0.701782,0.545044,513
41959085,10015,-0.356812,0.703491,0.543701,511
41969087,10002,-0.358032,0.705688,0.545776,510
41979070,9983,-0.356934,0.706177,0.546753,508
41989077,10007,-0.355713,0.706665,0.548462,498
41999083,10006,-0.355103,0.711548,0.548218,498
42009088,10005,-0.355469,0.714355,0.547729,504
42019065,9977,-0.356323,0.717651,0.546753,497
42029085,10020,-0.358521,0.718262,0.546631,503
42039067,9982,-0.358398,0.715210,0.550293,503
42049065,9998,-0.357056,0.713379,0.555786,495
42059086,10021,-0.351074,0.713867,0.560913,501
42069067,9981,-0.350098,0.716553,0.564331,500
42079078,10011,-0.348267,0.718872,0.566772,500
42089069,9991,-0.348755,0.720581,0.568970,495
42099094,10025,-0.349976,0.718140,0.568604,504
42109091,9997,-0.350708,0.709473,0.567017,503
42119084,9993,-0.354004,0.702637,0.564941,505
42129079,9995,-0.357788,0.697998,0.563232,510
42139091,10012,-0.359985,0.694824,0.564087,524
42149080,9989,-0.359497,0.692627,0.565796,527
42159072,9992,-0.359009,0.701782,0.567017,523
42169074,10002,-0.356812,0.709839,0.568726,526
42179076,10002,-0.356079,0.716675,0.570801,537
42189083,10007,-0.350708,0.721802,0.571533,539
42199090,10007,-0.347656,0.723267,0.572388,536
42209079,9989,-0.346680,0.724121,0.575073,528
42219073,9994,-0.350464,0.722290,0.578491,533
42229077,10004,-0.354492,0.720947,0.576050,537
42239088,10011,-0.358154,0.717773,0.574585,524
42249080,9992,-0.360962,0.714844,0.571655,532
42259092,10012,-0.361328,0.713257,0.571777,528
42269065,9973,-0.355713,0.713501,0.571289,529
42279070,10005,-0.353394,0.713623,0.570557,531
42289079,10009,-0.352539,0.714722,0.570190,525
42299071,9992,-0.353027,0.714233,0.568848,527
42309093,10022,-0.353760,0.714966,0.564331,520
42319079,9986,-0.356689,0.714600,0.563843,525
42329068,9989,-0.357422,0.708862,0.560425,521
42339072,10004,-0.357056,0.706421,0.557373,519
42349093,10021,-0.357300,0.702026,0.555054,519
42359090,9997,-0.356934,0.699585,0.555298,518
42369090,10000,-0.357788,0.698242,0.556641,518
42379091,10001,-0.362305,0.697510,0.556030,516
42389080,9989,-0.363403,0.698608,0.554687,518
42399086,10006,-0.364746,0.701050,0.554565,515
42409072,9986,-0.367310,0.704834,0.555054,507
42419082,10010,-0.365601,0.708618,0.555298,515
42429098,10016,-0.364258,0.712402,0.554932,515
42439066,9968,-0.361206,0.715454,0.557129,512
42449084,10018,-0.362915,0.716064,0.560547,518
42459075,9991,-0.364136,0.718140,0.563354,519
42469083,10008,-0.366211,0.719360,0.565308,509
42479092,10009,-0.365845,0.719482,0.569214,515
42489087,9995,-0.359131,0.719727,0.572266,517
42499089,10002,-0.357178,0.720215,0.571655,510
42509087,9998,-0.357788,0.722534,0.570801,505
42519082,9995,-0.358154,0.722656,0.570190,517
42529086,10004,-0.357666,0.721191,0.569824,506
42539078,9992,-0.356567,0.716064,0.566650,502
42549089,10011,-0.354858,0.714355,0.566772,505
42559078,9989,-0.355103,0.716919,0.566650,501
42569070,9992,-0.354492,0.719604,0.568848,499
42579067,9997,-0.352783,0.722900,0.570312,508
42589068,10001,-0.352295,0.723877,0.570923,503
42599077,10009,-0.352539,0.723999,0.570190,508
42609084,10007,-0.349976,0.723267,0.569092,501
42619078,9994,-0.347778,0.720337,0.568848,504
42629079,10001,-0.345947,0.717041,0.568359,504
42639108,10029,-0.344604,0.712402,0.567871,504
42649081,9973,-0.343994,0.702637,0.567017,501
42659082,10001,-0.344604,0.698975,0.566284,501
42669083,10001,-0.345215,0.695923,0.564453,512
42679077,9994,-0.348389,0.694580,0.562256,513
42689074,9997,-0.350586,0.695190,0.559448,515
42699066,9992,-0.351685,0.695190,0.560425,508
42709093,10027,-0.355103,0.696289,0.559082,520
42719088,9995,-0.355591,0.697266,0.560181,520
42729082,9994,-0.355103,0.699829,0.560303,523
42739090,10008,-0.355713,0.703247,0.562622,528
42749067,9977,-0.357300,0.707153,0.562988,531
42759068,10001,-0.357544,0.708008,0.559448,535
42769071,10003,-0.357422,0.707642,0.558838,535
42779074,10003,-0.357910,0.708374,0.556885,537
42789090,10016,-0.359253,0.710327,0.555420,533
42799089,9999,-0.358643,0.713257,0.555298,537
42809081,9992,-0.358521,0.714111,0.554077,538
42819065,9984,-0.355103,0.716187,0.556030,537
42829085,10020,-0.354858,0.718872,0.557983,528
42839092,10007,-0.354736,0.720215,0.559082,533
42849088,9996,-0.356323,0.720459,0.560425,531
42859085,9997,-0.356689,0.718872,0.559937,530
42869091,10006,-0.360474,0.712158,0.562622,527
42879071,9980,-0.359375,0.707886,0.564941,525
42889083,10012,-0.359253,0.706787,0.566895,521
42899088,10005,-0.359497,0.706177,0.568115,520
42909089,10001,-0.358521,0.706421,0.569946,520
42919070,9981,-0.359009,0.707031,0.569824,518
42929089,10019,-0.357910,0.704834,0.568970,512
42939068,9979,-0.358887,0.705566,0.567871,518
42949094,10026,-0.358765,0.706177,0.567871,516
42959084,9990,-0.357544,0.707642,0.567505,515
42969068,9984,-0.356079,0.708740,0.566162,513
42979067,9999,-0.355347,0.714844,0.564209,515
42989074,10007,-0.354126,0.716919,0.564697,512
42999074,10000,-0.355591,0.718506,0.564087,515
43009081,10007,-0.357178,0.716309,0.561401,515
43019085,10004,-0.358276,0.712280,0.559082,515
43029093,10008,-0.360352,0.707153,0.555908,510
43039070,9977,-0.365479,0.702515,0.555542,510
43049080,10010,-0.369385,0.705444,0.554565,518
43059070,9990,-0.371948,0.709717,0.553589,519
43069104,10034,-0.370728,0.713501,0.555664,514
43079069,9965,-0.368164,0.716553,0.558960,522
43089085,10016,-0.366455,0.716064,0.559814,515
43099072,9987,-0.365234,0.714722,0.557495,518
43109072,10000,-0.366089,0.715454,0.555054,521
43119077,10005,-0.368408,0.716797,0.551636,515
43129080,10003,-0.368408,0.715942,0.548462,520
43139081,10001,-0.365234,0.716675,0.541016,517
43149082,10001,-0.364502,0.715820,0.540039,513
43159083,10001,-0.365112,0.714966,0.539429,503
43169068,9985,-0.364136,0.715088,0.541260,507
43179078,10010,-0.362427,0.714722,0.545288,499
43189080,10002,-0.359131,0.713867,0.548950,507
43199064,9984,-0.353149,0.717163,0.556274,506
43209075,10011,-0.352295,0.717773,0.558594,503
43219106,10031,-0.354980,0.720459,0.559814,503
43229093,9987,-0.357544,0.723022,0.559937,498
43239081,9988,-0.359741,0.722900,0.559570,500
43249087,10006,-0.354858,0.718262,0.560913,496
43259116,10029,-0.351685,0.717163,0.563354,504
43269085,9969,-0.349609,0.717285,0.565918,496
43279073,9988,-0.347412,0.717651,0.569092,497
43289081,10008,-0.345947,0.718384,0.570923,511
43299079,9998,-0.345703,0.717285,0.570557,510
43309081,10002,-0.353271,0.713379,0.564209,509
43319077,9996,-0.356201,0.710449,0.561401,517
43329077,10000,-0.355957,0.708618,0.559814,520
43339071,9994,-0.355225,0.707764,0.558472,525
43349069,9998,-0.355103,0.708740,0.555908,529
43359077,10008,-0.355225,0.709351,0.554443,525
43369067,9990,-0.355469,0.712158,0.554077,526
43379074,10007,-0.355835,0.714478,0.555298,526
43389082,10008,-0.358276,0.717041,0.558472,531
43399079,9997,-0.360718,0.721680,0.559692,536
43409101,10022,-0.361328,0.721191,0.557617,539
43419068,9967,-0.360229,0.718384,0.557617,529
43429064,9996,-0.360962,0.721802,0.556152,537
43439093,10029,-0.359863,0.725220,0.553833,537
43449103,10010,-0.358398,0.726807,0.552368,532
43459065,9962,-0.356567,0.724121,0.551880,523
43469076,10011,-0.354248,0.712891,0.546631,530
43479090,10014,-0.354492,0.707031,0.544312,528
43489091,10001,-0.358521,0.704956,0.543579,518
43499091,10000,-0.364136,0.700928,0.544556,526
43509075,9984,-0.367798,0.700439,0.547974,524
43519077,10002,-0.369629,0.703979,0.545166,521
43529079,10002,-0.377075,0.707764,0.545410,522
43539091,10012,-0.376953,0.714233,0.548706,520
43549085,9994,-0.375244,0.722656,0.552856,518
43559090,10005,-0.374634,0.729126,0.556030,512
43569083,9993,-0.375244,0.732666,0.555420,516
43581619,12536,-0.374756,0.733643,0.554077,512
43589066,7447,-0.371826,0.730835,0.555420,516
43599105,10039,-0.369751,0.728271,0.553711,509
43609081,9976,-0.367798,0.723511,0.552002,515
43619090,10009,-0.364502,0.721558,0.548706,510
43629088,9998,-0.361084,0.716553,0.543457,516
43639092,10004,-0.360962,0.712769,0.542969,517
43649088,9996,-0.361572,0.708374,0.542725,517
43659093,10005,-0.361328,0.706299,0.544556,516
43669079,9986,-0.360718,0.704956,0.547729,518
43679092,10013,-0.361084,0.704102,0.549072,512
43689080,9988,-0.361694,0.704956,0.550171,517
43699091,10011,-0.362305,0.707520,0.552124,516
43709067,9976,-0.364990,0.708984,0.555054,515
43719072,10005,-0.366821,0.713867,0.556519,515
43729079,10007,-0.367798,0.716919,0.558105,515
43739089,10010,-0.368164,0.722778,0.555542,513
43749091,10002,-0.368774,0.724731,0.553345,513
43759073,9982,-0.368042,0.727905,0.551270,511
43769068,9995,-0.366333,0.730713,0.549438,503
43779091,10023,-0.363281,0.734497,0.545776,511
43789104,10013,-0.361084,0.737671,0.545654,508
43799069,9965,-0.358276,0.739990,0.546143,509
43809092,10023,-0.357788,0.738159,0.547119,509
43819083,9991,-0.359009,0.733765,0.547974,506
43829119,10036,-0.358032,0.727661,0.549683,508
43839085,9966,-0.355957,0.723999,0.551758,505
43849068,9983,-0.358154,0.719360,0.552612,509
43859073,10005,-0.359619,0.719116,0.553467,510
43869079,10006,-0.357910,0.717529,0.554932,510
43879066,9987,-0.356079,0.716187,0.557373,512
43889082,10016,-0.354248,0.715698,0.559448,507
43899066,9984,-0.353149,0.713745,0.561157,508
43909083,10017,-0.355591,0.711914,0.560791,518
43919070,9987,-0.356445,0.708862,0.560669,521
43929074,10004,-0.357544,0.707031,0.558594,525
43939094,10020,-0.356567,0.706421,0.558350,529
43949077,9983,-0.356689,0.709473,0.555420,530
43959066,9989,-0.353882,0.721802,0.554810,530
43969075,10009,-0.352539,0.726929,0.555420,531
43979072,9997,-0.351807,0.730347,0.555786,529
43989080,10008,-0.348267,0.729980,0.556152,536
43999064,9984,-0.346436,0.728516,0.557861,536
44009066,10002,-0.347900,0.722168,0.562256,535
44019078,10012,-0.352417,0.717651,0.563232,534
44029085,10007,-0.354980,0.712036,0.562622,523
44039090,10005,-0.357910,0.704956,0.562134,526
44049080,9990,-0.357666,0.700562,0.561035,521
44059086,10006,-0.356079,0.698486,0.559570,528
44069092,10006,-0.354370,0.703247,0.559814,524
44079076,9984,-0.352417,0.706787,0.561768,522
44089070,9994,-0.350342,0.710449,0.562622,515
44099071,10001,-0.348877,0.714355,0.561523,518
44109066,9995,-0.346802,0.715942,0.561401,516
44119089,10023,-0.347046,0.715820,0.559814,515
44129067,9978,-0.346680,0.715576,0.558594,514
44139088,10021,-0.348145,0.713745,0.556030,515
44149090,10002,-0.352051,0.711182,0.554443,513
44159090,10000,-0.356079,0.709839,0.554932,510
44169089,9999,-0.356567,0.708008,0.556030,509
44179073,9984,-0.356689,0.706299,0.552979,518
44189073,10000,-0.355103,0.707520,0.554565,520
44199105,10032,-0.353271,0.710327,0.555054,519
44209084,9979,-0.351685,0.712891,0.555176,517
44219081,9997,-0.351807,0.715454,0.553467,520
44229070,9989,-0.350220,0.718872,0.553345,521
44239078,10008,-0.349121,0.719727,0.554810,516
44249078,10000,-0.350586,0.719360,0.555786,516
44259080,10002,-0.351318,0.719238,0.554687,516
44269079,9999,-0.354980,0.719727,0.555908,509
44279087,10008,-0.354980,0.719238,0.555786,512
44289092,10005,-0.354370,0.716675,0.556519,515
44299086,9994,-0.352295,0.715820,0.557983,514
44309080,9994,-0.351440,0.714722,0.559204,513
44319070,9990,-0.350952,0.715820,0.558105,506
44329083,10013,-0.350464,0.716431,0.559082,507
44339080,9997,-0.349487,0.715088,0.558716,503
44349093,10013,-0.347534,0.715210,0.558105,504
44359093,10000,-0.346558,0.715576,0.557251,501
44369083,9990,-0.347168,0.714844,0.557007,510
44379066,9983,-0.347290,0.714844,0.556885,500
44389069,10003,-0.347168,0.714600,0.558350,501
44399085,10016,-0.344360,0.714844,0.560425,512
44409100,10015,-0.344360,0.715210,0.562134,509
44419073,9973,-0.344971,0.715820,0.562134,507
44429091,10018,-0.346436,0.715942,0.563110,494
44439071,9980,-0.346313,0.717041,0.563110,511
44449076,10005,-0.346802,0.719238,0.564209,505
44459066,9990,-0.345947,0.719360,0.565552,511
44469068,10002,-0.347290,0.720581,0.565674,509
44479077,10009,-0.349365,0.721802,0.567261,517
44489082,10005,-0.350342,0.723511,0.566528,519
44499069,9987,-0.349609,0.726562,0.565796,519
44509080,10011,-0.346436,0.726440,0.565796,526
44519085,10005,-0.345703,0.726440,0.565552,529
44529089,10004,-0.345093,0.725586,0.565063,530
44539072,9983,-0.345581,0.723999,0.564453,535
44549507,10435,-0.348022,0.722534,0.561279,539
44559079,9572,-0.351196,0.714111,0.555786,538
44569077,9998,-0.349487,0.712036,0.556274,531
44579071,9994,-0.348022,0.714478,0.556030,538
44589093,10022,-0.347778,0.716797,0.552246,536
44599064,9971,-0.348022,0.720093,0.550049,535
44609066,10002,-0.347168,0.722046,0.551270,532
44619077,10011,-0.342407,0.721802,0.550903,529
44629070,9993,-0.343262,0.719604,0.551880,521
44639095,10025,-0.344116,0.720093,0.554443,520
44649089,9994,-0.345581,0.720825,0.556763,518
44659075,9986,-0.345581,0.722290,0.557983,513
44669065,9990,-0.346191,0.719604,0.558838,514
44679065,10000,-0.348267,0.717041,0.557617,512
44689081,10016,-0.349243,0.716675,0.559814,506
44699092,10011,-0.348633,0.717896,0.561890,512
44709069,9977,-0.348145,0.716553,0.560791,512
44719066,9997,-0.348389,0.717773,0.563599,512
44729080,10014,-0.348511,0.718994,0.565186,510
44739085,10005,-0.347412,0.722656,0.565796,514
44749090,10005,-0.346680,0.722900,0.564575,513
44759079,9989,-0.346069,0.722656,0.563965,514
44769088,10009,-0.344849,0.723022,0.564453,515
44779069,9981,-0.342285,0.722168,0.561279,517
44789088,10019,-0.342651,0.722900,0.560791,515
44799078,9990,-0.343018,0.722900,0.560547,515
44809093,10015,-0.343140,0.722778,0.560181,519
44819072,9979,-0.343628,0.723389,0.560059,529
44829070,9998,-0.342285,0.723145,0.561279,530
44839107,10037,-0.341309,0.722778,0.561523,530
44849079,9972,-0.341187,0.720215,0.563110,521
44859075,9996,-0.340332,0.719482,0.562622,526
44869071,9996,-0.341064,0.718262,0.561401,528
44879074,10003,-0.341553,0.718750,0.561157,527
44889065,9991,-0.345093,0.719971,0.559082,523
44899089,10024,-0.345215,0.720703,0.557495,520
44909344,10255,-0.344238,0.721680,0.556274,518
44919090,9746,-0.344360,0.721313,0.554810,516
44929079,9989,-0.346436,0.721069,0.554565,513
44939091,10012,-0.345825,0.719360,0.557007,509
44949089,9998,-0.349731,0.719116,0.557251,506
44959070,9981,-0.351807,0.719482,0.557983,510
44969087,10017,-0.353271,0.721436,0.556641,507
44979795,10708,-0.352295,0.722656,0.556030,499
44989087,9292,-0.350952,0.723511,0.557251,504
45002324,13237,-0.346802,0.727539,0.559692,498
45011338,9014,-0.345337,0.729858,0.558716,496
45019080,7742,-0.344604,0.730103,0.556152,498
45029081,10001,-0.344604,0.727783,0.560547,504
45039067,9986,-0.342407,0.725952,0.563843,496
45049084,10017,-0.343506,0.718140,0.566895,510
45059082,9998,-0.343506,0.714966,0.567383,512
45069090,10008,-0.342651,0.712158,0.566895,507
45079074,9984,-0.342163,0.710083,0.566895,507
45089077,10003,-0.343018,0.709351,0.570068,523
45099093,10016,-0.341919,0.710327,0.572021,527
45109089,9996,-0.342041,0.713501,0.572510,528
45119068,9979,-0.345337,0.717285,0.571899,531
45129074,10006,-0.345337,0.718384,0.569824,533
45139080,10006,-0.344727,0.718872,0.567993,530
45149074,9994,-0.344360,0.718140,0.567017,534
45159089,10015,-0.344604,0.716064,0.560059,533
45169078,9989,-0.344727,0.717041,0.557617,528
45179082,10004,-0.344727,0.718994,0.555542,529
45189078,9996,-0.344360,0.718750,0.552002,527
45199074,9996,-0.346313,0.719360,0.549194,526
45209068,9994,-0.347046,0.719971,0.548706,523
45219071,10003,-0.349976,0.718018,0.546753,512
45229082,10011,-0.350464,0.716797,0.544434,518
45239093,10011,-0.349854,0.716675,0.543701,511
45249064,9971,-0.350464,0.718262,0.545166,513
45259070,10006,-0.350464,0.720825,0.545898,506
45269083,10013,-0.353271,0.724609,0.545898,512
45279066,9983,-0.354370,0.724121,0.547363,512
45289077,10011,-0.354980,0.724487,0.547241,510
45299092,10015,-0.355835,0.722534,0.548584,512
45309064,9972,-0.356445,0.718872,0.550171,512
45319080,10016,-0.356323,0.715454,0.550781,508
45329074,9994,-0.358154,0.715942,0.551514,510
45339071,9997,-0.360107,0.716553,0.552002,513
45349084,10013,-0.359985,0.716553,0.555176,511
45359086,10002,-0.359497,0.718628,0.557007,512
45369118,10032,-0.359253,0.720337,0.555908,510
45379071,9953,-0.358643,0.722656,0.558838,510
45389069,9998,-0.357910,0.722534,0.559692,507
45399071,10002,-0.356812,0.722534,0.559692,500
45409086,10015,-0.355469,0.723145,0.561157,506
45419086,10000,-0.354736,0.723022,0.560669,504
45429088,10002,-0.353882,0.722778,0.560669,506
45439090,10002,-0.353027,0.721924,0.559937,494
45449079,9989,-0.351563,0.719604,0.556274,505
45459084,10005,-0.350098,0.715820,0.552246,500
45469078,9994,-0.351440,0.713501,0.549561,504
45479069,9991,-0.351563,0.711182,0.550659,498
45489078,10009,-0.349365,0.712524,0.548218,496
45499067,9989,-0.350342,0.714722,0.547729,509
45509068,10001,-0.350952,0.715576,0.546875,505
45519085,10017,-0.351074,0.718140,0.545166,507
45529079,9994,-0.352417,0.720459,0.544678,510
45539065,9986,-0.352173,0.723022,0.545044,508
45549095,10030,-0.351807,0.721680,0.546875,509
45559068,9973,-0.352173,0.719482,0.547729,498
45569084,10016,-0.353760,0.719360,0.547485,499
45579090,10006,-0.354492,0.718872,0.548828,506
45589121,10031,-0.356201,0.722412,0.551270,505
45599075,9954,-0.358032,0.722900,0.553223,507
45609088,10013,-0.358765,0.721069,0.554321,499
45619071,9983,-0.358765,0.720459,0.554199,508
