t_us,dt_us,ax,ay,az,ppg
10454091,10018,-0.296631,0.412720,0.839111,511
10464093,10002,-0.294922,0.412354,0.836548,510
10474092,9999,-0.295410,0.412354,0.837280,511
10484076,9984,-0.294556,0.413208,0.835083,511
10494082,10006,-0.294556,0.411499,0.834351,510
10504087,10005,-0.296631,0.410156,0.833130,510
10514088,10001,-0.296509,0.411133,0.834839,511
10524091,10003,-0.296143,0.411621,0.834717,505
10534080,9989,-0.296387,0.409424,0.834229,505
10544077,9997,-0.297729,0.410034,0.833252,511
10554073,9996,-0.296387,0.411133,0.838135,512
10564077,10004,-0.296265,0.412231,0.837280,512
10574087,10010,-0.296021,0.411255,0.836304,511
10584081,9994,-0.296143,0.410645,0.836426,510
10594100,10019,-0.294434,0.411011,0.837280,511
10604073,9973,-0.295410,0.412109,0.837036,512
10614102,10029,-0.295776,0.413086,0.838379,513
10624091,9989,-0.296875,0.408813,0.836792,509
10634075,9984,-0.296631,0.409790,0.836670,509
10644076,10001,-0.295898,0.410278,0.835937,512
10654078,10002,-0.296265,0.408081,0.835083,511
10664102,10024,-0.295532,0.410034,0.837646,504
10674096,9994,-0.295776,0.411133,0.837280,507
10684080,9984,-0.297485,0.411011,0.835815,510
10694089,10009,-0.296753,0.411377,0.835815,510
10704099,10010,-0.295044,0.412109,0.838501,511
10714081,9982,-0.294922,0.413208,0.835693,510
10724084,10003,-0.294922,0.411377,0.835327,507
10734094,10010,-0.293091,0.409668,0.836548,510
10744101,10007,-0.293823,0.410034,0.836914,505
10754075,9974,-0.295166,0.409546,0.837158,506
10764098,10023,-0.294434,0.409790,0.839233,510
10774096,9998,-0.294434,0.411621,0.839600,507
10784090,9994,-0.294922,0.412598,0.838379,508
10794094,10004,-0.294189,0.410889,0.839233,503
10804078,9984,-0.295044,0.410645,0.839966,508
10814101,10023,-0.295654,0.411377,0.841187,501
10824089,9988,-0.296753,0.412476,0.840332,510
10834073,9984,-0.299072,0.411255,0.840210,509
10844081,10008,-0.295654,0.410278,0.837280,512
10854081,10000,-0.294312,0.409668,0.834106,508
10864093,10012,-0.294189,0.409180,0.835815,507
10874087,9994,-0.294189,0.409424,0.837769,505
10884082,9995,-0.293213,0.410400,0.837646,509
10894073,9991,-0.292725,0.411621,0.836914,509
10904076,10003,-0.293335,0.410034,0.834473,509
10914085,10009,-0.294556,0.410400,0.837158,513
10924097,10012,-0.294434,0.411255,0.836792,510
10934098,10001,-0.295654,0.410278,0.838013,503
10944092,9994,-0.296387,0.410889,0.838989,503
10954090,9998,-0.296753,0.409668,0.835937,507
10964084,9994,-0.295898,0.408325,0.838501,520
10974083,9999,-0.295166,0.408936,0.840454,500
10984092,10009,-0.296631,0.410889,0.840820,506
10994094,10002,-0.296265,0.410400,0.840820,505
11004129,10035,-0.293335,0.410034,0.838257,517
11014075,9946,-0.293335,0.411621,0.836914,508
11024089,10014,-0.292725,0.410156,0.837646,506
11034094,10005,-0.291992,0.410889,0.834839,498
11044082,9988,-0.291748,0.410889,0.835449,502
11054088,10006,-0.293213,0.411865,0.836548,502
11064074,9986,-0.293823,0.411377,0.835571,507
11074101,10027,-0.294434,0.410889,0.836914,508
11084116,10015,-0.293091,0.412109,0.837036,510
11094073,9957,-0.295044,0.412964,0.837891,512
11104073,10000,-0.295532,0.411865,0.837891,513
11114102,10029,-0.293213,0.411255,0.838989,512
11124073,9971,-0.292969,0.412720,0.837402,510
11134073,10000,-0.291992,0.410645,0.838257,505
11144087,10014,-0.293091,0.410156,0.837280,512
11154099,10012,-0.293213,0.410767,0.838501,506
11164097,9998,-0.292480,0.411011,0.840576,508
11174100,10003,-0.292603,0.411377,0.840210,506
11184086,9986,-0.293213,0.410156,0.840454,511
11194076,9990,-0.294189,0.407837,0.839844,503
11204083,10007,-0.295410,0.408569,0.839966,508
11214095,10012,-0.294678,0.408691,0.840210,510
11224083,9988,-0.293335,0.409790,0.839111,506
11234102,10019,-0.292603,0.408936,0.839478,510
11244077,9975,-0.292847,0.409912,0.840454,512
11254084,10007,-0.292725,0.409790,0.839966,510
11264074,9990,-0.293091,0.410522,0.839111,511
11274081,10007,-0.292358,0.411377,0.839966,509
11284091,10010,-0.293213,0.410645,0.838989,511
11294098,10007,-0.293823,0.411011,0.838623,506
11304083,9985,-0.293091,0.411011,0.840210,508
11314074,9991,-0.292847,0.411865,0.840698,511
11324099,10025,-0.293579,0.411133,0.838623,510
11334094,9995,-0.293945,0.410889,0.835937,503
11344078,9984,-0.293457,0.410767,0.836182,512
11354093,10015,-0.293945,0.408936,0.834717,506
11364081,9988,-0.292725,0.407593,0.837036,509
11374098,10017,-0.293091,0.408936,0.836548,509
11384092,9994,-0.293457,0.408569,0.835815,511
11394077,9985,-0.294312,0.407959,0.837158,504
11404074,9997,-0.292603,0.410156,0.838623,507
11414118,10044,-0.292725,0.410278,0.838989,508
11424088,9970,-0.293701,0.410522,0.840332,505
11434086,9998,-0.291870,0.412598,0.840576,509
11444093,10007,-0.292847,0.414307,0.841309,510
11454099,10006,-0.292969,0.411377,0.841309,511
11464095,9996,-0.293457,0.410156,0.838745,511
11474098,10003,-0.292725,0.409058,0.837769,510
11484089,9991,-0.292358,0.411011,0.838745,509
11494085,9996,-0.291382,0.409790,0.838867,511
11504084,9999,-0.292969,0.408813,0.838135,510
11514086,10002,-0.293701,0.409302,0.839600,511
11524074,9988,-0.293579,0.409912,0.839600,509
11534086,10012,-0.293945,0.409546,0.840210,508
11544090,10004,-0.293335,0.410522,0.840210,512
11554100,10010,-0.293335,0.408936,0.840820,510
11564081,9981,-0.292236,0.409546,0.839844,511
11574100,10019,-0.290894,0.410889,0.839600,503
11584089,9989,-0.291626,0.410889,0.838745,510
11594074,9985,-0.292603,0.409912,0.838989,509
11604099,10025,-0.292969,0.412354,0.838745,509
11614092,9993,-0.293945,0.412354,0.839111,510
11624104,10012,-0.293945,0.413818,0.839233,512
11634086,9982,-0.293945,0.413086,0.838257,509
11644076,9990,-0.292725,0.411743,0.836792,509
11654077,10001,-0.291138,0.410522,0.836792,511
11664077,10000,-0.290161,0.410645,0.837402,511
11674099,10022,-0.289429,0.410889,0.836548,503
11684081,9982,-0.289551,0.410400,0.838135,508
11694074,9993,-0.291260,0.411011,0.838623,509
11704086,10012,-0.292969,0.409912,0.838257,510
11714101,10015,-0.297607,0.408325,0.841064,509
11724074,9973,-0.297485,0.408447,0.842407,510
11734078,10004,-0.296143,0.409546,0.840576,509
11744080,10002,-0.295044,0.410522,0.840454,510
11754099,10019,-0.293091,0.410278,0.840820,508
11764087,9988,-0.291870,0.409546,0.840820,510
11774078,9991,-0.290649,0.411255,0.838013,504
11784095,10017,-0.291016,0.411011,0.839111,505
11794091,9996,-0.290771,0.410522,0.839478,507
11804102,10011,-0.291016,0.412476,0.838989,498
11814074,9972,-0.293335,0.411133,0.836304,500
11824081,10007,-0.294678,0.410278,0.837524,506
11834096,10015,-0.294922,0.411621,0.838257,502
11844099,10003,-0.293213,0.411987,0.836914,505
11854085,9986,-0.293335,0.410400,0.837524,501
11864100,10015,-0.291016,0.409424,0.835815,504
11874084,9984,-0.291992,0.409668,0.836304,510
11884081,9997,-0.293091,0.410156,0.836304,505
11894081,10000,-0.292236,0.410156,0.837769,509
11904117,10036,-0.292603,0.413086,0.837646,512
11914085,9968,-0.293701,0.412231,0.840088,511
11924088,10003,-0.293457,0.411621,0.840698,512
11934094,10006,-0.294189,0.410400,0.841064,515
11944093,9999,-0.292725,0.410767,0.839722,509
11954086,9993,-0.292236,0.409912,0.840332,506
11964085,9999,-0.291504,0.410034,0.840454,509
11974081,9996,-0.292725,0.409424,0.840210,514
11984081,10000,-0.293335,0.407104,0.840332,513
11994101,10020,-0.293213,0.408447,0.838867,512
12004096,9995,-0.294067,0.407715,0.840088,513
12014075,9979,-0.292236,0.408081,0.841675,511
12024082,10007,-0.292847,0.409668,0.841064,508
12034099,10017,-0.291870,0.410645,0.842163,507
12044094,9995,-0.292480,0.411133,0.841309,513
12054099,10005,-0.293823,0.410889,0.839355,509
12064091,9992,-0.293457,0.412598,0.839844,510
12074078,9987,-0.292725,0.411133,0.838623,511
12084087,10009,-0.292847,0.410522,0.837158,507
12094094,10007,-0.293335,0.410156,0.836182,510
12104074,9980,-0.293091,0.409058,0.837280,510
12114077,10003,-0.294067,0.410034,0.837769,510
12124081,10004,-0.292114,0.411133,0.837524,504
12134090,10009,-0.293335,0.412720,0.838135,508
12144076,9986,-0.293213,0.409668,0.839233,510
12154074,9998,-0.293091,0.409058,0.837524,510
12164093,10019,-0.293701,0.409546,0.838013,509
12174085,9992,-0.293213,0.410400,0.838867,510
12184078,9993,-0.293091,0.410645,0.841309,503
12194148,10070,-0.293457,0.411987,0.841064,505
12204094,9946,-0.293457,0.410522,0.840210,511
12214101,10007,-0.293579,0.410278,0.840454,512
12224079,9978,-0.293335,0.408325,0.840088,511
12234116,10037,-0.293823,0.409180,0.839111,511
12244079,9963,-0.292725,0.409912,0.838135,508
12254076,9997,-0.294312,0.408936,0.838135,513
12264089,10013,-0.292603,0.409790,0.836670,513
12274075,9986,-0.292969,0.411499,0.837402,517
12284086,10011,-0.293213,0.411133,0.837280,508
12294093,10007,-0.294067,0.411133,0.838745,510
12304076,9983,-0.293579,0.411255,0.839600,511
12314082,10006,-0.293945,0.411621,0.840088,515
12324091,10009,-0.294434,0.410522,0.840210,511
12334081,9990,-0.293701,0.410034,0.838379,510
12344097,10016,-0.295044,0.409058,0.837280,508
12354095,9998,-0.294312,0.407715,0.838501,509
12364075,9980,-0.292480,0.408569,0.839600,510
12374099,10024,-0.294189,0.409668,0.837769,506
12384098,9999,-0.293457,0.410156,0.838501,505
12394089,9991,-0.293823,0.412109,0.838257,507
12404080,9991,-0.293457,0.412598,0.839355,505
12414079,9999,-0.294312,0.412720,0.840088,507
12424080,10001,-0.294922,0.410278,0.838379,503
12434127,10047,-0.293335,0.411377,0.837280,511
12444088,9961,-0.291016,0.411011,0.836426,509
12454098,10010,-0.291992,0.409790,0.837280,510
12464076,9978,-0.292603,0.408447,0.838379,510
12474102,10026,-0.293457,0.409424,0.839233,509
12484076,9974,-0.296753,0.408081,0.838989,511
12494089,10013,-0.296021,0.408691,0.841064,511
12504076,9987,-0.296265,0.409546,0.841309,504
12514094,10018,-0.298584,0.409790,0.841431,507
12524101,10007,-0.296387,0.409058,0.842163,510
12534087,9986,-0.295166,0.409180,0.836548,502
12544079,9992,-0.293579,0.409790,0.837769,508
12554077,9998,-0.292358,0.411621,0.837158,503
12564086,10009,-0.291748,0.412964,0.834717,506
12574085,9999,-0.292603,0.411621,0.834961,508
12584080,9995,-0.293701,0.414062,0.835205,508
12594100,10020,-0.294189,0.415283,0.837646,510
12604088,9988,-0.294922,0.415161,0.838257,506
12614101,10013,-0.295776,0.413696,0.837280,507
12624090,9989,-0.295532,0.411743,0.834351,504
12634079,9989,-0.295410,0.411621,0.836060,510
12644095,10016,-0.295044,0.410034,0.837402,511
12654095,10000,-0.292969,0.408569,0.838257,515
12664099,10004,-0.294067,0.409912,0.836548,514
12674085,9986,-0.292480,0.410034,0.837891,515
12684100,10015,-0.292114,0.412354,0.839844,514
12694082,9982,-0.294312,0.411133,0.839355,515
12704077,9995,-0.296021,0.409180,0.837280,509
12714081,10004,-0.294678,0.412598,0.839600,513
12724100,10019,-0.293457,0.414307,0.839844,507
12734116,10016,-0.294067,0.413208,0.838989,514
12744091,9975,-0.293457,0.412598,0.838135,512
12754086,9995,-0.294434,0.410767,0.837524,512
12764076,9990,-0.294312,0.411499,0.837036,513
12774078,10002,-0.293945,0.411377,0.839111,507
12784093,10015,-0.296387,0.409424,0.839966,509
12794077,9984,-0.296143,0.409546,0.839111,512
12804087,10010,-0.294189,0.409424,0.840576,510
12814102,10015,-0.293701,0.408081,0.840576,512
12824089,9987,-0.292725,0.408081,0.841919,507
12834086,9997,-0.292725,0.407837,0.842651,511
12844097,10011,-0.293335,0.408569,0.842407,511
12854109,10012,-0.294312,0.408813,0.841553,510
12864083,9974,-0.296021,0.411377,0.837524,509
12874093,10010,-0.296631,0.410767,0.836914,506
12884084,9991,-0.296021,0.411377,0.837158,511
12894093,10009,-0.295044,0.411133,0.835937,510
12904078,9985,-0.294800,0.409058,0.832764,507
12914088,10010,-0.292969,0.413330,0.836304,504
12924098,10010,-0.292969,0.411377,0.837769,510
12934075,9977,-0.292725,0.411377,0.838989,511
12944096,10021,-0.294434,0.412720,0.838257,510
12954075,9979,-0.293457,0.412231,0.839722,510
12964082,10007,-0.295898,0.412720,0.840576,511
12974077,9995,-0.296631,0.411499,0.839722,511
12984088,10011,-0.296265,0.409302,0.837280,513
12994073,9985,-0.294189,0.409302,0.838501,507
13004076,10003,-0.295410,0.411377,0.838013,511
13014085,10009,-0.295532,0.411255,0.836548,509
13024089,10004,-0.293945,0.410156,0.835205,510
13034097,10008,-0.294800,0.409790,0.835571,512
13044080,9983,-0.294800,0.410156,0.835327,510
13054096,10016,-0.294800,0.412354,0.838013,511
13064119,10023,-0.294800,0.411987,0.837646,507
13074078,9959,-0.294312,0.413086,0.838257,510
13084095,10017,-0.293213,0.413452,0.837402,513
13094097,10002,-0.294800,0.411377,0.838135,512
13104074,9977,-0.293945,0.410522,0.838135,511
13114088,10014,-0.294922,0.411255,0.838989,505
13124073,9985,-0.296021,0.411987,0.837036,512
13134074,10001,-0.295044,0.410156,0.838379,510
13144074,10000,-0.294434,0.409546,0.838745,512
13154073,9999,-0.296143,0.410156,0.838867,505
13164086,10013,-0.295898,0.410156,0.837158,511
13174079,9993,-0.297607,0.412109,0.837891,520
13184078,9999,-0.296021,0.411987,0.836670,513
13194075,9997,-0.295532,0.412231,0.836914,505
13204087,10012,-0.294434,0.412720,0.838135,511
13214095,10008,-0.294800,0.412354,0.838013,512
13224079,9984,-0.293701,0.412476,0.834595,521
13234074,9995,-0.294189,0.411987,0.835937,513
13244092,10018,-0.294434,0.411377,0.836792,513
13254087,9995,-0.295410,0.412109,0.837524,512
13264126,10039,-0.296753,0.411255,0.836548,509
13274076,9950,-0.297607,0.410522,0.837402,499
13284076,10000,-0.296997,0.412354,0.838501,510
13294076,10000,-0.296509,0.412354,0.837891,504
13304101,10025,-0.297607,0.410767,0.839966,511
13314098,9997,-0.296753,0.411011,0.837769,508
13324096,9998,-0.296021,0.410889,0.836792,507
13334077,9981,-0.295288,0.410400,0.836792,503
13344073,9996,-0.294800,0.409424,0.836914,507
13354077,10004,-0.293213,0.411865,0.837402,505
13364086,10009,-0.294067,0.413452,0.837280,504
13374101,10015,-0.293701,0.413330,0.837646,509
13384076,9975,-0.295288,0.412354,0.837646,510
13394083,10007,-0.295166,0.411499,0.838257,503
13404078,9995,-0.295654,0.414185,0.836670,512
13414100,10022,-0.295410,0.413818,0.836670,511
13424098,9998,-0.296265,0.412964,0.837524,515
13434091,9993,-0.296021,0.411499,0.837036,512
13444084,9993,-0.296143,0.411865,0.836548,515
13454076,9992,-0.296509,0.410767,0.835693,515
13464111,10035,-0.295776,0.410400,0.838257,511
13474101,9990,-0.293701,0.412964,0.836182,512
13484080,9979,-0.296631,0.411377,0.840210,511
13494090,10010,-0.296753,0.411255,0.841064,515
13504073,9983,-0.295898,0.412231,0.837891,515
13514082,10009,-0.297241,0.410645,0.836548,509
13524094,10012,-0.295044,0.411987,0.838257,509
13534101,10007,-0.296143,0.412109,0.836914,513
13544075,9974,-0.295166,0.412476,0.836670,514
13554095,10020,-0.295166,0.411499,0.837280,514
13564091,9996,-0.294800,0.410767,0.838623,507
13574092,10001,-0.297119,0.413452,0.839844,511
13584078,9986,-0.296875,0.413696,0.839722,515
13594085,10007,-0.297729,0.412109,0.838745,512
13604093,10008,-0.297607,0.411865,0.838257,513
13614076,9983,-0.298340,0.412720,0.837036,515
13624075,9999,-0.296387,0.410278,0.836670,511
13634098,10023,-0.296387,0.410156,0.833496,511
13644078,9980,-0.295166,0.410767,0.833008,512
13654094,10016,-0.296143,0.411377,0.833374,508
13664082,9988,-0.296265,0.410889,0.833862,504
13674096,10014,-0.296021,0.412598,0.835815,512
13684090,9994,-0.297241,0.414185,0.835083,512
13694094,10004,-0.297852,0.414551,0.835449,512
13704087,9993,-0.297485,0.415161,0.837036,509
13714084,9997,-0.296387,0.415894,0.836426,513
13724092,10008,-0.296509,0.414307,0.835083,513
13734085,9993,-0.295166,0.412476,0.834473,507
13744092,10007,-0.294556,0.411621,0.835449,508
13754089,9997,-0.295654,0.411255,0.836914,512
13764099,10010,-0.296265,0.411133,0.837036,509
13774088,9989,-0.296143,0.410278,0.837036,507
13784077,9989,-0.296753,0.411743,0.839844,513
13794081,10004,-0.297119,0.413818,0.839233,514
13804089,10008,-0.296753,0.413452,0.840454,513
13814101,10012,-0.296265,0.414917,0.838623,508
13824076,9975,-0.295410,0.412964,0.836670,508
13834095,10019,-0.294922,0.410522,0.834106,516
13844086,9991,-0.293213,0.411743,0.837524,513
13854086,10000,-0.293579,0.411743,0.836792,512
13864103,10017,-0.294067,0.411865,0.837280,513
13874081,9978,-0.294556,0.412231,0.836548,507
13884081,10000,-0.295898,0.412720,0.837524,512
13894102,10021,-0.295288,0.414429,0.838989,511
13904083,9981,-0.294800,0.412598,0.838013,511
13914094,10011,-0.295776,0.414185,0.836792,504
13924076,9982,-0.294312,0.412109,0.836182,509
13934102,10026,-0.293457,0.411987,0.836060,510
13944113,10011,-0.292725,0.411377,0.836304,511
13954092,9979,-0.294678,0.412842,0.839478,513
13964081,9989,-0.295898,0.411377,0.839966,510
13974101,10020,-0.297119,0.413208,0.839966,507
13984101,10000,-0.297485,0.413696,0.840820,506
13994103,10002,-0.297607,0.411499,0.839600,511
14004084,9981,-0.294922,0.411499,0.833496,512
14014089,10005,-0.293091,0.410767,0.833130,511
14024089,10000,-0.293457,0.410767,0.832520,512
14034093,10004,-0.295044,0.408813,0.831787,509
14044091,9998,-0.295654,0.407104,0.830444,511
14054099,10008,-0.296021,0.405518,0.830566,505
14064106,10007,-0.295410,0.406982,0.835449,510
14074082,9976,-0.285522,0.408203,0.835205,511
14084078,9996,-0.300171,0.408203,0.835083,512
14094085,10007,-0.295898,0.421753,0.839722,511
14104077,9992,-0.288452,0.425659,0.843262,510
14114086,10009,-0.296143,0.403198,0.836060,507
14124102,10016,-0.282715,0.413940,0.842529,508
14134074,9972,-0.289917,0.415405,0.843750,508
14144073,9999,-0.288208,0.416748,0.844482,506
14154075,10002,-0.290161,0.425781,0.845093,506
14164101,10026,-0.291870,0.426147,0.847656,505
14174091,9990,-0.289673,0.420532,0.846802,508
14184100,10009,-0.290405,0.418213,0.845459,509
14194098,9998,-0.291016,0.416016,0.843506,510
14204095,9997,-0.290283,0.411377,0.842529,510
14214097,10002,-0.289917,0.408569,0.840088,512
14224085,9988,-0.288940,0.405151,0.836914,510
14234086,10001,-0.289673,0.404541,0.836670,509
14244098,10012,-0.292358,0.406494,0.837280,516
14254074,9976,-0.293701,0.408081,0.836670,515
14264094,10020,-0.293823,0.410522,0.837158,517
14274089,9995,-0.293213,0.413330,0.836182,515
14284075,9986,-0.291992,0.411987,0.835571,515
14294096,10021,-0.289551,0.414795,0.836060,515
14304078,9982,-0.288940,0.416870,0.836182,518
14314090,10012,-0.290894,0.417358,0.835937,518
14324099,10009,-0.289551,0.415894,0.836548,518
14334074,9975,-0.289063,0.413330,0.838135,511
14344084,10010,-0.289795,0.411499,0.838257,516
14354098,10014,-0.290527,0.411011,0.838989,515
14364101,10003,-0.292603,0.410278,0.840698,518
14374094,9993,-0.290527,0.408447,0.842041,514
14384074,9980,-0.292358,0.406738,0.841309,513
14394098,10024,-0.290771,0.406494,0.841187,516
14404076,9978,-0.292847,0.406494,0.844116,510
14414094,10018,-0.291260,0.408813,0.844849,509
14424081,9987,-0.291260,0.409180,0.844849,513
14434096,10015,-0.290405,0.409546,0.845337,514
14444077,9981,-0.304932,0.395142,0.804565,509
14454101,10024,-0.312622,0.442749,0.831177,512
14464092,9991,-0.256836,0.410522,0.962769,512
14474096,10004,-0.290527,0.446411,0.985840,505
14484078,9982,-0.281738,0.399292,0.612549,512
14494102,10024,-0.281738,0.401611,0.914062,510
14504094,9992,-0.270874,0.489502,1.113281,510
14514101,10007,-0.260376,0.443604,0.828369,514
14524078,9977,-0.343628,0.353516,0.591187,508
14534102,10024,-0.310791,0.339355,0.765869,511
14544075,9973,-0.276489,0.439453,1.009277,509
14554085,10010,-0.299438,0.409058,0.718628,506
14564091,10006,-0.310669,0.373901,0.836792,511
14574089,9998,-0.281006,0.408447,0.949341,511
14584084,9995,-0.283081,0.425903,0.836426,514
14594095,10011,-0.286499,0.389160,0.738770,512
14604093,9998,-0.277222,0.421875,1.019043,513
14614093,10000,-0.271484,0.454346,0.933350,512
14624082,9989,-0.301270,0.389771,0.700562,514
14634084,10002,-0.311768,0.354004,0.694092,508
14644095,10011,-0.291748,0.407837,0.960937,510
14654096,10001,-0.260498,0.471924,0.978638,513
14664094,9998,-0.310303,0.359619,0.739380,509
14674129,10035,-0.304810,0.401733,0.868652,513
14684092,9963,-0.265259,0.426147,0.962769,512
14694080,9988,-0.281738,0.428711,0.789307,512
14704076,9996,-0.308228,0.385498,0.711548,511
14714074,9998,-0.284912,0.449463,0.966187,512
14724074,10000,-0.277710,0.420166,0.811401,509
14734102,10028,-0.312256,0.381958,0.705933,503
14744089,9987,-0.301880,0.382080,0.845215,512
14754110,10021,-0.281494,0.444092,0.952026,511
14764080,9970,-0.269653,0.432983,0.720093,512
14774075,9995,-0.308228,0.377930,0.789917,510
14784089,10014,-0.279297,0.418213,0.959351,511
14794096,10007,-0.279175,0.446289,0.877075,510
14804100,10004,-0.292358,0.399780,0.739624,500
14814091,9991,-0.303101,0.379517,0.789673,506
14824095,10004,-0.272095,0.441406,0.893311,512
14834102,10007,-0.292358,0.407715,0.764893,511
14844073,9971,-0.306641,0.381958,0.765625,513
14854086,10013,-0.296997,0.411255,0.904175,510
14864073,9987,-0.273926,0.433594,0.930298,509
14874073,10000,-0.293945,0.374268,0.760376,505
14884074,10001,-0.297729,0.404663,0.885132,507
14894091,10017,-0.278809,0.436279,0.923462,505
14904102,10011,-0.283813,0.426514,0.821899,503
14914079,9977,-0.302734,0.390747,0.749634,508
14924097,10018,-0.299561,0.394653,0.853638,510
14934099,10002,-0.280151,0.430664,0.843994,511
14944076,9977,-0.299805,0.396851,0.737793,509
14954074,9998,-0.299316,0.387207,0.841919,511
14964100,10026,-0.284668,0.428467,0.919189,512
14974102,10002,-0.282715,0.428833,0.844238,512
14984074,9972,-0.303467,0.393433,0.811035,513
14994080,10006,-0.287598,0.417114,0.906860,508
15004101,10021,-0.280029,0.430054,0.877930,513
15014073,9972,-0.296021,0.409180,0.776001,517
15024097,10024,-0.301636,0.388306,0.796387,515
15034080,9983,-0.291016,0.413940,0.900391,518
15044081,10001,-0.290405,0.414917,0.783203,514
15054121,10040,-0.298462,0.389160,0.802612,520
15064089,9968,-0.295044,0.413452,0.871826,517
15074102,10013,-0.283447,0.423950,0.896606,524
15084089,9987,-0.291260,0.414062,0.802490,516
15094078,9989,-0.293701,0.403687,0.867310,517
15104081,10003,-0.282837,0.427368,0.898315,516
15114073,9992,-0.286499,0.419556,0.813843,515
15124103,10030,-0.297974,0.394165,0.781616,515
15134092,9989,-0.296753,0.403076,0.860718,514
15144098,10006,-0.283936,0.427979,0.889160,510
15154081,9983,-0.296753,0.398560,0.784302,508
15164095,10014,-0.300293,0.398926,0.830688,514
15174096,10001,-0.283691,0.415527,0.903687,515
15184096,10000,-0.287720,0.427734,0.845337,515
15194073,9977,-0.293945,0.399048,0.786377,524
15204077,10004,-0.289063,0.417114,0.895386,511
15214086,10009,-0.283447,0.425903,0.854370,507
15224100,10014,-0.294312,0.405518,0.798950,510
15234094,9994,-0.299316,0.399658,0.814819,528
15244078,9984,-0.292603,0.415283,0.876953,514
15254093,10015,-0.282959,0.423218,0.794189,508
15264087,9994,-0.297729,0.395142,0.808105,510
15274099,10012,-0.291992,0.410278,0.861328,511
15284101,10002,-0.286133,0.423096,0.871582,513
15294092,9991,-0.287231,0.414673,0.809937,509
15304086,9994,-0.299316,0.401001,0.803589,511
15314098,10012,-0.287354,0.424072,0.876343,506
15324082,9984,-0.288208,0.416992,0.831543,510
15334074,9992,-0.299072,0.406372,0.796143,514
15344073,9999,-0.296631,0.402588,0.858521,514
15354098,10025,-0.288330,0.422363,0.874878,508
15364079,9981,-0.288208,0.403198,0.801514,509
15374083,10004,-0.298706,0.404663,0.836792,514
15384087,10004,-0.287231,0.415039,0.875977,513
15394090,10003,-0.289917,0.422607,0.838257,507
15404082,9992,-0.293945,0.404663,0.808594,513
15414092,10010,-0.298462,0.404785,0.821289,507
15424081,9989,-0.287109,0.425781,0.847290,513
15434093,10012,-0.294922,0.411377,0.808228,514
15444109,10016,-0.293701,0.402222,0.824341,514
15454093,9984,-0.293823,0.415405,0.865723,514
15466178,12085,-0.292114,0.412964,0.808472,513
15474075,7897,0.000000,0.000000,0.000000,510
15484073,9998,-0.293945,0.416626,0.855835,514
15494081,10008,-0.288818,0.418335,0.867187,509
15504081,10000,-0.294678,0.414185,0.814087,512
15514099,10018,-0.300781,0.400635,0.815308,511
15524095,9996,-0.294067,0.405762,0.859619,506
15534078,9983,-0.286987,0.413208,0.829956,511
15544073,9995,-0.298218,0.406982,0.806152,505
15554079,10006,-0.293823,0.404297,0.847656,511
15564088,10009,-0.289551,0.420654,0.863037,511
15574098,10010,-0.288574,0.418213,0.842041,514
15584074,9976,-0.294922,0.405151,0.836792,507
15594100,10026,-0.288452,0.414795,0.862061,508
15604080,9980,-0.292847,0.419312,0.836548,511
15614087,10007,-0.294556,0.405762,0.820435,513
15624084,9997,-0.300781,0.405273,0.828247,511
15634091,10007,-0.292725,0.410522,0.858643,511
15644086,9995,-0.296143,0.411621,0.825806,513
15654081,9995,-0.296875,0.407471,0.832031,510
15664074,9993,-0.295166,0.413452,0.861572,508
15674093,10019,-0.288940,0.417603,0.849365,510
15684084,9991,-0.293701,0.411987,0.820435,509
15694094,10010,-0.291504,0.415894,0.850098,508
15704100,10006,-0.286621,0.417480,0.852417,509
15714102,10002,-0.293213,0.412964,0.822876,509
15724089,9987,-0.295898,0.405518,0.825317,503
15734098,10009,-0.293091,0.411743,0.844849,506
15744083,9985,-0.293335,0.417847,0.820190,512
15754082,9999,-0.297607,0.408203,0.821167,510
15764100,10018,-0.294678,0.411865,0.849121,517
15774076,9976,-0.292236,0.421875,0.850342,516
15784088,10012,-0.290161,0.415527,0.833496,519
15794082,9994,-0.294312,0.412476,0.818237,514
15804092,10010,-0.290771,0.416992,0.852417,513
15814073,9981,-0.292480,0.416748,0.838013,518
15824097,10024,-0.294434,0.410156,0.818848,520
15834075,9978,-0.296021,0.408203,0.833984,519
15844082,10007,-0.293335,0.412476,0.855591,520
15854093,10011,-0.292969,0.418579,0.825928,509
15864095,10002,-0.296143,0.405884,0.832642,517
15874086,9991,-0.292969,0.411255,0.852783,515
15884094,10008,-0.291626,0.416260,0.844971,519
15894086,9992,-0.295532,0.413208,0.829102,511
15904074,9988,-0.295410,0.408813,0.833984,519
15914084,10010,-0.291870,0.415405,0.848389,513
15924087,10003,-0.294922,0.411377,0.825562,514
15934090,10003,-0.295288,0.404297,0.831421,513
15944113,10023,-0.294312,0.410278,0.844849,507
15954099,9986,-0.291504,0.414917,0.849731,507
15964090,9991,-0.292358,0.408203,0.828247,514
15974088,9998,-0.293579,0.409912,0.842285,513
15984078,9990,-0.293457,0.414917,0.847900,515
15994101,10023,-0.292603,0.414551,0.834595,513
16004085,9984,-0.296143,0.412109,0.827026,514
16014101,10016,-0.294800,0.410400,0.841919,513
16024079,9978,-0.293945,0.416626,0.838257,509
16034086,10007,-0.294800,0.414062,0.824097,507
16044074,9988,-0.296143,0.408936,0.831665,513
16054084,10010,-0.293213,0.412842,0.843994,514
16064111,10027,-0.291748,0.414795,0.836670,510
16074147,10036,-0.294800,0.409058,0.836670,516
16084086,9939,-0.293701,0.414429,0.848755,515
16094077,9991,-0.293945,0.416992,0.842651,514
16104095,10018,-0.296265,0.412720,0.834473,517
16114092,9997,-0.296387,0.412109,0.837036,514
16124089,9997,-0.293701,0.411621,0.847412,517
16134098,10009,-0.293213,0.411499,0.831421,512
16144115,10017,-0.294678,0.407715,0.828491,517
16154092,9977,-0.292847,0.407715,0.842773,519
16164081,9989,-0.291382,0.411499,0.843750,515
16174087,10006,-0.293457,0.411255,0.829590,510
16184100,10013,-0.295654,0.413452,0.843750,516
16194097,9997,-0.294678,0.417847,0.850220,513
16204085,9988,-0.295532,0.418091,0.834717,507
16214086,10001,-0.296387,0.410889,0.828613,512
16224077,9991,-0.295410,0.410278,0.832031,508
16234103,10026,-0.292358,0.413452,0.844116,510
16244076,9973,-0.291992,0.413940,0.830566,509
16254096,10020,-0.292847,0.409424,0.835937,510
16264110,10014,-0.294678,0.410767,0.840088,507
16274088,9978,-0.293457,0.410889,0.843140,505
16284090,10002,-0.296509,0.414795,0.835937,509
16294094,10004,-0.297607,0.413574,0.847778,511
16304085,9991,-0.296265,0.415405,0.844238,510
16314089,10004,-0.295288,0.413208,0.839966,510
16324091,10002,-0.296021,0.411621,0.838501,510
16334098,10007,-0.292236,0.411499,0.844360,506
16344080,9982,-0.293213,0.413574,0.835937,512
16354095,10015,-0.295654,0.410645,0.830322,510
16364093,9998,-0.293335,0.411255,0.840088,511
16374091,9998,-0.293335,0.415161,0.835571,505
16387130,13039,-0.294189,0.413818,0.832764,510
16394075,6945,0.000000,0.000000,0.000000,508
16404074,9999,-0.294067,0.415527,0.838623,508
16414091,10017,-0.296753,0.415161,0.827881,509
16424088,9997,-0.296997,0.411499,0.833740,511
16434096,10008,-0.297363,0.416748,0.837158,512
16444091,9995,-0.296021,0.415527,0.844482,511
16454087,9996,-0.296875,0.414185,0.829834,512
16464097,10010,-0.295654,0.409424,0.835571,505
16474095,9998,-0.295898,0.412842,0.842407,511
16484088,9993,-0.292603,0.413940,0.841064,511
16494075,9987,-0.293701,0.415283,0.829590,512
16504075,10000,-0.294678,0.411621,0.835083,507
16514100,10025,-0.293823,0.415039,0.839966,513
16524092,9992,-0.295898,0.415161,0.830933,516
16534092,10000,-0.295654,0.412109,0.833130,515
16544093,10001,-0.293945,0.412964,0.840576,519
16554073,9980,-0.292969,0.417847,0.836670,513
16564093,10020,-0.292480,0.414429,0.835083,521
16574100,10007,-0.293945,0.413208,0.841309,514
16584079,9979,-0.294678,0.412476,0.836670,513
16594082,10003,-0.295288,0.410034,0.840820,521
16604076,9994,-0.296265,0.413086,0.839600,520
16614080,10004,-0.297119,0.411987,0.841431,520
16624101,10021,-0.298218,0.412476,0.838135,514
16634097,9996,-0.297485,0.410278,0.840942,517
16644084,9987,-0.297729,0.412109,0.842285,517
16654085,10001,-0.295044,0.414185,0.845093,517
16664073,9988,-0.294922,0.414551,0.833740,513
16674080,10007,-0.294067,0.412598,0.835815,514
16684084,10004,-0.295410,0.412476,0.834717,515
16694102,10018,-0.294800,0.411865,0.827637,517
16704073,9971,-0.294434,0.411133,0.830811,517
16714097,10024,-0.291260,0.415039,0.841064,516
16724088,9991,-0.293701,0.419189,0.839966,515
16734099,10011,-0.294189,0.415161,0.831421,517
16744078,9979,-0.295044,0.413818,0.842896,508
16754094,10016,-0.296631,0.417114,0.846924,516
16764092,9998,-0.299072,0.415039,0.843872,515
16774099,10007,-0.301270,0.411987,0.832886,512
16784097,9998,-0.300537,0.407227,0.837769,514
16794074,9977,-0.298828,0.411743,0.833740,512
16804095,10021,-0.295410,0.408569,0.825806,512
16814081,9986,-0.294312,0.406738,0.818726,511
16824074,9993,-0.292847,0.407471,0.827515,513
16834076,10002,-0.288452,0.414795,0.833374,514
16844079,10003,-0.291016,0.416504,0.831421,515
16854086,10007,-0.292725,0.419189,0.834961,515
16864073,9987,-0.292969,0.419922,0.843994,517
16874102,10029,-0.294678,0.421997,0.844116,515
16884088,9986,-0.296997,0.421143,0.848145,517
16894106,10018,-0.300171,0.411865,0.847046,516
16904075,9969,-0.299805,0.408203,0.843750,514
16914101,10026,-0.297729,0.407715,0.844360,513
16924100,9999,-0.294678,0.410156,0.846313,514
16934101,10001,-0.293457,0.408203,0.845093,514
16944080,9979,-0.291260,0.406006,0.843140,509
16954083,10003,-0.291870,0.406372,0.842896,510
16964077,9994,-0.293091,0.410156,0.840332,509
16974099,10022,-0.294067,0.410400,0.838257,515
16984084,9985,-0.296509,0.412354,0.836304,513
16994095,10011,-0.296021,0.414307,0.837036,514
17004088,9993,-0.297241,0.415039,0.830444,514
17014073,9985,-0.295898,0.411865,0.828979,514
17024073,10000,-0.296143,0.415527,0.831299,512
17034090,10017,-0.293701,0.416138,0.835205,514
17044091,10001,-0.292969,0.418579,0.832520,508
17054088,9997,-0.292480,0.417358,0.831421,513
17064090,10002,-0.295654,0.413940,0.833740,509
17074084,9994,-0.295410,0.415161,0.835083,508
17084087,10003,-0.296021,0.415771,0.834595,511
17094085,9998,-0.295654,0.416260,0.834351,511
17104087,10002,-0.294556,0.414307,0.837158,504
17114075,9988,-0.293579,0.415283,0.837646,511
17124079,10004,-0.293091,0.414551,0.838379,510
17134083,10004,-0.293945,0.414917,0.840332,507
17144080,9997,-0.295044,0.414062,0.845459,512
17154085,10005,-0.297241,0.414185,0.844971,510
17164099,10014,-0.299194,0.412476,0.840820,509
17174083,9984,-0.298950,0.406494,0.838257,508
17184076,9993,-0.296753,0.407471,0.838379,513
17194084,10008,-0.296387,0.411255,0.834717,514
17204622,10538,-0.292969,0.410522,0.836792,507
17214096,9474,-0.293213,0.411011,0.833496,507
17224075,9979,-0.291992,0.415039,0.836548,507
17234078,10003,-0.292969,0.416870,0.839844,512
17244079,10001,-0.294678,0.414185,0.840332,512
17254099,10020,-0.297974,0.413086,0.838013,512
17264094,9995,-0.301025,0.419678,0.837036,511
17274073,9979,-0.299316,0.414551,0.838745,512
17284083,10010,-0.297119,0.412354,0.833008,514
17294081,9998,-0.296387,0.411987,0.832642,512
17304128,10047,-0.294189,0.412476,0.832642,515
17314093,9965,-0.294189,0.413574,0.834839,515
17324086,9993,-0.293335,0.414673,0.836548,515
17334074,9988,-0.296265,0.414062,0.834106,519
17344091,10017,-0.294678,0.415771,0.836792,518
17354090,9999,-0.296143,0.416016,0.841064,518
17364087,9997,-0.296143,0.418091,0.836304,519
17374075,9988,-0.295654,0.415283,0.839355,518
17384079,10004,-0.297607,0.414795,0.840088,519
17394075,9996,-0.297485,0.413086,0.836670,523
17404096,10021,-0.297607,0.411011,0.833618,521
17414077,9981,-0.296509,0.410156,0.836548,521
17424079,10002,-0.294312,0.413208,0.834473,521
17434087,10008,-0.294434,0.412842,0.836792,512
17444078,9991,-0.296143,0.412842,0.836670,519
17454088,10010,-0.296509,0.414429,0.835449,518
17464092,10004,-0.295776,0.414795,0.837036,516
17474102,10010,-0.296143,0.414795,0.835937,514
17484099,9997,-0.295776,0.414917,0.836426,511
17494089,9990,-0.295776,0.414795,0.835449,517
17504122,10033,-0.295410,0.412720,0.834717,516
17514083,9961,-0.295898,0.413452,0.835571,512
17524077,9994,-0.293945,0.414062,0.840698,515
17534099,10022,-0.295654,0.414429,0.836670,516
17544074,9975,-0.296387,0.411499,0.836792,511
17554088,10014,-0.296875,0.412842,0.838623,515
17564098,10010,-0.297852,0.413574,0.838867,509
17574098,10000,-0.298950,0.413818,0.836060,514
17584086,9988,-0.297607,0.412598,0.837280,509
17594084,9998,-0.297241,0.416504,0.837524,513
17604098,10014,-0.296997,0.414062,0.834595,514
17614089,9991,-0.297729,0.413330,0.836304,507
17624087,9998,-0.296631,0.414673,0.837158,514
17634085,9998,-0.296387,0.416626,0.837280,513
17644088,10003,-0.297363,0.414062,0.835693,514
17654103,10015,-0.297607,0.413208,0.832764,514
17664099,9996,-0.296753,0.413574,0.833130,514
17674097,9998,-0.295410,0.413696,0.834229,514
17684080,9983,-0.294922,0.415405,0.832886,515
17694098,10018,-0.294678,0.414429,0.833984,515
17704096,9998,-0.296021,0.415405,0.834229,507
17714088,9992,-0.297485,0.418213,0.836304,509
17724100,10012,-0.297729,0.416870,0.835205,511
17734076,9976,-0.296509,0.414917,0.837280,512
17744097,10021,-0.298584,0.416016,0.837280,513
17754092,9995,-0.297119,0.413940,0.838745,516
17764087,9995,-0.298950,0.413696,0.837036,514
17774090,10003,-0.297974,0.411011,0.835937,514
17784074,9984,-0.297485,0.412476,0.834351,514
17794090,10016,-0.296997,0.411499,0.836426,516
17804116,10026,-0.296875,0.413086,0.837646,515
17814076,9960,-0.295044,0.414917,0.837769,515
17824089,10013,-0.297363,0.412231,0.834595,512
17834080,9991,-0.296387,0.414185,0.834229,512
17844095,10015,-0.296997,0.415894,0.835693,511
17854081,9986,-0.297363,0.416992,0.834473,512
17864080,9999,-0.297485,0.415161,0.835327,510
17874077,9997,-0.297241,0.413452,0.836060,512
17884081,10004,-0.297852,0.413818,0.838867,509
17894078,9997,-0.298096,0.415649,0.838257,512
17904078,10000,-0.299072,0.414185,0.839111,511
17914093,10015,-0.297729,0.413696,0.837402,512
17924109,10016,-0.297607,0.412964,0.836060,513
17934086,9977,-0.296997,0.410034,0.836060,511
17944102,10016,-0.296265,0.411621,0.838013,511
17954077,9975,-0.294312,0.415405,0.837646,512
17964081,10004,-0.295044,0.413818,0.835205,507
17974073,9992,-0.295166,0.411743,0.834106,505
17984094,10021,-0.296021,0.414429,0.840332,512
17994091,9997,-0.299194,0.413574,0.841797,511
18004091,10000,-0.297607,0.414307,0.841064,511
18014090,9999,-0.297119,0.415039,0.842773,510
18024086,9996,-0.297363,0.415039,0.844482,512
18034088,10002,-0.297241,0.414185,0.844360,509
18044096,10008,-0.298950,0.411499,0.837891,502
18054080,9984,-0.297485,0.409668,0.839355,509
18064082,10002,-0.297729,0.411865,0.838013,503
18074092,10010,-0.294922,0.412720,0.837891,505
18084087,9995,-0.296265,0.413086,0.835571,510
18094093,10006,-0.300415,0.410889,0.831421,512
18104092,9999,-0.301636,0.412964,0.832031,512
18114078,9986,-0.300415,0.414307,0.830566,517
18124119,10041,-0.302856,0.415527,0.827271,518
18134086,9967,-0.303345,0.415039,0.825806,521
18144101,10015,-0.301392,0.412964,0.822632,517
18154097,9996,-0.295776,0.420166,0.826294,522
18164085,9988,-0.293091,0.418457,0.827515,521
18174087,10002,-0.292480,0.416992,0.828857,521
18184079,9992,-0.293213,0.418091,0.831665,523
18194085,10006,-0.294312,0.418335,0.833740,522
18204094,10009,-0.295288,0.416260,0.841187,520
18214078,9984,-0.295532,0.418213,0.839722,519
18224094,10016,-0.295044,0.415405,0.843140,518
18234080,9986,-0.296997,0.416138,0.845093,512
18244099,10019,-0.296631,0.417236,0.844971,516
18254075,9976,-0.297485,0.414551,0.844604,514
18264073,9998,-0.302124,0.408569,0.844849,515
18274086,10013,-0.305420,0.410278,0.841309,513
18284074,9988,-0.305664,0.409668,0.840454,511
18294083,10009,-0.305176,0.406738,0.839233,512
18304079,9996,-0.302979,0.406616,0.836182,508
18314089,10010,-0.298096,0.407471,0.829224,513
18324089,10000,-0.293335,0.412720,0.829956,509
18334100,10011,-0.292114,0.416382,0.830688,512
18344085,9985,-0.290649,0.419312,0.831299,510
18354098,10013,-0.293823,0.421143,0.829590,515
18364097,9999,-0.297485,0.421021,0.831177,513
18374073,9976,-0.301880,0.418701,0.832886,506
18384076,10003,-0.301270,0.420776,0.831909,519
18394073,9997,-0.298462,0.418579,0.834106,513
18404106,10033,-0.298462,0.417847,0.832886,514
18414077,9971,-0.296021,0.415039,0.834473,509
18424076,9999,-0.297729,0.410400,0.836182,513
18434096,10020,-0.296997,0.410645,0.837036,513
18444088,9992,-0.297363,0.410400,0.838257,515
18454101,10013,-0.299072,0.411743,0.841797,516
18464099,9998,-0.301147,0.413940,0.842163,512
18474096,9997,-0.298584,0.420532,0.843750,515
18484098,10002,-0.301270,0.420898,0.836304,512
18494095,9997,-0.302246,0.417603,0.829956,516
18504105,10010,-0.303345,0.411865,0.824463,516
18514091,9986,-0.303467,0.408447,0.820068,509
18524100,10009,-0.301758,0.405640,0.817505,516
18534099,9999,-0.294189,0.406372,0.825928,511
18544078,9979,-0.291992,0.411255,0.831787,511
18554101,10023,-0.292358,0.417236,0.838135,516
18564102,10001,-0.291992,0.421387,0.847778,515
18574097,9995,-0.294678,0.425537,0.855225,513
18584078,9981,-0.295288,0.432983,0.861084,512
18594093,10015,-0.297852,0.434814,0.848999,510
18604101,10008,-0.301636,0.427368,0.834351,507
18614085,9984,-0.304932,0.410645,0.822388,516
18624080,9995,-0.309692,0.393188,0.814087,512
18634084,10004,-0.305786,0.388306,0.812622,516
18644077,9993,-0.305176,0.392090,0.821533,513
18654087,10010,-0.291504,0.370361,0.833618,513
18664099,10012,-0.296753,0.378296,0.841187,512
18674092,9993,-0.289307,0.399658,0.848389,513
18684091,9999,-0.285645,0.412354,0.858643,514
18694118,10027,-0.294189,0.407349,0.875732,514
18704096,9978,-0.295776,0.423340,0.864502,506
18714101,10005,-0.296875,0.432983,0.851562,508
18724092,9991,-0.301147,0.429687,0.841797,509
18734079,9987,-0.301758,0.418701,0.835205,513
18744085,10006,-0.301758,0.406616,0.826172,513
18754075,9990,-0.301270,0.406494,0.813599,513
18764093,10018,-0.297852,0.408569,0.820190,514
18774074,9981,-0.295288,0.414795,0.828247,509
18784087,10013,-0.297119,0.418701,0.837769,511
18794076,9989,-0.291748,0.422241,0.845581,512
18804073,9997,-0.290894,0.433228,0.847900,512
18814087,10014,-0.290894,0.435303,0.846802,513
18824075,9988,-0.291016,0.432495,0.842285,512
18834089,10014,-0.288330,0.426880,0.834595,511
18844099,10010,-0.292480,0.415527,0.822021,512
18854086,9987,-0.294556,0.404053,0.816406,512
18864080,9994,-0.297241,0.405884,0.821533,512
18874075,9995,-0.300171,0.405762,0.829956,508
18884121,10046,-0.300537,0.404175,0.839844,508
18894101,9980,-0.299683,0.405762,0.845825,516
18904076,9975,-0.297974,0.413330,0.850586,519
18914089,10013,-0.296875,0.419800,0.862549,521
18924093,10004,-0.295044,0.424438,0.863892,520
18934081,9988,-0.289551,0.421387,0.856689,523
18944079,9998,-0.290771,0.422241,0.848877,521
18954076,9997,-0.293457,0.415161,0.833008,522
18964080,10004,-0.296265,0.402954,0.818359,517
18974075,9995,-0.302490,0.401855,0.820923,523
18984084,10009,-0.305908,0.400269,0.826050,522
18994095,10011,-0.307617,0.398682,0.830933,522
19004076,9981,-0.307129,0.399292,0.833252,520
19014099,10023,-0.306152,0.401367,0.839233,520
19024078,9979,-0.298828,0.413330,0.843628,519
19034080,10002,-0.298218,0.411255,0.844238,519
19044081,10001,-0.297607,0.410767,0.842163,517
19054079,9998,-0.300293,0.409668,0.840088,516
19064098,10019,-0.301025,0.411621,0.831787,517
19074127,10029,-0.304077,0.403687,0.821655,515
19084087,9960,-0.304565,0.405151,0.820679,516
19094085,9998,-0.304321,0.403931,0.823975,516
19104090,10005,-0.303589,0.405640,0.828735,508
19114092,10002,-0.303955,0.406128,0.832642,514
19124075,9983,-0.304321,0.409912,0.836548,515
19134092,10017,-0.303711,0.416504,0.839355,512
19144092,10000,-0.300903,0.416260,0.838623,514
19154078,9986,-0.296997,0.416992,0.840576,513
19164117,10039,-0.292847,0.423950,0.837280,514
19174073,9956,-0.291626,0.427490,0.831299,508
19184093,10020,-0.293457,0.414673,0.827271,515
19194088,9995,-0.294678,0.416748,0.826050,507
19204098,10010,-0.298340,0.418823,0.825806,512
19214094,9996,-0.299927,0.413574,0.825684,513
19224075,9981,-0.300903,0.410034,0.828003,510
19234090,10015,-0.302612,0.410156,0.832764,506
19244075,9985,-0.302734,0.403931,0.838745,514
19254077,10002,-0.305420,0.408569,0.844238,509
19264109,10032,-0.302246,0.414673,0.848022,508
19274082,9973,-0.294556,0.405396,0.852905,515
19284083,10001,-0.301025,0.401611,0.849243,513
19294085,10002,-0.295044,0.401855,0.846436,507
19304099,10014,-0.291992,0.401978,0.847290,514
19314091,9992,-0.294800,0.403320,0.847656,514
19324086,9995,-0.293213,0.399170,0.849609,513
19334095,10009,-0.297607,0.401611,0.849609,507
19344082,9987,-0.298584,0.436646,0.852173,512
19354101,10019,-0.300659,0.408325,0.848755,509
19364078,9977,-0.303101,0.410034,0.845581,513
19374096,10018,-0.302979,0.409302,0.844727,512
19384073,9977,-0.302612,0.408813,0.844238,511
19394075,10002,-0.301392,0.407593,0.838745,510
19404099,10024,-0.297852,0.410522,0.831787,511
19414095,9996,-0.296143,0.410767,0.831543,508
19424074,9979,-0.294922,0.411499,0.832520,511
19434078,10004,-0.295532,0.413940,0.830444,504
19444078,10000,-0.296631,0.414551,0.827637,511
19454087,10009,-0.299561,0.412354,0.830688,511
19464108,10021,-0.299805,0.411255,0.829834,510
19474091,9983,-0.297485,0.410767,0.830200,509
19484102,10011,-0.297974,0.410034,0.829834,512
19494073,9971,-0.297119,0.409546,0.834473,506
19504078,10005,-0.297119,0.412476,0.835937,507
19514078,10000,-0.298706,0.411865,0.838989,512
19524076,9998,-0.299316,0.413086,0.840454,511
19534096,10020,-0.299805,0.411011,0.842285,507
19544087,9991,-0.300537,0.411987,0.841431,510
19554095,10008,-0.300659,0.410889,0.840088,510
19564075,9980,-0.302612,0.412842,0.838867,510
19574100,10025,-0.297852,0.408325,0.836792,508
19584093,9993,-0.296387,0.411499,0.837280,510
19594076,9983,-0.295532,0.416016,0.835449,505
19604082,10006,-0.297729,0.414062,0.835449,510
19614085,10003,-0.295044,0.406006,0.835327,514
19624094,10009,-0.302612,0.409424,0.835571,513
19634073,9979,-0.298584,0.408569,0.835205,516
19644099,10026,-0.299316,0.410278,0.837646,510
19654104,10005,-0.302856,0.413086,0.838745,511
19664086,9982,-0.298950,0.407837,0.837769,512
19674084,9998,-0.299438,0.411377,0.837769,519
19684076,9992,-0.300659,0.413574,0.837402,520
19694098,10022,-0.299316,0.412842,0.836060,515
19704090,9992,-0.299683,0.410767,0.837158,517
19714093,10003,-0.301392,0.412231,0.838257,511
19724089,9996,-0.302612,0.410278,0.837402,511
19734081,9992,-0.302490,0.407593,0.835083,515
19744104,10023,-0.300659,0.410156,0.836182,516
19754091,9987,-0.300415,0.409180,0.835449,516
19764077,9986,-0.298950,0.408081,0.836670,515
19774095,10018,-0.298462,0.411499,0.837524,513
19784074,9979,-0.296875,0.412842,0.835937,507
19794074,10000,-0.296387,0.414185,0.838745,507
19804089,10015,-0.298096,0.415527,0.838745,507
19814085,9996,-0.300049,0.413940,0.834595,511
19824081,9996,-0.300903,0.415161,0.835205,510
19834095,10014,-0.300903,0.418823,0.833618,510
19844079,9984,-0.302002,0.414429,0.831543,507
19854100,10021,-0.303467,0.413086,0.831421,510
19864094,9994,-0.300049,0.411133,0.830322,511
19874090,9996,-0.300659,0.411865,0.830322,510
19884091,10001,-0.300049,0.414673,0.832153,511
19894079,9988,-0.299316,0.413574,0.829468,504
19904088,10009,-0.301147,0.413940,0.832031,511
19914083,9995,-0.301758,0.415894,0.835937,512
19924085,10002,-0.302124,0.415771,0.837524,512
19934099,10014,-0.301514,0.418213,0.840088,507
19944074,9975,-0.301514,0.418213,0.841064,512
19954074,10000,-0.301392,0.414917,0.837646,513
19964104,10030,-0.302612,0.414795,0.839600,510
19974090,9986,-0.300415,0.414795,0.835815,512
19984084,9994,-0.298950,0.413818,0.834595,509
19994102,10018,-0.298828,0.411987,0.832520,511
20004090,9988,-0.298828,0.411011,0.830566,512
20014101,10011,-0.300415,0.410522,0.829956,512
20024090,9989,-0.300781,0.407471,0.830200,512
20034082,9992,-0.300171,0.416748,0.834106,505
20044100,10018,-0.301025,0.421753,0.836304,509
20054082,9982,-0.306030,0.416504,0.840820,507
20064079,9997,-0.304688,0.415527,0.837280,509
20074081,10002,-0.304321,0.412720,0.836426,511
20084082,10001,-0.303589,0.411499,0.833862,505
20094094,10012,-0.301025,0.410645,0.834473,510
20104079,9985,-0.302002,0.412598,0.838989,509
20114102,10023,-0.301636,0.413330,0.837158,506
20124096,9994,-0.302490,0.411011,0.836792,511
20134076,9980,-0.304199,0.410400,0.837646,509
20144097,10021,-0.305176,0.412842,0.840942,502
20154078,9981,-0.302368,0.420288,0.841309,508
20164084,10006,-0.301147,0.422119,0.836182,508
20174095,10011,-0.300049,0.419434,0.832031,502
20184084,9989,-0.300781,0.419312,0.831665,508
20194075,9991,-0.300171,0.419800,0.833008,506
20204093,10018,-0.296143,0.418213,0.830566,500
20214080,9987,-0.302124,0.419312,0.831299,507
20224085,10005,-0.307983,0.411255,0.825073,504
20234096,10011,-0.312378,0.412598,0.827148,498
20244096,10000,-0.315918,0.404175,0.827148,501
20254086,9990,-0.314209,0.401855,0.828491,505
20264079,9993,-0.313599,0.400269,0.829102,505
20274086,10007,-0.310669,0.403931,0.834961,500
20284093,10007,-0.304810,0.407349,0.834595,505
20294102,10009,-0.302490,0.410156,0.833008,509
20304080,9978,-0.301514,0.410034,0.833984,503
20314078,9998,-0.302490,0.412964,0.832642,508
20324128,10050,-0.302368,0.413574,0.830566,510
20334097,9969,-0.305420,0.418213,0.830933,511
20344083,9986,-0.306274,0.419922,0.831543,511
20354084,10001,-0.306274,0.417236,0.831543,512
20364081,9997,-0.305786,0.416260,0.834351,513
20374102,10021,-0.306030,0.417114,0.833618,514
20384082,9980,-0.305420,0.411011,0.835571,515
20394080,9998,-0.303711,0.410522,0.835449,517
20404098,10018,-0.304565,0.410278,0.835449,515
20414080,9982,-0.307373,0.407959,0.834106,512
20424097,10017,-0.305542,0.406616,0.836670,508
20434113,10016,-0.305054,0.408081,0.835815,513
20444087,9974,-0.305542,0.408813,0.835937,513
20454103,10016,-0.306152,0.411011,0.837036,508
20464079,9976,-0.304810,0.410889,0.838867,512
20474077,9998,-0.304810,0.411865,0.836426,509
20484078,10001,-0.305054,0.414062,0.835937,509
20494097,10019,-0.304443,0.413818,0.834839,505
20504082,9985,-0.303833,0.415527,0.833252,510
20514081,9999,-0.305054,0.414185,0.832275,508
20524088,10007,-0.306519,0.410889,0.828857,509
20534082,9994,-0.307251,0.409546,0.827026,504
20544106,10024,-0.306396,0.407227,0.828247,509
20554079,9973,-0.307251,0.408325,0.829468,500
20564084,10005,-0.308228,0.408203,0.833252,508
20574097,10013,-0.308105,0.410767,0.837402,508
20584079,9982,-0.304443,0.410645,0.841431,507
20594082,10003,-0.301880,0.406494,0.846313,504
20604088,10006,-0.304565,0.408691,0.849487,508
20614092,10004,-0.302612,0.411621,0.849243,509
20624074,9982,-0.303101,0.410400,0.846069,507
20634081,10007,-0.303467,0.408569,0.846069,504
20644081,10000,-0.303711,0.406006,0.841797,502
20654097,10016,-0.304932,0.403198,0.835937,510
20664086,9989,-0.305908,0.401123,0.832886,504
20674097,10011,-0.304565,0.401123,0.834595,509
20684083,9986,-0.305298,0.403320,0.834351,510
20694100,10017,-0.305786,0.406616,0.836426,509
20704084,9984,-0.306519,0.408203,0.837646,510
20714076,9992,-0.305298,0.412598,0.836914,505
20724095,10019,-0.307007,0.412964,0.835815,511
20734095,10000,-0.307739,0.412598,0.832886,510
20744092,9997,-0.306519,0.411621,0.830322,507
20754088,9996,-0.306519,0.411011,0.828369,510
20764105,10017,-0.303223,0.410767,0.825073,508
20774085,9980,-0.302979,0.410522,0.823608,506
20784100,10015,-0.303345,0.410522,0.827515,510
20794100,10000,-0.304199,0.410156,0.828735,509
20804090,9990,-0.304443,0.411133,0.828979,508
20814079,9989,-0.306641,0.410889,0.831665,510
20824089,10010,-0.305298,0.409790,0.837891,511
20834088,9999,-0.305420,0.408569,0.836426,510
20844091,10003,-0.305176,0.409180,0.837158,503
20854090,9999,-0.304810,0.409546,0.838623,511
20864099,10009,-0.306274,0.410645,0.840088,509
20874083,9984,-0.305054,0.403198,0.845093,508
20884099,10016,-0.302002,0.406128,0.846924,505
20894083,9984,-0.302612,0.405396,0.846924,507
20904091,10008,-0.304565,0.406616,0.846924,501
20914088,9997,-0.302490,0.406738,0.847900,506
20924074,9986,-0.303223,0.404907,0.845947,508
20934075,10001,-0.304443,0.402710,0.842285,510
20944089,10014,-0.304565,0.402466,0.840332,511
20954088,9999,-0.303589,0.404053,0.840942,511
20964093,10005,-0.303955,0.404175,0.838379,513
20974097,10004,-0.303345,0.405518,0.834839,507
20984098,10001,-0.302612,0.408203,0.833130,514
20994075,9977,-0.303467,0.407471,0.831909,515
21004083,10008,-0.304565,0.409790,0.831909,508
21014100,10017,-0.303833,0.412109,0.832153,512
21024096,9996,-0.303955,0.411133,0.832031,511
21034091,9995,-0.302002,0.410522,0.832397,521
21044097,10006,-0.301880,0.412598,0.832275,515
21054087,9990,-0.302734,0.412720,0.833984,514
21064076,9989,-0.304199,0.410156,0.833984,509
21074095,10019,-0.305176,0.409058,0.833740,515
21084082,9987,-0.303955,0.410156,0.836670,515
21094073,9991,-0.302490,0.406860,0.836792,514
21104092,10019,-0.301514,0.407715,0.840454,506
21114079,9987,-0.302124,0.410034,0.839722,512
21124090,10011,-0.303101,0.407593,0.839355,512
21134102,10012,-0.303223,0.406616,0.839233,511
21144082,9980,-0.304688,0.406738,0.840210,511
21154090,10008,-0.307129,0.404907,0.840942,504
21164074,9984,-0.306274,0.404541,0.841064,507
21174075,10001,-0.307251,0.406372,0.841064,503
21184076,10001,-0.307129,0.405640,0.840088,505
21194094,10018,-0.306396,0.403198,0.839355,512
21204097,10003,-0.300781,0.405151,0.841187,507
21214096,9999,-0.298950,0.409180,0.841797,516
21224089,9993,-0.297363,0.408569,0.843384,519
21234077,9988,-0.299072,0.409180,0.841797,524
21244095,10018,-0.299927,0.409912,0.840088,526
21254092,9997,-0.300781,0.413818,0.839844,527
21264086,9994,-0.306641,0.410278,0.840454,531
21274102,10016,-0.306152,0.403320,0.837036,529
21284095,9993,-0.307739,0.406372,0.833740,532
21294081,9986,-0.306152,0.407104,0.835083,532
21304074,9993,-0.305054,0.403931,0.834473,525
21314093,10019,-0.304810,0.403931,0.833130,529
21324078,9985,-0.303223,0.404541,0.834473,524
21334096,10018,-0.300171,0.406006,0.833374,524
21344095,9999,-0.300537,0.411377,0.832886,521
21354083,9988,-0.302246,0.414307,0.836182,512
21364082,9999,-0.304077,0.414673,0.840576,516
21375468,11386,-0.305420,0.412964,0.836548,511
21384083,8615,-0.305176,0.411377,0.832886,503
21394086,10003,-0.305542,0.409912,0.833740,507
21404081,9995,-0.304565,0.408936,0.833008,507
21414090,10009,-0.304199,0.404907,0.833130,508
21424079,9989,-0.301147,0.406982,0.835083,507
21434078,9999,-0.301147,0.407227,0.835937,508
21444081,10003,-0.302856,0.406250,0.837280,506
21454094,10013,-0.304077,0.405762,0.838745,508
21464081,9987,-0.305298,0.406372,0.839966,512
21474077,9996,-0.305420,0.406738,0.838867,514
21484493,10416,-0.307007,0.406616,0.840820,513
21494092,9599,-0.306763,0.404785,0.839966,512
21504076,9984,-0.306030,0.406006,0.837891,505
21514096,10020,-0.304688,0.404785,0.835571,511
21524078,9982,-0.304077,0.405640,0.835693,503
21534090,10012,-0.301025,0.405273,0.835937,506
21544074,9984,-0.299927,0.408081,0.836182,504
21554083,10009,-0.299561,0.408447,0.836914,505
21564095,10012,-0.301392,0.409302,0.838379,505
21574088,9993,-0.303833,0.409180,0.839966,505
21584118,10030,-0.305298,0.410278,0.841064,503
21594094,9976,-0.304688,0.408691,0.841187,504
21604098,10004,-0.303711,0.409790,0.841064,500
21614103,10005,-0.303467,0.410156,0.841431,497
21624090,9987,-0.303833,0.406860,0.841431,505
21634096,10006,-0.303467,0.405396,0.840332,503
21644081,9985,-0.305786,0.404907,0.837891,505
21654099,10018,-0.304321,0.402344,0.839600,504
21664073,9974,-0.304199,0.401855,0.837891,506
21674078,10005,-0.306519,0.401489,0.839722,508
21684090,10012,-0.305420,0.403442,0.839233,506
21694088,9998,-0.303467,0.405029,0.838745,505
21704073,9985,-0.301636,0.407104,0.838135,504
21714094,10021,-0.302124,0.406982,0.838867,508
21724085,9991,-0.300049,0.406860,0.838501,510
21734088,10003,-0.301392,0.408447,0.839355,511
21744085,9997,-0.302856,0.410156,0.839111,510
21754096,10011,-0.303345,0.410034,0.839844,515
21764088,9992,-0.304199,0.408691,0.838013,509
21774092,10004,-0.304932,0.406982,0.835083,506
21785456,11364,-0.305542,0.405151,0.833740,511
21794097,8641,-0.306641,0.404175,0.834717,509
21804074,9977,-0.307495,0.406006,0.834839,508
21814102,10028,-0.305054,0.406494,0.836670,508
21824101,9999,-0.306152,0.407959,0.836426,508
21834090,9989,-0.305664,0.408081,0.835937,504
21844080,9990,-0.305054,0.408813,0.839111,508
21854101,10021,-0.305298,0.409668,0.837769,509
21864084,9983,-0.304199,0.406616,0.836182,504
21874100,10016,-0.303833,0.407471,0.836304,506
21884083,9983,-0.302856,0.406982,0.836182,510
21894095,10012,-0.302490,0.406982,0.836670,507
21904093,9998,-0.301758,0.409180,0.836060,512
21914076,9983,-0.303345,0.408569,0.834106,513
21924080,10004,-0.305542,0.408447,0.832886,507
21934078,9998,-0.305542,0.408325,0.835083,511
21944073,9995,-0.303833,0.408081,0.837158,511
21954090,10017,-0.304199,0.407837,0.836670,509
21964091,10001,-0.302612,0.407104,0.835327,512
21974089,9998,-0.303955,0.402466,0.836670,505
21984084,9995,-0.303589,0.404663,0.841553,509
21994102,10018,-0.302124,0.408325,0.846680,512
22004086,9984,-0.303711,0.403198,0.837402,508
22014076,9990,-0.310425,0.396729,0.836792,511
22024098,10022,-0.305054,0.406494,0.837769,504
22034073,9975,-0.303223,0.409912,0.836670,506
22044083,10010,-0.302490,0.410889,0.838745,507
22054097,10014,-0.300781,0.410645,0.839111,508
22064096,9999,-0.299438,0.413452,0.837402,507
22074087,9991,-0.301514,0.408569,0.837158,503
22084098,10011,-0.300903,0.410767,0.839111,506
22094086,9988,-0.302612,0.410767,0.839844,508
22104094,10008,-0.303223,0.410400,0.838989,508
22114081,9987,-0.304932,0.407349,0.837280,510
22124082,10001,-0.305664,0.406128,0.837769,508
22134082,10000,-0.304810,0.405396,0.840820,500
22144098,10016,-0.302856,0.404907,0.838501,509
22154101,10003,-0.301270,0.407104,0.839844,508
22164082,9981,-0.300171,0.408081,0.840942,502
22174079,9997,-0.300415,0.407593,0.839600,508
22184085,10006,-0.300415,0.406250,0.835571,507
22194126,10041,-0.301514,0.406250,0.837769,503
22204102,9976,-0.301880,0.407715,0.837891,507
22214073,9971,-0.302612,0.408081,0.837524,508
22224080,10007,-0.304443,0.407227,0.838379,511
22234090,10010,-0.302734,0.407349,0.839233,504
22244086,9996,-0.302124,0.406982,0.837402,503
22254077,9991,-0.302979,0.407593,0.839844,512
22264079,10002,-0.303711,0.407471,0.840332,506
22274100,10021,-0.303955,0.406738,0.839111,513
22284096,9996,-0.304688,0.407593,0.837280,510
22294095,9999,-0.305054,0.404907,0.837158,512
22304090,9995,-0.303833,0.403931,0.838013,506
22314097,10007,-0.303223,0.405151,0.837891,515
22324092,9995,-0.301270,0.405884,0.837891,513
22334091,9999,-0.300293,0.405884,0.838257,514
22344091,10000,-0.298828,0.406494,0.837402,514
22354102,10011,-0.301270,0.409180,0.837646,516
22364085,9983,-0.302856,0.408569,0.836914,512
22374102,10017,-0.303589,0.407593,0.836914,513
22384073,9971,-0.304199,0.408691,0.836304,507
22394098,10025,-0.303711,0.407715,0.837158,512
22404110,10012,-0.303955,0.407227,0.838623,509
22414084,9974,-0.301514,0.405396,0.839600,512
22424085,10001,-0.301147,0.406372,0.840454,512
22434091,10006,-0.301147,0.406128,0.839966,507
22444074,9983,-0.301514,0.402954,0.840576,510
22454088,10014,-0.303223,0.405029,0.840942,507
22464088,10000,-0.303101,0.409912,0.841309,511
22474081,9993,-0.304810,0.408936,0.839844,506
22484082,10001,-0.305420,0.407104,0.838745,512
22494102,10020,-0.304688,0.408447,0.837402,512
22504078,9976,-0.303589,0.408813,0.833740,513
22515198,11120,-0.302246,0.405884,0.835449,513
22524081,8883,-0.301514,0.406616,0.834839,506
22534082,10001,-0.301514,0.407104,0.836426,513
22544101,10019,-0.301025,0.405884,0.837769,508
22554073,9972,-0.301758,0.406006,0.838867,514
22564094,10021,-0.302246,0.406372,0.836548,512
22574089,9995,-0.304810,0.408447,0.836914,512
22584089,10000,-0.307129,0.407959,0.836792,512
22595048,10959,-0.305298,0.407959,0.838135,512
22604221,9173,-0.304565,0.408447,0.836548,510
22614102,9881,-0.304932,0.406982,0.833374,510
22624073,9971,-0.302979,0.408691,0.836060,506
22634091,10018,-0.302856,0.406128,0.836548,508
22644100,10009,-0.301514,0.407471,0.837036,510
22654084,9984,-0.302734,0.407227,0.836914,504
22664095,10011,-0.303711,0.407471,0.837280,510
22674092,9997,-0.305176,0.408569,0.839844,510
22684088,9996,-0.305298,0.408447,0.840820,511
22694076,9988,-0.304810,0.407959,0.837280,510
22704075,9999,-0.303955,0.407471,0.834473,512
22714097,10022,-0.305176,0.407227,0.836182,510
22724098,10001,-0.303223,0.406128,0.836304,505
22734076,9978,-0.300903,0.406128,0.833862,512
22744104,10028,-0.300903,0.406860,0.833374,511
22754099,9995,-0.303467,0.407593,0.835937,509
22764079,9980,-0.303467,0.407227,0.837036,509
22774090,10011,-0.304077,0.408081,0.838257,511
22784077,9987,-0.305908,0.407227,0.837524,511
22794078,10001,-0.307129,0.410400,0.840942,507
22804097,10019,-0.306763,0.409912,0.839966,502
22814081,9984,-0.305786,0.408691,0.840088,506
22824093,10012,-0.304077,0.409668,0.836792,508
22834074,9981,-0.301758,0.408081,0.835937,509
22844073,9999,-0.303345,0.404175,0.833496,503
22854107,10034,-0.302246,0.405396,0.833374,509
22864093,9986,-0.302368,0.406006,0.834595,509
22874088,9995,-0.303589,0.406738,0.835693,505
22884084,9996,-0.302368,0.407227,0.836304,512
22894085,10001,-0.303467,0.409058,0.839600,511
22904073,9988,-0.303833,0.408936,0.841187,502
22914076,10003,-0.304688,0.408569,0.839233,514
22924095,10019,-0.305054,0.408691,0.837891,510
22934095,10000,-0.304565,0.406738,0.839111,510
22944073,9978,-0.304199,0.407959,0.839111,516
22954096,10023,-0.305054,0.404907,0.836304,518
22964113,10017,-0.305420,0.404297,0.838501,515
22974091,9978,-0.304932,0.406372,0.838501,513
22984094,10003,-0.304565,0.406616,0.836792,516
22994094,10000,-0.304321,0.407349,0.836548,508
23004087,9993,-0.304077,0.407471,0.837891,508
23014097,10010,-0.302002,0.408813,0.838623,510
23024077,9980,-0.302734,0.409546,0.836548,512
23034093,10016,-0.304199,0.406372,0.835327,511
23044085,9992,-0.304810,0.406738,0.836304,506
23054079,9994,-0.303833,0.409302,0.837402,507
23064084,10005,-0.305420,0.407349,0.835327,512
23074130,10046,-0.305908,0.403931,0.835937,512
23084080,9950,-0.305054,0.404419,0.836182,508
23094100,10020,-0.304321,0.406250,0.837769,510
23104101,10001,-0.304199,0.406738,0.839966,509
23114079,9978,-0.302368,0.406494,0.840088,511
23124078,9999,-0.303711,0.404297,0.840576,512
23134083,10005,-0.304077,0.406860,0.843140,509
23144076,9993,-0.303955,0.409912,0.841675,512
23154083,10007,-0.305054,0.407837,0.840942,512
23164076,9993,-0.304443,0.405640,0.837769,509
23174113,10037,-0.304810,0.404297,0.834595,509
23184088,9975,-0.303467,0.405151,0.835083,507
23194092,10004,-0.303223,0.405884,0.837036,510
23204079,9987,-0.303467,0.406006,0.837158,512
23214078,9999,-0.303589,0.406250,0.838501,510
23224101,10023,-0.302246,0.410156,0.837891,512
23234073,9972,-0.302979,0.409302,0.836548,511
23244097,10024,-0.303345,0.409424,0.838379,509
23254079,9982,-0.302856,0.408936,0.838501,512
23264083,10004,-0.303345,0.408081,0.836792,512
23274089,10006,-0.306396,0.407349,0.836426,512
23284119,10030,-0.304321,0.408325,0.835693,512
23294080,9961,-0.306641,0.406860,0.837036,511
23304088,10008,-0.304810,0.406250,0.837158,511
23314083,9995,-0.304199,0.407471,0.837280,511
23324096,10013,-0.304077,0.409790,0.836304,510
23334101,10005,-0.303223,0.408081,0.836792,509
23344090,9989,-0.303711,0.407715,0.836426,510
23354090,10000,-0.304077,0.407837,0.836670,511
23364102,10012,-0.304321,0.408813,0.837524,506
23374099,9997,-0.304810,0.408203,0.835937,509
23384082,9983,-0.304932,0.405518,0.837402,510
23394082,10000,-0.305054,0.410278,0.840820,509
23404089,10007,-0.305054,0.409790,0.842285,508
23414095,10006,-0.305054,0.407104,0.839966,507
23424091,9996,-0.303345,0.407471,0.837402,505
23434097,10006,-0.302856,0.407471,0.835937,504
23444097,10000,-0.304932,0.405273,0.835937,507
23454090,9993,-0.304810,0.405396,0.835815,511
23464074,9984,-0.304443,0.406128,0.836548,510
23474087,10013,-0.304199,0.406372,0.837158,510
23484090,10003,-0.304199,0.406494,0.837036,511
23494099,10009,-0.304932,0.406372,0.837402,511
23504092,9993,-0.305786,0.407227,0.839233,510
23514100,10008,-0.306030,0.407837,0.839722,508
23524075,9975,-0.305542,0.410034,0.837402,511
23534095,10020,-0.305542,0.409912,0.837891,509
23544083,9988,-0.304932,0.410034,0.838867,508
23554078,9995,-0.304321,0.410156,0.833740,507
23564097,10019,-0.303467,0.407227,0.833618,500
23574096,9999,-0.302856,0.407593,0.834961,506
23584095,9999,-0.302856,0.407104,0.834473,506
23594082,9987,-0.301270,0.408447,0.834961,507
23604077,9995,-0.301880,0.410034,0.834839,502
23614075,9998,-0.304199,0.408813,0.833862,505
23624090,10015,-0.304199,0.410034,0.834839,511
23634100,10010,-0.305908,0.410522,0.833984,505
23644088,9988,-0.305664,0.409546,0.834106,511
23654095,10007,-0.305908,0.406128,0.835693,513
23664087,9992,-0.304321,0.407227,0.837036,515
23674088,10001,-0.303955,0.409790,0.841309,514
23684073,9985,-0.302124,0.410156,0.841064,513
23694093,10020,-0.302612,0.409790,0.839111,522
23704084,9991,-0.301147,0.410156,0.837402,514
23714102,10018,-0.301270,0.408203,0.838379,512
23724095,9993,-0.302979,0.409058,0.837036,515
23734117,10022,-0.302490,0.408569,0.835693,514
23744100,9983,-0.303711,0.407349,0.835571,512
23754094,9994,-0.303345,0.407227,0.837158,505
23764089,9995,-0.302612,0.406250,0.836548,512
23774085,9996,-0.301147,0.409790,0.838135,511
23784102,10017,-0.302734,0.410156,0.840942,512
23794089,9987,-0.301514,0.409302,0.838013,511
23804084,9995,-0.303345,0.410278,0.836670,511
23814096,10012,-0.303955,0.410522,0.837402,511
23824075,9979,-0.302612,0.406860,0.836914,511
23834086,10011,-0.302124,0.408936,0.836426,509
23844082,9996,-0.301758,0.408203,0.837891,510
23854087,10005,-0.303345,0.407593,0.840332,511
23864100,10013,-0.302368,0.406372,0.837769,511
23874084,9984,-0.302368,0.406006,0.838623,503
23884075,9991,-0.302734,0.406372,0.841064,505
23894080,10005,-0.302612,0.406982,0.841309,507
23904092,10012,-0.301636,0.407349,0.840820,507
23914089,9997,-0.302612,0.406372,0.839600,506
23924093,10004,-0.303345,0.406982,0.839111,507
23934076,9983,-0.302002,0.408569,0.836426,507
23944083,10007,-0.302856,0.408081,0.835693,503
23954116,10033,-0.304321,0.407104,0.836426,500
23964094,9978,-0.303955,0.408691,0.836548,508
23974087,9993,-0.302002,0.408569,0.837280,505
23984073,9986,-0.302856,0.408936,0.834717,506
23994098,10025,-0.303833,0.407227,0.833862,503
24004099,10001,-0.300903,0.409546,0.836426,506
24014091,9992,-0.301514,0.410156,0.834229,509
24024078,9987,-0.303955,0.406616,0.834961,509
24034100,10022,-0.301514,0.406982,0.836182,503
24044099,9999,-0.302734,0.407349,0.835693,508
24054085,9986,-0.301514,0.408203,0.837769,508
24064111,10026,-0.303345,0.407959,0.840698,508
24074099,9988,-0.300903,0.407593,0.841553,510
24084088,9989,-0.301758,0.406738,0.840088,512
24094076,9988,-0.303711,0.405396,0.839844,509
24104101,10025,-0.301514,0.407227,0.841064,511
24114075,9974,-0.302124,0.407349,0.839722,510
24124110,10035,-0.301147,0.407471,0.840698,509
24134076,9966,-0.301758,0.405884,0.839478,507
24144078,10002,-0.302002,0.405029,0.840942,509
24154102,10024,-0.300903,0.407471,0.839478,509
24164080,9978,-0.301025,0.407837,0.839111,508
24174104,10024,-0.300659,0.408081,0.839355,500
24184091,9987,-0.299927,0.408936,0.838013,501
24194087,9996,-0.300171,0.409668,0.836426,504
24204083,9996,-0.301147,0.407837,0.838135,523
24214076,9993,-0.299927,0.407471,0.837524,501
24224084,10008,-0.299194,0.406738,0.836914,508
24234097,10013,-0.299072,0.406860,0.836182,505
24244094,9997,-0.300537,0.406494,0.839844,502
24254096,10002,-0.301147,0.408936,0.840820,511
24264102,10006,-0.303223,0.403931,0.840332,508
24274109,10007,-0.303101,0.405151,0.839722,511
24284091,9982,-0.303833,0.406250,0.839478,510
24294081,9990,-0.302734,0.405884,0.839233,505
24304086,10005,-0.302124,0.406128,0.838623,507
24314080,9994,-0.301758,0.408203,0.838501,502
24324098,10018,-0.300293,0.412109,0.839600,504
24334093,9995,-0.299438,0.410522,0.836792,501
24344100,10007,-0.300049,0.408447,0.837524,507
24354095,9995,-0.298096,0.409546,0.837158,505
24364096,10001,-0.297974,0.408691,0.834961,509
24374081,9985,-0.298950,0.405396,0.834595,506
24384085,10004,-0.299683,0.406860,0.836670,509
24394084,9999,-0.300659,0.406860,0.837402,512
24404081,9997,-0.300903,0.407349,0.838379,511
24414076,9995,-0.302002,0.406494,0.837891,511
24424087,10011,-0.303589,0.406616,0.839844,514
24434085,9998,-0.302246,0.410034,0.843750,514
24444095,10010,-0.300049,0.411011,0.841431,507
24454076,9981,-0.297852,0.410889,0.839355,513
24464094,10018,-0.298218,0.406128,0.840210,513
24474075,9981,-0.298828,0.406006,0.840088,513
24484103,10028,-0.297485,0.406616,0.837524,506
24494085,9982,-0.300415,0.404053,0.837769,511
24504076,9991,-0.300293,0.403809,0.838745,511
24514079,10003,-0.300659,0.408081,0.840332,512
24524081,10002,-0.302856,0.409180,0.841553,510
24534099,10018,-0.301758,0.409424,0.841797,512
24544086,9987,-0.302368,0.407837,0.839844,511
24554097,10011,-0.301636,0.407104,0.839478,508
24564089,9992,-0.301025,0.408203,0.837402,510
24574082,9993,-0.299316,0.406982,0.837524,511
24584084,10002,-0.299316,0.405151,0.836548,507
24594102,10018,-0.299927,0.407104,0.837402,504
24604100,9998,-0.301025,0.408691,0.837280,509
24614081,9981,-0.301147,0.409302,0.839478,504
24624097,10016,-0.301270,0.410522,0.840576,510
24634077,9980,-0.301880,0.410034,0.840454,509
24644085,10008,-0.302856,0.406860,0.835083,512
24654076,9991,-0.302490,0.406860,0.834717,508
24664088,10012,-0.301636,0.408691,0.835327,509
24674092,10004,-0.301147,0.406860,0.835693,510
24684107,10015,-0.300537,0.407349,0.837402,495
24694081,9974,-0.300049,0.407959,0.838257,511
24704092,10011,-0.302734,0.408081,0.842163,512
24714076,9984,-0.301758,0.410156,0.841797,511
24724079,10003,-0.303589,0.410034,0.841187,512
24734073,9994,-0.303711,0.408691,0.843506,511
24744073,10000,-0.303955,0.408203,0.841919,510
24754090,10017,-0.302368,0.406006,0.834106,511
24764080,9990,-0.300537,0.405640,0.835449,511
24774081,10001,-0.298584,0.406250,0.836182,512
24784107,10026,-0.297729,0.407349,0.837280,510
24794096,9989,-0.298706,0.409058,0.837769,512
24804088,9992,-0.300415,0.408936,0.838501,509
24814085,9997,-0.305908,0.408081,0.836914,507
24824099,10014,-0.305298,0.407227,0.837524,509
24834098,9999,-0.306030,0.409790,0.836792,503
24844097,9999,-0.305298,0.409180,0.835205,504
24854094,9997,-0.304077,0.408569,0.833130,510
24864080,9986,-0.303467,0.408813,0.831909,506
24874079,9999,-0.302979,0.408569,0.832275,508
24884088,10009,-0.301147,0.409302,0.829590,508
24894090,10002,-0.301025,0.407837,0.829346,509
24904080,9990,-0.302124,0.409180,0.832397,511
24914093,10013,-0.302490,0.411377,0.837036,510
24924081,9988,-0.298340,0.413818,0.837402,506
24934099,10018,-0.302002,0.412109,0.836914,508
24944099,10000,-0.303223,0.410645,0.838867,509
24954079,9980,-0.301636,0.408813,0.839355,512
24964102,10023,-0.302979,0.406982,0.839233,507
24974084,9982,-0.303833,0.406128,0.838745,503
24984080,9996,-0.306274,0.402588,0.840942,509
24994129,10049,-0.305298,0.397217,0.842041,508
25004114,9985,-0.306519,0.397217,0.840332,508
25014088,9974,-0.306030,0.399780,0.841675,504
25024086,9998,-0.305176,0.401855,0.842407,508
25034098,10012,-0.301758,0.407715,0.842163,503
25044095,9997,-0.301392,0.406860,0.840576,507
25054102,10007,-0.299683,0.409912,0.838013,509
25064101,9999,-0.298218,0.412598,0.836426,523
25074090,9989,-0.299194,0.412354,0.834961,506
25084089,9999,-0.301270,0.412354,0.836182,507
25094102,10013,-0.301880,0.412354,0.834839,510
25104100,9998,-0.304688,0.410889,0.833496,511
25114083,9983,-0.304565,0.410156,0.833984,512
25124085,10002,-0.303589,0.409546,0.835449,509
25134081,9996,-0.304199,0.408081,0.838989,514
25144084,10003,-0.297852,0.408936,0.840210,513
25154088,10004,-0.297729,0.407715,0.840576,508
25164092,10004,-0.301025,0.407715,0.842651,515
25174087,9995,-0.303101,0.408203,0.843384,514
25184096,10009,-0.306274,0.405396,0.840576,516
25194086,9990,-0.310547,0.402222,0.838013,511
25204091,10005,-0.309814,0.403687,0.836060,507
25214074,9983,-0.308105,0.405396,0.833618,514
25224130,10056,-0.305908,0.406128,0.834106,510
25234081,9951,-0.303223,0.408936,0.836182,513
25244077,9996,-0.298584,0.411499,0.832764,513
25254095,10018,-0.298340,0.414917,0.831543,513
25264082,9987,-0.299683,0.414062,0.832397,507
25274101,10019,-0.298340,0.410400,0.835937,506
25284098,9997,-0.305420,0.414429,0.835571,512
25294083,9985,-0.310913,0.414307,0.836792,511
25304074,9991,-0.307983,0.402344,0.836548,507
25314074,10000,-0.308105,0.409424,0.836792,511
25324085,10011,-0.302490,0.406860,0.839600,515
25334074,9989,-0.305420,0.405396,0.841187,512
25344088,10014,-0.304688,0.404785,0.841797,510
25354090,10002,-0.302368,0.406738,0.840576,513
25364100,10010,-0.304321,0.405884,0.839478,505
25374099,9999,-0.304321,0.402954,0.837036,510
25384097,9998,-0.305786,0.406738,0.834961,510
25394078,9981,-0.305664,0.409790,0.833496,512
25404073,9995,-0.305542,0.409546,0.831909,508
25414097,10024,-0.302612,0.414307,0.831909,511
25424089,9992,-0.304810,0.414062,0.831055,508
25434120,10031,-0.306396,0.413330,0.831421,512
25444083,9963,-0.305298,0.415283,0.833252,509
25454081,9998,-0.306152,0.414673,0.834229,513
25464088,10007,-0.303345,0.410156,0.833984,513
25474078,9990,-0.303467,0.410400,0.833984,511
25484090,10012,-0.302734,0.409302,0.834229,512
25494075,9985,-0.302490,0.409912,0.836060,506
25504096,10021,-0.302368,0.410034,0.836914,506
25514082,9986,-0.304199,0.410034,0.836426,512
25524094,10012,-0.304077,0.408936,0.836182,507
25534076,9982,-0.306641,0.408936,0.836548,513
25544083,10007,-0.304688,0.410278,0.838867,509
25554716,10633,-0.305054,0.411011,0.838989,512
25564084,9368,-0.305420,0.410278,0.839233,512
25574097,10013,-0.305664,0.411377,0.839966,512
25584098,10001,-0.305542,0.411743,0.838013,506
25594079,9981,-0.304810,0.411621,0.836792,511
25604085,10006,-0.302734,0.411011,0.834961,512
25614093,10008,-0.304321,0.410767,0.834229,514
25624089,9996,-0.304688,0.408691,0.833740,514
25634078,9989,-0.303345,0.410889,0.832031,511
25644096,10018,-0.305054,0.410156,0.832520,512
25654102,10006,-0.303467,0.409668,0.833008,511
25664074,9972,-0.302979,0.410156,0.833862,511
25674090,10016,-0.304443,0.412231,0.833618,513
25684097,10007,-0.306274,0.407715,0.833496,510
25694089,9992,-0.307251,0.407715,0.835449,512
25704082,9993,-0.306030,0.411499,0.837036,512
25714090,10008,-0.306641,0.414185,0.837036,512
25724101,10011,-0.307617,0.411499,0.838989,512
25734078,9977,-0.306885,0.410889,0.837891,510
25744089,10011,-0.305298,0.412109,0.835815,505
25754108,10019,-0.305298,0.409180,0.834595,507
25764089,9981,-0.302612,0.407715,0.836060,509
25778025,13936,-0.301758,0.410767,0.835937,508
25786241,8216,-0.302490,0.408936,0.834961,503
25794073,7832,0.000000,0.000000,0.000000,510
25804085,10012,-0.304810,0.409912,0.837158,513
25814076,9991,-0.306641,0.409912,0.838135,513
25824087,10011,-0.306885,0.409424,0.838379,510
25834091,10004,-0.307739,0.410278,0.839233,516
25844074,9983,-0.307373,0.412354,0.837280,510
25854103,10029,-0.306274,0.410400,0.833496,515
25864098,9995,-0.305298,0.410522,0.833252,519
25874087,9989,-0.304321,0.411011,0.831787,514
25884081,9994,-0.304321,0.411499,0.830078,517
25894076,9995,-0.302979,0.410767,0.831543,515
25904090,10014,-0.304321,0.410034,0.833740,515
25914076,9986,-0.304810,0.411377,0.835083,512
25924093,10017,-0.306274,0.413818,0.835693,513
25934078,9985,-0.306763,0.411621,0.837280,514
25944100,10022,-0.306641,0.411987,0.836060,513
25954085,9985,-0.305176,0.411377,0.836914,515
25964079,9994,-0.304932,0.411499,0.840454,509
25974099,10020,-0.303467,0.410522,0.836304,510
25984077,9978,-0.306030,0.409302,0.834229,512
25994080,10003,-0.307007,0.409058,0.835815,508
26004102,10022,-0.307251,0.409424,0.837769,506
26014075,9973,-0.305908,0.412720,0.836914,513
26024088,10013,-0.305176,0.412598,0.837280,515
26034096,10008,-0.306519,0.412476,0.838135,507
26044117,10021,-0.305908,0.411377,0.835937,513
26054076,9959,-0.304565,0.411133,0.833130,513
26064081,10005,-0.304932,0.410645,0.832886,511
26076056,11975,-0.305176,0.411255,0.831421,512
26084102,8046,-0.306885,0.410889,0.832031,510
26094076,9974,-0.306274,0.411865,0.832031,512
26104086,10010,-0.307495,0.412842,0.832642,508
26114083,9997,-0.307251,0.411621,0.833618,512
26124096,10013,-0.307983,0.411865,0.831909,515
26134102,10006,-0.305420,0.411255,0.832031,509
26144096,9994,-0.303711,0.413086,0.833252,511
26154091,9995,-0.304810,0.415405,0.834229,514
26164089,9998,-0.304810,0.414307,0.834717,509
26174079,9990,-0.306152,0.412720,0.835205,511
26184076,9997,-0.306519,0.413208,0.835693,505
26194080,10004,-0.307983,0.411621,0.833862,506
26204083,10003,-0.306763,0.410645,0.834473,508
26214087,10004,-0.306030,0.411377,0.834229,515
26224074,9987,-0.306152,0.408325,0.833008,506
26234074,10000,-0.303955,0.410278,0.835571,511
26244082,10008,-0.304199,0.411865,0.836304,511
26254099,10017,-0.306641,0.412109,0.837036,508
26264106,10007,-0.306274,0.411133,0.836426,511
26274102,9996,-0.307007,0.411011,0.836670,511
26284083,9981,-0.306396,0.413330,0.837280,503
26294087,10004,-0.306641,0.414062,0.837524,508
26304087,10000,-0.307129,0.413940,0.838013,508
26314084,9997,-0.306519,0.414551,0.835815,514
26324093,10009,-0.306030,0.414551,0.833618,514
26334084,9991,-0.307007,0.411743,0.832397,515
26344095,10011,-0.305786,0.410645,0.830322,512
26354073,9978,-0.305542,0.408569,0.831055,509
26364075,10002,-0.303955,0.408325,0.832153,512
26374089,10014,-0.303833,0.409790,0.831665,512
26384093,10004,-0.304321,0.409302,0.834106,511
26394080,9987,-0.307007,0.410156,0.836548,510
26404087,10007,-0.307739,0.413696,0.840210,507
26414077,9990,-0.308228,0.414062,0.839111,508
26424079,10002,-0.308105,0.412109,0.836914,510
26434094,10015,-0.308716,0.413208,0.836060,507
26444077,9983,-0.307495,0.414307,0.836426,508
26454088,10011,-0.307129,0.409546,0.832031,510
26469132,15044,-0.307617,0.409058,0.829712,510
26474671,5539,-0.304932,0.408691,0.831909,502
26494262,19591,-0.303711,0.412720,0.834351,512
26499707,5445,-0.304199,0.413940,0.834717,510
26506040,6333,-0.304443,0.413086,0.834351,510
26514078,8038,-0.305420,0.414185,0.835327,497
26524101,10023,-0.306519,0.415405,0.836670,512
26534085,9984,-0.308105,0.415283,0.836426,510
26544084,9999,-0.307983,0.413940,0.836060,509
26554079,9995,-0.308716,0.412354,0.837280,514
26564073,9994,-0.308960,0.410522,0.833862,512
26574079,10006,-0.308472,0.409912,0.833496,517
26584074,9995,-0.307129,0.409302,0.833618,516
26594096,10022,-0.305664,0.408325,0.833740,510
26604089,9993,-0.304443,0.410400,0.833252,517
26614089,10000,-0.305786,0.412476,0.834717,517
26624086,9997,-0.306885,0.411987,0.834106,517
26634106,10020,-0.307007,0.413452,0.834717,509
26644089,9983,-0.307617,0.413818,0.835205,514
26654088,9999,-0.308228,0.412842,0.833252,515
26664077,9989,-0.308228,0.412720,0.833862,515
26674099,10022,-0.307861,0.412598,0.834717,512
26684079,9980,-0.307495,0.411255,0.836060,506
26694075,9996,-0.306152,0.412720,0.833496,512
26704085,10010,-0.307983,0.412842,0.835205,515
26714098,10013,-0.306030,0.410767,0.835205,513
26724075,9977,-0.307861,0.412109,0.834106,515
26734077,10002,-0.307129,0.411499,0.834717,511
26744126,10049,-0.307495,0.411255,0.834961,512
26754080,9954,-0.306152,0.411743,0.835937,515
26764078,9998,-0.305298,0.414429,0.835083,514
26774089,10011,-0.305298,0.413330,0.836670,513
26784094,10005,-0.306885,0.414673,0.836914,506
26797740,13646,-0.309448,0.415039,0.834717,510
26804088,6348,-0.310547,0.412109,0.831543,512
26814081,9993,-0.309204,0.411133,0.829468,513
26824075,9994,-0.309448,0.409546,0.829102,513
26834087,10012,-0.308716,0.411865,0.828857,509
26844075,9988,-0.308105,0.411499,0.829346,514
26854099,10024,-0.307495,0.410156,0.829590,514
26864078,9979,-0.308105,0.410522,0.829468,513
26876565,12487,-0.306030,0.415649,0.833618,513
26884092,7527,0.000000,0.000000,0.000000,513
26894092,10000,-0.306030,0.414795,0.834717,508
26904087,9995,-0.307617,0.417114,0.836182,509
26914079,9992,-0.307373,0.416382,0.835449,507
26924076,9997,-0.309570,0.412720,0.836426,511
26934077,10001,-0.308960,0.411987,0.837280,508
26944099,10022,-0.308838,0.410767,0.834961,512
26954122,10023,-0.307007,0.409058,0.835693,504
26964077,9955,-0.306519,0.408081,0.833862,510
26974091,10014,-0.306396,0.408203,0.833862,509
26984086,9995,-0.306030,0.409302,0.835815,509
26994090,10004,-0.305298,0.409790,0.836060,506
27004094,10004,-0.308594,0.409302,0.835327,510
27014098,10004,-0.309204,0.410767,0.836548,510
27024092,9994,-0.308350,0.412964,0.837280,506
27034092,10000,-0.307373,0.413574,0.837158,511
27044073,9981,-0.307617,0.412964,0.834717,511
27054082,10009,-0.308350,0.411865,0.833984,512
27064073,9991,-0.308472,0.412476,0.833252,511
27074087,10014,-0.307251,0.411377,0.832520,510
27084102,10015,-0.306763,0.411621,0.831299,512
27094093,9991,-0.306519,0.412354,0.830078,509
27104098,10005,-0.307739,0.411987,0.830322,510
27114090,9992,-0.308228,0.411255,0.833130,512
27124086,9996,-0.306152,0.410767,0.832764,512
27134078,9992,-0.305908,0.411743,0.832642,513
27144102,10024,-0.305054,0.411987,0.833984,511
27154085,9983,-0.305908,0.412720,0.835205,513
27164123,10038,-0.308350,0.411865,0.837524,511
27174105,9982,-0.308228,0.411499,0.836792,513
27184081,9976,-0.308228,0.411011,0.839233,512
27194084,10003,-0.308350,0.411621,0.837402,506
27204101,10017,-0.309082,0.409790,0.836548,511
27214086,9985,-0.309570,0.412354,0.835815,506
27224093,10007,-0.310181,0.411133,0.832275,508
27234076,9983,-0.309082,0.410645,0.830688,505
27244084,10008,-0.307373,0.411133,0.833984,505
27254086,10002,-0.307251,0.413208,0.832886,508
27264098,10012,-0.306152,0.411499,0.832153,503
27274094,9996,-0.306152,0.412720,0.831543,508
27284091,9997,-0.305420,0.413086,0.832886,510
27294100,10009,-0.305298,0.413940,0.833374,523
27304093,9993,-0.306763,0.413208,0.833496,512
27314078,9985,-0.307739,0.412598,0.833984,513
27324092,10014,-0.307617,0.412354,0.835083,514
27334079,9987,-0.307861,0.411987,0.833740,514
27344102,10023,-0.307617,0.409912,0.833008,513
27354078,9976,-0.308228,0.410889,0.833496,516
27364074,9996,-0.307861,0.410767,0.831787,515
27374079,10005,-0.307617,0.410767,0.833252,516
27384088,10009,-0.308716,0.411133,0.835815,514
27394116,10028,-0.307739,0.412598,0.836792,514
27404085,9969,-0.307739,0.413696,0.836914,514
27414089,10004,-0.307007,0.413574,0.836060,508
27424090,10001,-0.308594,0.413208,0.835327,514
27434087,9997,-0.308594,0.413086,0.833008,513
27444085,9998,-0.309082,0.410034,0.831421,513
27454091,10006,-0.308716,0.407593,0.829590,512
27464096,10005,-0.306885,0.409424,0.831299,511
27474077,9981,-0.305542,0.411499,0.831787,505
27484078,10001,-0.305176,0.413330,0.833496,511
27494100,10022,-0.309814,0.411011,0.831543,510
27504091,9991,-0.311401,0.408691,0.830078,511
27514080,9989,-0.311157,0.408936,0.829956,511
27524095,10015,-0.308350,0.409912,0.832520,511
27534089,9994,-0.307861,0.410400,0.833984,510
27544080,9991,-0.304199,0.416504,0.835815,506
27554081,10001,-0.302612,0.416870,0.835449,505
27564091,10010,-0.303223,0.413574,0.837036,507
27574092,10001,-0.302856,0.413574,0.837524,511
27584090,9998,-0.302856,0.414185,0.836914,505
27594076,9986,-0.303223,0.411865,0.838379,503
27604093,10017,-0.307007,0.409912,0.838501,509
27614095,10002,-0.307739,0.410156,0.837769,511
27624086,9991,-0.308838,0.407715,0.837891,511
27634079,9993,-0.310303,0.407227,0.839233,510
27644083,10004,-0.308716,0.407104,0.839478,511
27654083,10000,-0.307373,0.408813,0.837646,513
27664084,10001,-0.306641,0.408936,0.837646,516
27674088,10004,-0.305664,0.410400,0.835327,514
27684087,9999,-0.303711,0.412354,0.833008,513
27694086,9999,-0.304077,0.410400,0.832764,516
27704092,10006,-0.303101,0.410645,0.828491,512
27714079,9987,-0.303223,0.416382,0.827148,509
27724099,10020,-0.304199,0.416260,0.830200,511
27734077,9978,-0.304443,0.416260,0.832397,513
27744077,10000,-0.304688,0.417358,0.833374,512
27754077,10000,-0.305542,0.418579,0.833252,510
27764090,10013,-0.308716,0.414307,0.835571,512
27774097,10007,-0.307129,0.411865,0.835571,511
27784077,9980,-0.305664,0.410034,0.834839,511
27794804,10727,-0.304688,0.408203,0.834351,510
27804099,9295,-0.306152,0.406860,0.834351,512
27814093,9994,-0.305054,0.406250,0.838135,511
27824127,10034,-0.304565,0.407349,0.838257,511
27834098,9971,-0.304932,0.409912,0.840454,512
27844086,9988,-0.306396,0.410034,0.841919,509
27854074,9988,-0.306396,0.411011,0.840820,511
27864088,10014,-0.308472,0.412720,0.838257,511
27874082,9994,-0.305298,0.411865,0.834717,511
27885304,11222,-0.303101,0.411621,0.833008,511
27894101,8797,-0.303589,0.410522,0.833252,512
27904100,9999,-0.301270,0.410645,0.831177,511
27914098,9998,-0.301758,0.409668,0.830322,508
27924085,9987,-0.302246,0.411011,0.831665,504
27934079,9994,-0.305542,0.412109,0.833374,513
27944087,10008,-0.307617,0.413574,0.836304,512
27954097,10010,-0.307983,0.414185,0.837036,507
27964078,9981,-0.307617,0.414185,0.838745,509
27974093,10015,-0.307983,0.411377,0.837158,510
27984084,9991,-0.305664,0.410522,0.836792,511
27994101,10017,-0.305420,0.411865,0.837891,507
28004082,9981,-0.304321,0.410889,0.836792,526
28014076,9994,-0.304810,0.408936,0.835815,509
28024085,10009,-0.303711,0.408447,0.837280,508
28034074,9989,-0.302368,0.411499,0.835693,508
28044105,10031,-0.303589,0.409302,0.834961,510
28054090,9985,-0.303467,0.409302,0.834106,509
28064083,9993,-0.304565,0.410400,0.834839,508
28074092,10009,-0.304321,0.410156,0.833252,508
28084077,9985,-0.305664,0.408813,0.833252,510
28094094,10017,-0.305298,0.412354,0.835815,512
28104090,9996,-0.305176,0.412476,0.835815,505
28114073,9983,-0.304199,0.414429,0.836182,514
28124090,10017,-0.305298,0.413452,0.836304,507
28134088,9998,-0.305908,0.412109,0.835571,514
28144079,9991,-0.304932,0.412354,0.832764,514
28154098,10019,-0.303955,0.410889,0.832275,513
28164095,9997,-0.305298,0.411011,0.832520,514
28174083,9988,-0.304932,0.408813,0.833008,510
28184099,10016,-0.303467,0.410400,0.833008,514
28194089,9990,-0.302490,0.411377,0.832031,511
28204077,9988,-0.302124,0.412720,0.834106,513
28214224,10147,-0.303589,0.413940,0.835327,513
28224075,9851,-0.303833,0.414185,0.837280,511
28234099,10024,-0.304321,0.412231,0.836914,527
28244095,9996,-0.304810,0.410400,0.836670,511
28254082,9987,-0.304688,0.408813,0.836914,507
28264113,10031,-0.304321,0.408936,0.838745,512
28274101,9988,-0.303467,0.409668,0.840820,510
28284099,9998,-0.305054,0.408936,0.838745,503
28294074,9975,-0.303223,0.407837,0.837769,508
28304086,10012,-0.303833,0.407349,0.838013,511
28314092,10006,-0.301880,0.411987,0.838379,511
28324073,9981,-0.301636,0.413330,0.837402,508
28334084,10011,-0.302246,0.412720,0.835937,508
28344088,10004,-0.304565,0.411865,0.833862,510
28354102,10014,-0.305054,0.411987,0.832886,511
28364073,9971,-0.304199,0.410522,0.831299,509
28374099,10026,-0.304565,0.410889,0.837891,510
28384107,10008,-0.303955,0.411377,0.841797,514
28394090,9983,-0.304810,0.411499,0.835815,512
28404084,9994,-0.306396,0.406738,0.829468,511
28414075,9991,-0.305908,0.403687,0.829712,513
28424083,10008,-0.303467,0.410400,0.838745,517
28434084,10001,-0.301758,0.411255,0.836548,510
28444087,10003,-0.302490,0.410034,0.835693,519
28454101,10014,-0.302368,0.410156,0.833252,510
28464087,9986,-0.303955,0.411011,0.835937,508
28474097,10010,-0.303467,0.414185,0.840454,511
28484087,9990,-0.304565,0.413330,0.839355,509
28494079,9992,-0.304810,0.410889,0.836426,512
28504085,10006,-0.302246,0.410645,0.835815,511
28514094,10009,-0.302490,0.411377,0.839966,512
28524092,9998,-0.302856,0.413086,0.839600,508
28534100,10008,-0.302612,0.407715,0.834717,507
28544099,9999,-0.304443,0.406372,0.833984,505
28554076,9977,-0.304810,0.406372,0.836792,511
28564081,10005,-0.304321,0.406982,0.837524,509
28574075,9994,-0.303467,0.407837,0.836914,508
28584080,10005,-0.304321,0.408936,0.835449,511
28594098,10018,-0.303833,0.410889,0.834106,506
28604080,9982,-0.304932,0.413086,0.835327,505
28614096,10016,-0.305054,0.414795,0.836060,503
28624094,9998,-0.303467,0.416748,0.836426,510
28634096,10002,-0.303711,0.412598,0.832275,503
28644103,10007,-0.302612,0.414429,0.832764,509
28654082,9979,-0.299805,0.414185,0.832031,509
28664102,10020,-0.299561,0.411255,0.831909,506
28674090,9988,-0.300659,0.409180,0.832397,509
28684098,10008,-0.301880,0.408203,0.833252,508
28694101,10003,-0.305786,0.407837,0.837402,507
28704123,10022,-0.308105,0.406006,0.839233,509
28714089,9966,-0.308594,0.406372,0.840698,508
28724099,10010,-0.310425,0.407349,0.840698,510
28734083,9984,-0.308472,0.409058,0.841553,508
28744084,10001,-0.306274,0.411621,0.837769,510
28754086,10002,-0.303345,0.410034,0.838623,510
28764079,9993,-0.300415,0.411255,0.837280,511
28774102,10023,-0.299316,0.411255,0.837280,504
28784095,9993,-0.300903,0.412354,0.835693,509
28794102,10007,-0.302124,0.412476,0.834961,509
28804094,9992,-0.305298,0.413574,0.833496,506
28814099,10005,-0.305054,0.411865,0.833862,503
28824073,9974,-0.305176,0.411377,0.834961,506
28834094,10021,-0.304565,0.411255,0.833862,511
28844096,10002,-0.305298,0.411011,0.833130,513
28854085,9989,-0.305054,0.412231,0.836304,511
28864075,9990,-0.304688,0.411499,0.836670,512
28874073,9998,-0.304565,0.410400,0.836670,514
28884076,10003,-0.304688,0.411987,0.836182,514
28894090,10014,-0.303467,0.413940,0.836060,515
28904098,10008,-0.304565,0.412231,0.834106,507
28914089,9991,-0.302734,0.410767,0.831787,519
28924099,10010,-0.301880,0.411865,0.832520,514
28934074,9975,-0.301392,0.413940,0.833984,512
28944078,10004,-0.301514,0.413818,0.835205,512
28954101,10023,-0.302979,0.412720,0.836182,511
28964097,9996,-0.306152,0.409790,0.834839,511
28974073,9976,-0.305908,0.408691,0.836304,511
28984096,10023,-0.307251,0.410278,0.838867,512
28994077,9981,-0.305542,0.409668,0.839478,510
29004090,10013,-0.304810,0.408447,0.836548,510
29014085,9995,-0.304932,0.407837,0.836426,505
29024097,10012,-0.302246,0.410645,0.836914,510
29034092,9995,-0.303101,0.409912,0.837036,505
29044408,10316,-0.303223,0.410889,0.839233,511
29054101,9693,-0.302734,0.413696,0.837646,511
29064098,9997,-0.303345,0.413696,0.833496,512
29074096,9998,-0.305542,0.412598,0.834229,512
29084074,9978,-0.306763,0.412109,0.834351,510
29094098,10024,-0.306519,0.411377,0.833862,509
29104094,9996,-0.305786,0.410156,0.832153,513
29114094,10000,-0.305176,0.410767,0.833618,508
29124100,10006,-0.304810,0.410278,0.834717,512
29134091,9991,-0.303833,0.410522,0.834961,508
29144094,10003,-0.303833,0.412231,0.836670,511
29154092,9998,-0.303467,0.412598,0.836060,506
29164083,9991,-0.304443,0.411011,0.834229,513
29174084,10001,-0.304932,0.410400,0.834839,512
29184077,9993,-0.304688,0.413086,0.835815,509
29194094,10017,-0.304077,0.412354,0.833862,507
29204095,10001,-0.303711,0.414062,0.833496,512
29214086,9991,-0.303833,0.413452,0.834717,509
29224082,9996,-0.304321,0.414917,0.835571,511
29234087,10005,-0.303955,0.417114,0.835693,512
29244099,10012,-0.305786,0.409790,0.833496,514
29254100,10001,-0.305420,0.410278,0.834229,512
29264087,9987,-0.304565,0.409912,0.833374,511
29274089,10002,-0.304688,0.409302,0.833862,511
29284079,9990,-0.304932,0.409546,0.834351,506
29294080,10001,-0.305176,0.411133,0.836304,512
29304097,10017,-0.306030,0.412231,0.836792,513
29314095,9998,-0.305420,0.412964,0.837280,508
29327598,13503,-0.303711,0.415649,0.833252,512
29340983,13385,-0.304932,0.412964,0.832397,514
29346451,5468,-0.305420,0.410522,0.830200,505
29354117,7666,-0.305298,0.408569,0.830078,510
29364091,9974,-0.303345,0.410522,0.831177,510
29374076,9985,-0.302246,0.413208,0.833618,510
29384087,10011,-0.302979,0.413696,0.835571,510
29394096,10009,-0.304077,0.412720,0.833740,509
29404079,9983,-0.307251,0.410522,0.835083,510
29414092,10013,-0.307983,0.409912,0.836548,503
29424084,9992,-0.308594,0.409546,0.835937,510
29434100,10016,-0.308838,0.411865,0.836304,509
29450762,16662,-0.308228,0.410400,0.837036,503
29456679,5917,-0.306641,0.411743,0.835937,509
29464077,7398,-0.306030,0.412476,0.835937,507
29474075,9998,-0.304932,0.411987,0.835327,506
29484103,10028,-0.302368,0.413330,0.833740,503
29494082,9979,-0.301758,0.414917,0.834717,508
29504082,10000,-0.301514,0.416382,0.834106,510
29514075,9993,-0.303223,0.412598,0.833008,512
29524084,10009,-0.305054,0.414062,0.832642,511
29534102,10018,-0.305908,0.414062,0.833618,509
29544099,9997,-0.307007,0.412964,0.834351,512
29554099,10000,-0.308350,0.412109,0.833984,514
29564084,9985,-0.307007,0.411255,0.836426,516
29574081,9997,-0.308105,0.408447,0.829224,513
29584111,10030,-0.310913,0.404541,0.817749,518
29594078,9967,-0.307007,0.403809,0.835449,516
29604086,10008,-0.303589,0.417603,0.864380,515
29614078,9992,-0.299072,0.421753,0.850464,512
29624092,10014,-0.304810,0.401245,0.809204,509
29634084,9992,-0.303955,0.411743,0.835571,514
29644099,10015,-0.303345,0.424927,0.859985,509
29654096,9997,-0.306274,0.427856,0.852173,508
29664096,10000,-0.309204,0.413086,0.832886,513
29674083,9987,-0.304443,0.404297,0.820557,510
29684086,10003,-0.300415,0.416016,0.841187,510
29694089,10003,-0.303711,0.420532,0.845825,512
29704117,10028,-0.307495,0.411499,0.844727,508
29714073,9956,-0.311523,0.404907,0.833862,513
29724079,10006,-0.308472,0.402710,0.824707,511
29734085,10006,-0.303711,0.413818,0.842773,506
29744094,10009,-0.303955,0.417969,0.847168,510
29754076,9982,-0.304688,0.414307,0.840088,511
29764075,9999,-0.306152,0.410889,0.833374,509
29774079,10004,-0.307007,0.409912,0.824951,511
29784084,10005,-0.305298,0.413208,0.836792,510
29794090,10006,-0.304810,0.417236,0.836914,511
29804078,9988,-0.305054,0.415161,0.832031,510
29814109,10031,-0.306763,0.410767,0.828735,510
29824084,9975,-0.307251,0.411133,0.829590,510
29834094,10010,-0.304443,0.412109,0.833008,508
29844079,9985,-0.303101,0.416382,0.831421,512
29854083,10004,-0.303833,0.413086,0.833618,510
29864086,10003,-0.305542,0.413086,0.836548,513
29874096,10010,-0.307007,0.414062,0.835815,512
29884077,9981,-0.307739,0.414551,0.835083,505
29894102,10025,-0.307739,0.409302,0.834717,515
29904076,9974,-0.305786,0.409302,0.834351,512
29914079,10003,-0.304932,0.410278,0.832764,511
29924075,9996,-0.303223,0.410278,0.833618,512
29934084,10009,-0.302979,0.412476,0.835693,508
29944091,10007,-0.302979,0.414551,0.836182,509
29954109,10018,-0.306274,0.414795,0.838013,512
29964101,9992,-0.307739,0.415771,0.837524,511
29974090,9989,-0.309814,0.415771,0.835693,513
29984084,9994,-0.308960,0.415039,0.837646,510
29994099,10015,-0.308228,0.413452,0.833740,511
30004079,9980,-0.304077,0.411987,0.834717,509
30014081,10002,-0.304077,0.411987,0.833496,505
30024078,9997,-0.303833,0.411743,0.831787,508
30034074,9996,-0.303833,0.409668,0.833008,512
30044081,10007,-0.302856,0.409668,0.833618,512
30056217,12136,-0.306763,0.411865,0.834229,512
30064112,7895,-0.307617,0.411499,0.832764,512
30074082,9970,-0.307251,0.412964,0.833618,514
30084102,10020,-0.306519,0.414673,0.833130,510
30094086,9984,-0.305786,0.414917,0.831665,512
30104092,10006,-0.306152,0.413452,0.832153,510
30114099,10007,-0.305664,0.415161,0.833862,511
30124087,9988,-0.306274,0.414673,0.833252,512
30134089,10002,-0.307617,0.413696,0.836670,512
30150602,16513,-0.306763,0.413452,0.835815,510
30158532,7930,-0.306763,0.413574,0.836548,503
30164516,5984,0.000000,0.000000,0.000000,508
30174091,9575,-0.307861,0.409912,0.835937,509
30184084,9993,-0.307129,0.410645,0.836426,502
30194102,10018,-0.306396,0.414307,0.838013,509
30204099,9997,-0.307129,0.414551,0.834351,504
30214075,9976,-0.307861,0.410156,0.828369,509
30224097,10022,-0.305054,0.411987,0.832764,512
30234077,9980,-0.303589,0.414795,0.833130,511
30252385,18308,-0.303833,0.414185,0.833252,512
30259894,7509,-0.305420,0.414307,0.831543,515
30265485,5591,0.000000,0.000000,0.000000,510
30274089,8604,-0.305786,0.413452,0.832886,515
30284106,10017,-0.309204,0.412964,0.834351,508
30294090,9984,-0.309326,0.411255,0.831543,510
30304077,9987,-0.308472,0.410034,0.831055,515
30314092,10015,-0.306152,0.411133,0.830811,515
30324090,9998,-0.306152,0.412720,0.833862,515
30334093,10003,-0.306274,0.411865,0.833374,512
30344088,9995,-0.306641,0.410645,0.832764,510
30354087,9999,-0.305542,0.411743,0.835083,515
30364079,9992,-0.306519,0.414551,0.836304,508
30374077,9998,-0.307129,0.414062,0.836182,511
30384078,10001,-0.307983,0.413086,0.835083,514
30394078,10000,-0.308960,0.412598,0.834351,514
30404097,10019,-0.308350,0.412964,0.833374,513
30414089,9992,-0.307373,0.411987,0.833008,512
30424097,10008,-0.307007,0.411255,0.833130,513
30434090,9993,-0.307129,0.411499,0.833862,513
30451753,17663,-0.307617,0.411621,0.832153,514
30460829,9076,0.000000,0.000000,0.000000,511
30466741,5912,-0.307983,0.410400,0.836426,510
30474101,7360,-0.306519,0.412720,0.838135,513
30484102,10001,-0.307373,0.413818,0.836060,512
30494076,9974,-0.308350,0.412109,0.835571,505
30504079,10003,-0.308838,0.415527,0.836792,512
30514107,10028,-0.307129,0.415527,0.837891,510
30524081,9974,-0.308228,0.415161,0.834961,508
30534098,10017,-0.308228,0.413452,0.833130,506
30544096,9998,-0.308105,0.412476,0.829102,513
30554086,9990,-0.307129,0.411377,0.829468,512
30564093,10007,-0.306152,0.411255,0.831055,512
30574094,10001,-0.305420,0.410767,0.830688,512
30584097,10003,-0.307861,0.411011,0.828979,513
30594075,9978,-0.306885,0.412231,0.833496,512
30604085,10010,-0.306030,0.415039,0.836060,512
30614079,9994,-0.307251,0.415283,0.834106,510
30624103,10024,-0.307861,0.414673,0.835327,512
30634110,10007,-0.308472,0.415161,0.834229,509
30644088,9978,-0.308350,0.412720,0.832886,513
30654087,9999,-0.308472,0.411987,0.830078,512
30664079,9992,-0.307861,0.410522,0.830933,512
30674073,9994,-0.307861,0.412720,0.831665,514
30684087,10014,-0.307373,0.414062,0.831665,511
30694089,10002,-0.306763,0.412720,0.830811,506
30704089,10000,-0.307007,0.413452,0.834106,508
30714087,9998,-0.306763,0.415771,0.834839,509
30724082,9995,-0.307617,0.413696,0.833740,513
30734100,10018,-0.306641,0.412354,0.833984,512
30744121,10021,-0.307495,0.412720,0.835083,505
30754090,9969,-0.307495,0.412231,0.834839,511
30764084,9994,-0.308716,0.410400,0.835693,510
30774088,10004,-0.309326,0.412964,0.835571,509
30784075,9987,-0.307983,0.412720,0.834473,506
30794081,10006,-0.308105,0.411865,0.833740,511
30804073,9992,-0.307373,0.412231,0.832397,508
30814083,10010,-0.307739,0.412109,0.829956,510
30824088,10005,-0.307007,0.412720,0.830566,506
30834082,9994,-0.303955,0.415771,0.832275,511
30844099,10017,-0.305786,0.417114,0.831299,508
30854093,9994,-0.307983,0.414673,0.831299,508
30864095,10002,-0.309937,0.412598,0.832764,511
30874098,10003,-0.310669,0.412842,0.834473,506
30884073,9975,-0.309326,0.411133,0.834106,505
30894080,10007,-0.309082,0.411133,0.833008,511
30904084,10004,-0.309692,0.410522,0.832520,511
30914102,10018,-0.307861,0.410645,0.833984,511
30924076,9974,-0.308228,0.412231,0.833618,510
30934080,10004,-0.306152,0.414917,0.832886,506
30944396,10316,-0.306274,0.414062,0.832153,503
30954080,9684,-0.306885,0.413818,0.834229,508
30964073,9993,-0.306274,0.416626,0.832397,505
30974097,10024,-0.308350,0.414795,0.832031,502
30985346,11249,-0.308838,0.412598,0.834595,504
30994090,8744,-0.308228,0.414185,0.835693,510
31004093,10003,-0.307495,0.413574,0.833862,514
31014081,9988,-0.309204,0.410889,0.833496,514
31024091,10010,-0.308105,0.411987,0.836304,508
31034073,9982,-0.307007,0.413696,0.836060,509
31044086,10013,-0.307739,0.413696,0.835449,508
31054095,10009,-0.307617,0.412720,0.833496,509
31064098,10003,-0.308838,0.412720,0.832397,513
31074076,9978,-0.309570,0.411743,0.830322,510
31084096,10020,-0.308472,0.412354,0.831787,516
31094080,9984,-0.310547,0.413086,0.832031,515
31104102,10022,-0.309448,0.412231,0.832275,510
31114108,10006,-0.308228,0.413086,0.831055,509
31124087,9979,-0.306763,0.414429,0.832275,509
31134078,9991,-0.306396,0.414917,0.833008,515
31144081,10003,-0.307739,0.415039,0.832520,513
31154093,10012,-0.308105,0.411621,0.830200,510
31164080,9987,-0.308838,0.411621,0.828735,509
31180653,16573,-0.308105,0.414307,0.830078,512
31186522,5869,0.000000,0.000000,0.000000,508
31194091,7569,-0.307983,0.412598,0.831787,505
31204073,9982,-0.307861,0.413086,0.834717,511
31214080,10007,-0.306885,0.413330,0.834839,511
31224101,10021,-0.306519,0.412720,0.836182,511
31234092,9991,-0.305176,0.413330,0.836426,506
31244089,9997,-0.306519,0.414795,0.836914,511
31254091,10002,-0.306885,0.413330,0.836670,503
31264097,10006,-0.307861,0.410645,0.833618,509
31274092,9995,-0.308350,0.410645,0.832886,508
31284087,9995,-0.308472,0.410767,0.832642,510
31294095,10008,-0.307739,0.410767,0.833862,508
31304100,10005,-0.307983,0.410889,0.831177,512
31314086,9986,-0.307617,0.411011,0.830933,514
31324103,10017,-0.306030,0.413330,0.832764,513
31334084,9981,-0.305420,0.416260,0.834595,512
31344102,10018,-0.304932,0.417725,0.834106,509
31354079,9977,-0.306030,0.416138,0.835083,511
31364085,10006,-0.305176,0.416016,0.835083,514
31374086,10001,-0.307129,0.414551,0.835083,512
31384082,9996,-0.307373,0.411987,0.834106,511
31394102,10020,-0.308228,0.412109,0.834595,512
31404085,9983,-0.307129,0.410400,0.835205,513
31414085,10000,-0.307251,0.410889,0.834717,509
31424078,9993,-0.306885,0.409180,0.835083,511
31434074,9996,-0.308105,0.409546,0.833008,505
31444080,10006,-0.308228,0.410522,0.836914,512
31454095,10015,-0.306641,0.411743,0.836426,512
31468943,14848,-0.305908,0.413696,0.835571,513
31481759,12816,-0.306274,0.412109,0.834595,507
31493552,11793,-0.305786,0.414917,0.834229,509
31498951,5399,0.000000,0.000000,0.000000,513
31504090,5139,-0.306030,0.414795,0.833984,512
31514096,10006,-0.307983,0.413452,0.835327,512
31524094,9998,-0.308350,0.413330,0.834961,507
31534101,10007,-0.307739,0.413940,0.835937,513
31544073,9972,-0.310181,0.411133,0.835449,507
31554096,10023,-0.310181,0.411133,0.836426,510
31564081,9985,-0.307983,0.411133,0.835449,512
31574100,10019,-0.309570,0.410034,0.832520,510
31584086,9986,-0.309082,0.410767,0.833130,508
31594088,10002,-0.307251,0.407593,0.829102,512
31604078,9990,-0.304932,0.410645,0.829102,513
31614074,9996,-0.304443,0.413940,0.831421,504
31624086,10012,-0.305420,0.415894,0.831787,512
31634090,10004,-0.307129,0.418457,0.832031,511
31644079,9989,-0.309326,0.417358,0.833130,512
31654073,9994,-0.313599,0.412598,0.831055,508
31664078,10005,-0.308838,0.414429,0.830078,512
31674083,10005,-0.305542,0.417725,0.831055,503
31684084,10001,-0.305786,0.419312,0.831665,507
31694074,9990,-0.306396,0.415039,0.831665,511
31704091,10017,-0.307739,0.411743,0.829468,510
31714090,9999,-0.308350,0.411499,0.828491,507
31724095,10005,-0.307495,0.411377,0.833130,509
31734094,9999,-0.308350,0.414062,0.835449,509
31744092,9998,-0.308716,0.414917,0.833862,509
31754083,9991,-0.310059,0.413452,0.833374,512
31764089,10006,-0.309937,0.412598,0.835937,511
31774089,10000,-0.309937,0.412598,0.834839,515
31784085,9996,-0.308838,0.414062,0.834351,517
31794090,10005,-0.308594,0.414307,0.833130,516
31804074,9984,-0.307007,0.414307,0.836060,515
31814097,10023,-0.307617,0.412476,0.833496,516
31824098,10001,-0.307617,0.411255,0.833374,516
31834085,9987,-0.308838,0.411621,0.833618,516
31844083,9998,-0.307129,0.412842,0.832764,518
31854077,9994,-0.308350,0.412476,0.830444,510
31864818,10741,-0.310059,0.412598,0.832397,519
31874078,9260,-0.310425,0.413452,0.832275,517
31884089,10011,-0.310059,0.413574,0.833008,516
31894075,9986,-0.307129,0.415161,0.833374,510
31904088,10013,-0.306274,0.416504,0.832764,515
31914076,9988,-0.305908,0.415039,0.833008,515
31924087,10011,-0.308105,0.413208,0.831177,512
31934087,10000,-0.308594,0.412354,0.833496,514
31944076,9989,-0.308960,0.413940,0.834839,513
31954085,10009,-0.310425,0.411865,0.833984,513
31964089,10004,-0.312012,0.409790,0.832764,514
31978387,14298,-0.309326,0.412231,0.834229,513
31984219,5832,-0.309692,0.410400,0.833130,514
31994098,9879,-0.306641,0.411255,0.833374,513
32004084,9986,-0.305664,0.414062,0.833252,507
32014084,10000,-0.305054,0.415649,0.833618,510
32024088,10004,-0.306396,0.416870,0.832642,514
32034088,10000,-0.309692,0.413574,0.831055,513
32044085,9997,-0.309692,0.415649,0.833252,512
32054082,9997,-0.309692,0.414917,0.833252,510
32064081,9999,-0.311035,0.414307,0.832397,513
32074086,10005,-0.309570,0.413452,0.831299,513
32084098,10012,-0.309692,0.412109,0.831055,509
32094074,9976,-0.310181,0.410645,0.831177,511
32104114,10040,-0.309570,0.413086,0.832275,513
32114093,9979,-0.309692,0.412598,0.831543,514
32124085,9992,-0.309692,0.412476,0.830933,511
32134092,10007,-0.308716,0.413086,0.830444,514
32144082,9990,-0.307861,0.414062,0.830566,512
32154074,9992,-0.307495,0.414551,0.833496,513
32164078,10004,-0.307007,0.417236,0.833862,514
32174083,10005,-0.308472,0.417114,0.833130,512
32184079,9996,-0.309814,0.414307,0.831787,509
32194206,10127,-0.310547,0.413818,0.833008,513
32204111,9905,-0.309326,0.413940,0.833008,506
32214097,9986,-0.308105,0.413818,0.833496,510
32224097,10000,-0.307129,0.414307,0.834961,512
32234094,9997,-0.308594,0.414307,0.833984,514
32244081,9987,-0.309326,0.411621,0.832886,512
32254103,10022,-0.307617,0.411621,0.833252,508
32264079,9976,-0.307007,0.411011,0.833130,512
32274090,10011,-0.308350,0.410156,0.833374,512
32284073,9983,-0.307739,0.411011,0.834229,509
32294094,10021,-0.306152,0.412598,0.835205,513
32304077,9983,-0.306396,0.413818,0.834473,508
32314081,10004,-0.307251,0.414551,0.833984,509
32324088,10007,-0.308716,0.413574,0.833740,513
32334078,9990,-0.307983,0.414551,0.835205,507
32344099,10021,-0.308838,0.413940,0.833984,510
32354102,10003,-0.309326,0.412720,0.832397,512
32364096,9994,-0.310547,0.411621,0.832520,511
32374093,9997,-0.310913,0.412354,0.833008,512
32384076,9983,-0.309448,0.414795,0.833496,511
32394086,10010,-0.309082,0.413696,0.833130,512
32404095,10009,-0.308350,0.413452,0.832153,505
32414098,10003,-0.306519,0.415039,0.830444,511
32424077,9979,-0.305908,0.413574,0.830811,510
32434083,10006,-0.305542,0.414307,0.831665,507
32444086,10003,-0.305542,0.416260,0.831665,505
32454077,9991,-0.304810,0.416260,0.830811,513
32464076,9999,-0.306396,0.415283,0.831787,507
32481227,17151,-0.307983,0.414917,0.835205,514
32496394,15167,-0.309570,0.411621,0.834595,511
32503434,7040,-0.308716,0.411377,0.836182,516
32509714,6280,-0.308838,0.413208,0.835571,516
32516552,6838,-0.308838,0.412720,0.833862,514
32524093,7541,0.000000,0.000000,0.000000,514
32534097,10004,-0.307495,0.411011,0.834106,511
32544077,9980,-0.307983,0.411377,0.833862,516
32554103,10026,-0.307861,0.411499,0.834106,514
32564081,9978,-0.306396,0.412720,0.834961,518
32574073,9992,-0.305298,0.415283,0.836060,514
32584079,10006,-0.306030,0.417236,0.835327,516
32594093,10014,-0.306396,0.417358,0.833740,527
32604079,9986,-0.307739,0.415771,0.833252,516
32614080,10001,-0.309448,0.414062,0.831787,510
32624099,10019,-0.308716,0.412354,0.832153,511
32634085,9986,-0.309326,0.410278,0.828979,514
32644101,10016,-0.308716,0.410400,0.831421,508
32654078,9977,-0.305542,0.413574,0.832153,514
32664077,9999,-0.306885,0.413452,0.830811,510
32674096,10019,-0.306641,0.413452,0.832275,513
32684085,9989,-0.305908,0.414429,0.834229,506
32694089,10004,-0.308838,0.417603,0.836792,512
32704080,9991,-0.309814,0.415894,0.833862,512
32714083,10003,-0.310303,0.413574,0.835571,509
32724077,9994,-0.309082,0.413940,0.835327,513
32734103,10026,-0.306274,0.413696,0.831665,512
32744075,9972,-0.307617,0.410889,0.831543,510
32754094,10019,-0.307007,0.410034,0.830078,512
32764077,9983,-0.306152,0.411011,0.829956,512
32774091,10014,-0.306152,0.411865,0.832153,512
32788053,13962,-0.307861,0.418701,0.834595,513
32794093,6040,0.000000,0.000000,0.000000,512
32804074,9981,-0.308594,0.416504,0.833862,506
32814095,10021,-0.308472,0.415771,0.832642,513
32824091,9996,-0.308472,0.415161,0.833618,514
32834100,10009,-0.307007,0.415894,0.833984,513
32844099,9999,-0.308472,0.414062,0.832764,511
32854080,9981,-0.308105,0.414917,0.834351,514
32864073,9993,-0.307495,0.414307,0.834595,512
32874074,10001,-0.308105,0.410767,0.834595,512
32884090,10016,-0.308228,0.414307,0.835205,512
32894106,10016,-0.307373,0.415894,0.836548,512
32909991,15885,-0.308472,0.415649,0.835205,510
32917139,7148,-0.308472,0.415894,0.832031,510
32924082,6943,-0.308716,0.415527,0.829102,514
32934073,9991,-0.309692,0.414062,0.829224,511
32944079,10006,-0.312378,0.412842,0.826050,509
32954086,10007,-0.312256,0.410156,0.824341,513
32964080,9994,-0.309692,0.413086,0.824463,506
32974080,10000,-0.308472,0.413208,0.826050,506
32984097,10017,-0.304810,0.411377,0.825684,511
32994088,9991,-0.304321,0.411499,0.827637,512
33004105,10017,-0.303589,0.414062,0.830566,506
33014099,9994,-0.303223,0.415649,0.832520,509
33025014,10915,-0.307617,0.418213,0.828979,512
33034096,9082,-0.311768,0.416748,0.828735,506
33044076,9980,-0.314331,0.418213,0.829712,510
33054082,10006,-0.315552,0.419067,0.831055,510
33064082,10000,-0.312866,0.417603,0.829224,507
33074084,10002,-0.311157,0.407227,0.826416,511
33084082,9998,-0.305786,0.407471,0.828857,510
33096832,12750,-0.303711,0.409424,0.833130,508
33104902,8070,-0.302734,0.409424,0.838867,511
33115023,10121,-0.302856,0.407837,0.841309,510
33124086,9063,-0.305054,0.407104,0.841309,513
33134091,10005,-0.305542,0.409058,0.845581,514
33144107,10016,-0.303223,0.411133,0.847656,514
33154100,9993,-0.304688,0.410522,0.846680,519
33164099,9999,-0.302002,0.411255,0.843994,514
33174090,9991,-0.301270,0.414307,0.841431,515
33184103,10013,-0.301514,0.411011,0.837646,517
33194078,9975,-0.301758,0.410767,0.836060,515
33204094,10016,-0.302490,0.410278,0.833862,516
33214073,9979,-0.301270,0.411011,0.831299,516
33224091,10018,-0.301636,0.411621,0.830200,516
33234085,9994,-0.301514,0.413574,0.830078,517
33244087,10002,-0.304810,0.417236,0.834595,516
33254086,9999,-0.304199,0.417969,0.833130,512
33264093,10007,-0.304321,0.419189,0.835327,515
33274087,9994,-0.304688,0.418823,0.834961,510
33284087,10000,-0.302246,0.416260,0.834106,513
33294077,9990,-0.298096,0.411499,0.831909,508
33304078,10001,-0.296021,0.408936,0.829712,514
33314093,10015,-0.295898,0.406860,0.832275,509
33324103,10010,-0.296143,0.408081,0.835693,514
33334081,9978,-0.295288,0.407349,0.838989,509
33344078,9997,-0.298462,0.406006,0.839600,514
33354097,10019,-0.301758,0.409180,0.844360,513
33364081,9984,-0.301514,0.408325,0.847412,515
33374085,10004,-0.302002,0.406860,0.846436,513
33384087,10002,-0.301636,0.405518,0.844116,510
33394102,10015,-0.299927,0.404053,0.844238,514
33404089,9987,-0.297729,0.404053,0.843994,510
33414109,10020,-0.295044,0.403931,0.844360,512
33424078,9969,-0.296387,0.405884,0.846069,513
33434086,10008,-0.297485,0.406738,0.845825,515
33444098,10012,-0.297974,0.408569,0.842896,514
33454081,9983,-0.299927,0.409546,0.843262,514
33464088,10007,-0.298706,0.411865,0.842529,513
33474097,10009,-0.298340,0.411255,0.838989,508
33484100,10003,-0.297607,0.409668,0.835937,516
33494098,9998,-0.298218,0.407959,0.836182,516
33504098,10000,-0.297485,0.407349,0.834229,511
33514117,10019,-0.301025,0.406372,0.836304,515
33524110,9993,-0.301514,0.404785,0.837524,513
33534081,9971,-0.300903,0.403320,0.838623,510
33544078,9997,-0.300049,0.404175,0.839111,509
33554098,10020,-0.299194,0.407104,0.840942,512
33564091,9993,-0.297363,0.410889,0.842285,512
33574076,9985,-0.296021,0.408203,0.842773,511
33584073,9997,-0.297119,0.408081,0.841797,511
33594083,10010,-0.296997,0.407959,0.841064,509
33604073,9990,-0.296997,0.409424,0.842041,513
33614078,10005,-0.297119,0.409058,0.839844,511
33624082,10004,-0.297974,0.407715,0.840454,514
33634087,10005,-0.297852,0.407837,0.840332,511
33644085,9998,-0.298096,0.405396,0.838989,504
33654080,9995,-0.300415,0.407349,0.837646,510
33664099,10019,-0.300415,0.405396,0.838623,509
33674083,9984,-0.301392,0.402344,0.839478,513
33684090,10007,-0.301270,0.404175,0.840210,509
33694083,9993,-0.302124,0.405518,0.838623,506
33704101,10018,-0.302734,0.405273,0.839844,511
33714075,9974,-0.302368,0.406738,0.840332,512
33724095,10020,-0.301636,0.408569,0.840576,505
33734087,9992,-0.300781,0.409790,0.835693,511
33744095,10008,-0.301880,0.409668,0.835327,512
33754104,10009,-0.300415,0.409790,0.833252,510
33764075,9971,-0.299438,0.409912,0.833496,506
33774096,10021,-0.299805,0.410400,0.834961,511
33784081,9985,-0.298218,0.410522,0.834351,509
33794090,10009,-0.298706,0.409302,0.836304,512
33804097,10007,-0.298950,0.409424,0.838989,520
33814073,9976,-0.299561,0.407959,0.840210,520
33824099,10026,-0.299805,0.410522,0.840698,519
33834074,9975,-0.301880,0.406616,0.842773,519
33844100,10026,-0.302734,0.404785,0.843628,520
33854073,9973,-0.301636,0.405029,0.843994,516
33864092,10019,-0.302368,0.403931,0.844482,519
33874101,10009,-0.301025,0.403198,0.843506,520
33884105,10004,-0.301147,0.401001,0.840332,520
33894075,9970,-0.301636,0.401489,0.837891,520
33904084,10009,-0.299683,0.406494,0.839355,514
33914096,10012,-0.299194,0.409546,0.837036,516
33924077,9981,-0.300049,0.409546,0.836304,518
33934075,9998,-0.300903,0.411011,0.836548,514
33944089,10014,-0.301514,0.412231,0.837524,517
33954089,10000,-0.301147,0.412109,0.835571,516
33964093,10004,-0.301392,0.410034,0.833740,515
33974128,10035,-0.301270,0.409058,0.834473,514
33984093,9965,-0.300415,0.409546,0.834229,514
33994078,9985,-0.300903,0.407837,0.835205,512
34004100,10022,-0.301392,0.405029,0.834351,514
34014093,9993,-0.301270,0.404419,0.837769,513
34024101,10008,-0.301636,0.405151,0.838013,510
34034088,9987,-0.301758,0.406006,0.839722,509
34044086,9998,-0.300049,0.406616,0.842285,511
34054079,9993,-0.301025,0.407959,0.844482,506
34064076,9997,-0.300415,0.407349,0.843506,513
34074084,10008,-0.301514,0.406616,0.842651,512
34084077,9993,-0.300903,0.407104,0.840454,513
34094099,10022,-0.300903,0.407349,0.840942,514
34104103,10004,-0.301147,0.406006,0.839966,514
34114074,9971,-0.302124,0.404663,0.839355,512
34124077,10003,-0.301636,0.406494,0.838257,511
34134098,10021,-0.302246,0.407349,0.839233,511
34144095,9997,-0.301514,0.406982,0.837402,512
34154090,9995,-0.301025,0.407593,0.837769,507
34164088,9998,-0.300415,0.409668,0.835937,514
34174076,9988,-0.301270,0.409912,0.832642,511
34184074,9998,-0.302979,0.408325,0.833496,510
34194094,10020,-0.302490,0.410156,0.832764,508
34204102,10008,-0.300903,0.412109,0.833374,509
34214082,9980,-0.301025,0.411743,0.833984,514
34224093,10011,-0.301270,0.410156,0.837524,514
34234075,9982,-0.300293,0.412476,0.838013,512
34244096,10021,-0.300171,0.409790,0.837646,505
34254078,9982,-0.301025,0.408447,0.837646,513
34264096,10018,-0.301758,0.407593,0.840698,509
34274076,9980,-0.301392,0.407349,0.841919,509
34284086,10010,-0.304077,0.407349,0.841919,509
34294076,9990,-0.303223,0.406616,0.842529,511
34304090,10014,-0.301758,0.405273,0.840820,506
34314081,9991,-0.301636,0.404175,0.840942,513
34324093,10012,-0.302124,0.403198,0.840576,505
34339789,15696,-0.300781,0.404663,0.841064,512
34345012,5223,-0.299805,0.406128,0.839600,514
34354099,9087,-0.298096,0.408691,0.836060,513
34364103,10004,-0.299438,0.408569,0.834839,508
34374102,9999,-0.301636,0.409424,0.837891,512
34384079,9977,-0.301880,0.411987,0.836182,511
34394091,10012,-0.304688,0.414917,0.837036,511
34404091,10000,-0.305298,0.413452,0.836426,504
34418030,13939,-0.304810,0.410645,0.835449,511
34424077,6047,-0.302856,0.408569,0.832886,508
34434097,10020,-0.301392,0.405151,0.833618,509
34444099,10002,-0.300415,0.404297,0.836426,511
34455383,11284,-0.300415,0.406738,0.838379,510
34464099,8716,-0.300049,0.406616,0.836792,510
34474081,9982,-0.301147,0.406860,0.839600,508
34484074,9993,-0.302124,0.407593,0.840942,512
34494081,10007,-0.302002,0.406738,0.841187,512
34504082,10001,-0.303711,0.407471,0.840698,512
34517623,13541,-0.302490,0.408569,0.839355,509
34524077,6454,-0.302490,0.407471,0.839355,513
34534081,10004,-0.302979,0.406494,0.838867,512
34544103,10022,-0.302612,0.406860,0.839478,516
34554100,9997,-0.300537,0.407715,0.843750,514
34564093,9993,-0.299805,0.407593,0.842163,509
34574085,9992,-0.301025,0.406250,0.839966,517
34584084,9999,-0.301880,0.405273,0.838867,516
34594092,10008,-0.302979,0.406372,0.838745,516
34604076,9984,-0.302856,0.405762,0.836670,517
34614093,10017,-0.300781,0.407104,0.837769,516
34624079,9986,-0.301270,0.408203,0.837280,515
34634141,10062,-0.302368,0.409912,0.836426,510
34644101,9960,-0.302734,0.411377,0.837158,514
34654090,9989,-0.302734,0.411499,0.839844,513
34664093,10003,-0.302490,0.410156,0.836792,513
34674081,9988,-0.302124,0.408569,0.834717,514
34684093,10012,-0.302612,0.407104,0.835937,513
34694099,10006,-0.302124,0.407104,0.837646,513
34704089,9990,-0.301636,0.406372,0.837646,514
34714074,9985,-0.302734,0.404907,0.837646,516
34724087,10013,-0.302124,0.406128,0.837769,514
34734089,10002,-0.301514,0.407349,0.838501,513
34744101,10012,-0.301514,0.408936,0.839600,512
34754073,9972,-0.301880,0.410645,0.837646,505
34764084,10011,-0.303467,0.409546,0.840576,515
34774078,9994,-0.302734,0.410034,0.835327,515
34784101,10023,-0.302124,0.408203,0.835205,512
34794099,9998,-0.302368,0.408569,0.835571,513
34804075,9976,-0.300903,0.407959,0.834351,509
34814080,10005,-0.300781,0.407593,0.833496,513
34824079,9999,-0.301147,0.406250,0.835083,511
34834073,9994,-0.301636,0.408813,0.835815,507
34844085,10012,-0.301758,0.409302,0.837402,512
34854079,9994,-0.301636,0.411621,0.838623,512
34864075,9996,-0.301514,0.411255,0.839966,506
34874095,10020,-0.300415,0.410645,0.839722,515
34884096,10001,-0.300415,0.411743,0.838623,513
34894081,9985,-0.301636,0.410767,0.838989,508
34904085,10004,-0.302368,0.409912,0.839111,513
34914080,9995,-0.302979,0.408203,0.837524,521
34924082,10002,-0.301880,0.407227,0.837158,511
34934077,9995,-0.302246,0.406372,0.838867,512
34944097,10020,-0.301880,0.407837,0.837891,509
34957865,13768,-0.302979,0.407104,0.838257,511
34964823,6958,-0.302612,0.405762,0.839233,510
34974083,9260,-0.303589,0.407471,0.837524,512
34984084,10001,-0.301147,0.409546,0.837524,510
34994096,10012,-0.300537,0.408325,0.837036,512
35004096,10000,-0.299561,0.408447,0.836548,510
35014100,10004,-0.299683,0.409302,0.835693,509
35024080,9980,-0.301025,0.410889,0.836060,508
35036836,12756,-0.300659,0.409790,0.833984,507
35048627,11791,-0.299194,0.410400,0.833984,510
35058353,9726,-0.299561,0.409180,0.834595,508
35064515,6162,-0.299561,0.409180,0.834106,511
35074099,9584,-0.298950,0.410645,0.836060,512
35084083,9984,-0.300903,0.409424,0.837524,509
35094102,10019,-0.302124,0.407227,0.837769,509
35104096,9994,-0.305054,0.408936,0.841675,508
35114076,9980,-0.305054,0.410278,0.840698,511
35124081,10005,-0.304810,0.409790,0.841187,505
35134089,10008,-0.302979,0.407959,0.839966,510
35144088,9999,-0.301636,0.407837,0.840576,506
35154896,10808,-0.297852,0.408081,0.835815,504
35164102,9206,-0.296875,0.408813,0.835449,510
35174100,9998,-0.296875,0.408936,0.836548,508
35184111,10011,-0.296997,0.410400,0.837158,512
35194091,9980,-0.298706,0.410400,0.836792,513
35204079,9988,-0.299561,0.411621,0.838623,510
35214078,9999,-0.301514,0.410278,0.838745,510
35224089,10011,-0.301392,0.410767,0.838867,512
35242125,18036,-0.300415,0.409302,0.838745,515
35257891,15766,-0.300293,0.404297,0.837158,512
35266343,8452,-0.299927,0.404175,0.839111,516
35272212,5869,0.000000,0.000000,0.000000,518
35277015,4803,-0.298340,0.404175,0.838745,518
35284090,7075,-0.299194,0.406494,0.839722,513
35294083,9993,-0.300781,0.406006,0.840454,516
35304101,10018,-0.302002,0.404419,0.841064,514
35314076,9975,-0.299316,0.408203,0.843872,510
35324721,10645,-0.299438,0.410156,0.838867,512
35334080,9359,-0.300293,0.408325,0.837769,512
35344099,10019,-0.300293,0.409180,0.838989,512
35354102,10003,-0.301147,0.409668,0.839355,513
35364102,10000,-0.300659,0.407593,0.836914,511
35374075,9973,-0.299683,0.405273,0.834961,512
35384085,10010,-0.298340,0.406250,0.835571,512
35394088,10003,-0.297729,0.406616,0.838135,507
35404075,9987,-0.297729,0.408447,0.839966,505
35414095,10020,-0.298340,0.410034,0.839111,505
35424073,9978,-0.300659,0.409302,0.837524,511
35434087,10014,-0.300293,0.407837,0.842529,511
35446368,12281,-0.300415,0.409790,0.841675,511
35454078,7710,-0.299438,0.410156,0.839722,510
35464082,10004,-0.301270,0.407227,0.838623,512
35474090,10008,-0.301270,0.405884,0.837891,503
35484083,9993,-0.300049,0.406616,0.837036,512
35494077,9994,-0.299927,0.405640,0.836304,513
35504086,10009,-0.300903,0.406006,0.836548,511
35514076,9990,-0.300171,0.406738,0.838867,510
35524097,10021,-0.298096,0.408203,0.838745,515
35534073,9976,-0.299316,0.408813,0.838867,511
35544090,10017,-0.298096,0.407715,0.840820,514
35554074,9984,-0.297363,0.408203,0.840210,514
35565080,11006,-0.298462,0.406738,0.840698,512
35574089,9009,-0.300049,0.406616,0.839966,513
35584093,10004,-0.299561,0.406982,0.840576,513
35594076,9983,-0.299561,0.409546,0.842529,512
35604086,10010,-0.298828,0.408203,0.840698,511
35614078,9992,-0.299072,0.407837,0.840820,511
35624097,10019,-0.300537,0.407715,0.842285,510
35634102,10005,-0.297852,0.409790,0.841064,510
35649541,15439,-0.299194,0.404297,0.840210,505
35656950,7409,-0.299683,0.405762,0.840332,509
35664075,7125,-0.299438,0.407959,0.838745,508
35674083,10008,-0.302368,0.406494,0.839600,509
35684089,10006,-0.302856,0.404541,0.837891,511
35694092,10003,-0.301147,0.405273,0.835449,510
35704098,10006,-0.298706,0.407349,0.838867,510
35714110,10012,-0.298340,0.406494,0.838501,510
35724084,9974,-0.297119,0.408325,0.837036,506
35734102,10018,-0.297852,0.410522,0.837769,509
35744093,9991,-0.297119,0.410522,0.838867,510
35754080,9987,-0.299927,0.408691,0.837280,511
35764101,10021,-0.301514,0.407837,0.837524,510
35774099,9998,-0.301880,0.406616,0.836182,507
35784093,9994,-0.301880,0.405273,0.837769,510
35794093,10000,-0.301880,0.405396,0.840820,510
35804094,10001,-0.301392,0.406738,0.841309,509
35814080,9986,-0.301147,0.408081,0.841187,503
35824101,10021,-0.299683,0.407959,0.842041,505
35834090,9989,-0.299927,0.409790,0.840820,502
35844075,9985,-0.300293,0.409424,0.841553,505
35854102,10027,-0.299683,0.408203,0.840820,505
35864073,9971,-0.300171,0.406738,0.837769,510
35874090,10017,-0.299561,0.408081,0.834717,510
35884094,10004,-0.300537,0.406250,0.833496,511
35894093,9999,-0.299927,0.405273,0.834961,514
35904085,9992,-0.299683,0.406494,0.837891,514
35914089,10004,-0.300659,0.406860,0.837646,516
35924125,10036,-0.301880,0.406250,0.837891,516
35934082,9957,-0.300903,0.408203,0.840210,511
35944098,10016,-0.301636,0.410400,0.838135,518
35956788,12690,-0.301636,0.410522,0.836792,516
35968027,11239,-0.300781,0.405884,0.836060,510
35974742,6715,-0.301025,0.406982,0.836182,515
35984091,9349,-0.299438,0.409668,0.838257,510
35994094,10003,-0.297852,0.409302,0.837280,510
36004073,9979,-0.297729,0.406006,0.834106,515
36014083,10010,-0.296021,0.406738,0.843262,514
36024089,10006,-0.297363,0.414673,0.845947,507
36034099,10010,-0.304810,0.410889,0.857178,514
36044327,10228,-0.309570,0.415894,0.855225,512
36054093,9766,-0.313110,0.411987,0.841797,511
36064091,9998,-0.313721,0.400635,0.831055,512
36074103,10012,-0.316284,0.416626,0.827148,505
36084096,9993,-0.287109,0.387207,0.848633,512
36094085,9989,-0.281982,0.394653,0.852295,511
36104081,9996,-0.293945,0.400391,0.842407,511
36114088,10007,-0.295654,0.407104,0.848999,503
36124097,10009,-0.302734,0.408081,0.855713,507
36134088,9991,-0.309570,0.404541,0.859253,502
36144108,10020,-0.311157,0.402588,0.846924,507
36154096,9988,-0.315796,0.406738,0.849487,508
36164073,9977,-0.308716,0.404297,0.845215,507
36174089,10016,-0.302368,0.405884,0.844849,505
36184096,10007,-0.306519,0.405151,0.842163,510
36194082,9986,-0.312256,0.402588,0.816040,506
36204075,9993,-0.309937,0.400635,0.823608,512
36214095,10020,-0.313599,0.404541,0.829590,513
36224088,9993,-0.313110,0.406738,0.825195,512
36234100,10012,-0.312500,0.411987,0.824829,513
