t_us,dt_us,ax,ay,az,ppg
8155081,10029,0.009888,0.525024,0.807007,524
8165066,9985,0.015869,0.536865,0.822144,521
8175062,9996,0.025146,0.532959,0.824585,522
8185076,10014,0.024414,0.527954,0.821655,520
8195078,10002,0.023315,0.527588,0.821167,519
8205060,9982,0.022339,0.527588,0.821411,516
8215055,9995,0.022217,0.526978,0.823975,517
8225077,10022,0.020996,0.525757,0.818970,515
8235079,10002,0.016113,0.518311,0.815308,516
8245077,9998,0.013306,0.503784,0.815796,509
8255070,9993,0.014160,0.492310,0.822632,513
8265070,10000,0.015869,0.489502,0.828491,511
8275105,10035,0.014648,0.506470,0.829712,514
8285071,9966,0.015991,0.519043,0.830688,508
8295076,10005,0.018677,0.526733,0.829468,506
8305068,9992,0.022583,0.535278,0.833740,511
8315064,9996,0.028320,0.540649,0.840942,504
8325078,10014,0.029541,0.540161,0.846313,510
8335055,9977,0.019165,0.527344,0.842651,507
8345058,10003,0.014526,0.504395,0.835449,523
8355080,10022,0.012695,0.512451,0.837891,507
8365077,9997,0.009277,0.514893,0.845581,505
8375062,9985,0.008179,0.517822,0.849609,512
8385053,9991,0.013428,0.519531,0.848389,514
8395052,9999,0.014526,0.528687,0.838623,513
8405081,10029,0.012451,0.540649,0.830566,508
8415071,9990,0.015137,0.540283,0.828369,513
8425071,10000,0.023437,0.544189,0.835693,508
8435066,9995,0.029297,0.542114,0.843628,513
8445076,10010,0.036743,0.510376,0.844360,512
8455056,9980,0.035034,0.502441,0.832397,511
8465080,10024,0.023926,0.492920,0.810303,510
8475057,9977,0.017822,0.486694,0.791992,511
8485091,10034,0.021118,0.485718,0.779053,511
8495078,9987,0.026611,0.470947,0.777344,504
8506022,10944,0.025513,0.456177,0.786011,503
8515057,9035,0.030396,0.449951,0.802490,506
8525062,10005,0.029297,0.459595,0.814087,509
8535059,9997,0.021606,0.485352,0.818604,505
8545058,9999,0.022461,0.518555,0.816528,502
8555079,10021,0.021118,0.569946,0.819092,500
8565052,9973,0.027222,0.563721,0.828857,498
8575070,10018,0.029419,0.546265,0.840210,493
8585074,10004,0.026367,0.527710,0.840454,498
8595065,9991,0.019043,0.512573,0.833984,502
8605064,9999,0.002808,0.491089,0.826050,505
8615055,9991,0.000977,0.486816,0.829346,512
8625075,10020,0.003174,0.482544,0.841553,518
8635071,9996,0.007935,0.478516,0.845581,523
8645060,9989,0.013794,0.484253,0.833008,529
8655066,10006,0.019897,0.497070,0.810791,533
8665071,10005,0.022339,0.515137,0.802124,537
8675067,9996,0.020020,0.499146,0.826660,535
8685067,10000,0.022095,0.471558,0.856812,534
8695076,10009,0.025879,0.453735,0.868896,533
8705088,10012,0.025146,0.453613,0.862915,521
8715069,9981,0.014038,0.489990,0.826660,516
8725063,9994,0.014404,0.499756,0.825684,511
8735064,10001,0.024780,0.499634,0.839233,502
8745058,9994,0.034424,0.498169,0.852783,500
8755060,10002,0.035522,0.501099,0.859009,496
8765073,10013,0.029785,0.509033,0.859009,489
8775079,10006,0.021729,0.523682,0.859009,489
8785079,10000,0.024536,0.529785,0.857788,482
8795434,10355,0.030762,0.531250,0.853638,492
8805107,9673,0.037720,0.534058,0.844727,487
8815070,9963,0.043579,0.541992,0.829224,492
8825067,9997,0.029907,0.525146,0.826050,494
8835052,9985,0.026978,0.501221,0.834351,498
8845061,10009,0.026489,0.485352,0.833008,493
8855065,10004,0.020508,0.482056,0.820312,488
8865064,9999,0.014282,0.490234,0.808716,498
8875065,10001,0.011353,0.507812,0.803833,504
8885061,9996,0.015259,0.506836,0.814209,507
8895057,9996,0.021240,0.509399,0.824463,508
8905085,10028,0.026001,0.518188,0.832642,501
8915074,9989,0.024658,0.524658,0.832642,509
8925072,9998,0.022461,0.526367,0.829712,509
8935070,9998,0.022705,0.511841,0.832153,511
8945078,10008,0.024414,0.502441,0.831177,509
8955064,9986,0.028564,0.499878,0.828247,508
8965071,10007,0.028442,0.503906,0.822754,510
8975063,9992,0.022827,0.504639,0.820923,510
8985059,9996,0.023926,0.489136,0.823120,509
8995081,10022,0.024170,0.485352,0.820801,510
9005073,9992,0.021118,0.487183,0.818481,508
9015070,9997,0.020264,0.492554,0.819336,509
9025068,9998,0.019165,0.498047,0.824219,508
9035069,10001,0.018311,0.498169,0.828613,508
9045080,10011,0.017822,0.488281,0.838379,501
9055054,9974,0.018677,0.492432,0.835937,503
9065067,10013,0.016113,0.499878,0.833740,502
9075054,9987,0.017334,0.504395,0.835205,507
9085072,10018,0.019653,0.503418,0.835449,508
9095076,10004,0.023804,0.500854,0.835815,501
9105091,10015,0.026733,0.502808,0.837280,506
9115099,10008,0.031616,0.509033,0.839844,501
9125068,9969,0.036255,0.513062,0.837158,506
9135076,10008,0.036621,0.513062,0.834717,505
9145056,9980,0.037354,0.509155,0.833984,502
9155059,10003,0.039917,0.515747,0.841431,503
9165068,10009,0.036987,0.512085,0.839600,506
9175056,9988,0.035156,0.506592,0.836670,499
9185054,9998,0.033325,0.507324,0.832275,503
9195066,10012,0.029541,0.507935,0.829346,505
9205064,9998,0.028931,0.500244,0.828735,499
9215053,9989,0.026611,0.495972,0.831909,499
9225075,10022,0.024780,0.491699,0.829590,502
9235058,9983,0.022705,0.489380,0.826416,503
9245079,10021,0.020386,0.484863,0.823975,502
9255067,9988,0.019653,0.481079,0.823608,504
9265080,10013,0.026367,0.484009,0.828003,501
9275061,9981,0.026489,0.487793,0.825928,501
9285064,10003,0.026245,0.490845,0.829102,502
9295063,9999,0.027954,0.496094,0.834717,499
9305077,10014,0.029419,0.500366,0.841797,497
9315091,10014,0.027710,0.498047,0.845581,498
9325065,9974,0.025513,0.492676,0.842896,498
9335060,9995,0.023804,0.489380,0.840454,502
9345057,9997,0.022827,0.487671,0.837158,503
9355066,10009,0.022827,0.484741,0.832886,499
9365057,9991,0.020264,0.481445,0.829834,500
9375059,10002,0.018066,0.480591,0.832397,502
9385056,9997,0.017090,0.479858,0.835205,507
9395076,10020,0.017212,0.477295,0.840942,502
9405070,9994,0.019043,0.481323,0.842773,508
9415064,9994,0.020142,0.488159,0.839722,507
9425074,10010,0.022705,0.502197,0.834961,509
9435062,9988,0.024658,0.503540,0.837280,503
9445061,9999,0.027710,0.504272,0.843384,507
9455076,10015,0.032837,0.504150,0.848633,509
9465071,9995,0.032837,0.501709,0.850952,509
9475077,10006,0.031616,0.506226,0.852905,509
9485064,9987,0.027344,0.510132,0.851807,507
9495065,10001,0.024536,0.507446,0.850708,503
9505060,9995,0.025879,0.500244,0.852539,508
9515076,10016,0.027588,0.496094,0.853027,497
9525067,9991,0.025635,0.494507,0.851196,498
9535054,9987,0.026245,0.488892,0.846313,501
9545052,9998,0.026733,0.488159,0.846069,503
9555077,10025,0.024902,0.485718,0.845581,500
9565057,9980,0.023804,0.480591,0.843506,501
9575068,10011,0.022217,0.477905,0.845337,502
9585063,9995,0.020752,0.482788,0.848145,501
9595074,10011,0.018433,0.484131,0.848389,501
9605076,10002,0.020508,0.484863,0.846680,502
9615073,9997,0.020630,0.485718,0.844849,498
9625056,9983,0.020874,0.489990,0.841675,502
9635079,10023,0.020386,0.493164,0.843262,502
9645075,9996,0.025269,0.498535,0.858032,504
9655080,10005,0.026367,0.498901,0.862427,504
9665069,9989,0.025391,0.499634,0.861206,501
9675058,9989,0.026978,0.501099,0.858154,506
9685056,9998,0.028687,0.501709,0.852783,497
9695055,9999,0.029419,0.498779,0.840088,497
9705054,9999,0.031128,0.497437,0.841064,502
9715084,10030,0.033691,0.496704,0.844360,504
9725058,9974,0.033203,0.493530,0.846313,501
9735052,9994,0.033325,0.490234,0.847168,498
9745069,10017,0.031128,0.485962,0.848022,504
9755065,9996,0.027832,0.482178,0.841309,507
9765074,10009,0.028320,0.481445,0.840088,504
9775081,10007,0.028687,0.481201,0.839722,498
9785061,9980,0.030273,0.481323,0.836304,504
9795055,9994,0.031250,0.478760,0.835937,506
9805061,10006,0.028809,0.467163,0.832153,498
9815062,10001,0.025269,0.462158,0.828125,505
9825061,9999,0.023560,0.460449,0.824951,499
9835065,10004,0.021973,0.460693,0.825317,505
9845074,10009,0.019531,0.460815,0.824829,500
9855080,10006,0.017578,0.460693,0.825684,507
9865060,9980,0.014404,0.469849,0.828125,507
9875074,10014,0.012695,0.471069,0.830078,506
9885067,9993,0.012573,0.469727,0.833740,500
9895055,9988,0.012939,0.474487,0.835937,503
9905062,10007,0.012573,0.484131,0.839966,508
9915084,10022,0.013794,0.494873,0.845703,507
9925073,9989,0.014526,0.491699,0.848267,506
9935069,9996,0.013672,0.489746,0.847412,505
9945055,9986,0.011597,0.488281,0.843628,504
9955069,10014,0.009277,0.484131,0.838135,504
9965052,9983,0.007813,0.484253,0.835449,506
9975079,10027,0.006104,0.481079,0.835815,506
9985071,9992,0.008179,0.475952,0.835815,506
9995061,9990,0.010010,0.471313,0.834351,499
10005081,10020,0.008667,0.469116,0.829102,503
10015056,9975,0.006714,0.471191,0.823242,507
10025056,10000,0.007446,0.480713,0.821899,505
10035065,10009,0.007813,0.480103,0.827271,505
10045059,9994,0.010010,0.477539,0.831909,510
10055081,10022,0.009888,0.479736,0.833984,510
10065067,9986,0.009155,0.486328,0.832764,504
10075077,10010,0.009888,0.497070,0.839722,504
10085073,9996,0.010010,0.500122,0.842163,508
10095076,10003,0.009644,0.502319,0.843018,504
10105073,9997,0.010254,0.503052,0.843750,495
10115059,9986,0.009277,0.500977,0.845825,502
10125076,10017,0.010254,0.500488,0.847900,505
10135071,9995,0.010132,0.502441,0.851074,502
10145076,10005,0.011597,0.500488,0.848755,506
10155075,9999,0.010864,0.498047,0.845825,501
10165055,9980,0.008545,0.496216,0.844116,507
10175054,9999,0.008667,0.491089,0.844116,499
10185060,10006,0.005493,0.481567,0.839844,506
10195082,10022,0.005737,0.480103,0.834717,505
10205076,9994,0.003540,0.480957,0.831299,505
10215068,9992,0.004150,0.482666,0.832153,506
10225069,10001,0.007202,0.484131,0.836792,506
10235070,10001,0.010742,0.487061,0.843994,500
10245073,10003,0.014648,0.492676,0.848145,506
10255077,10004,0.013794,0.499634,0.845825,508
10265060,9983,0.013672,0.507446,0.847656,509
10275074,10014,0.015015,0.509033,0.852661,509
10285068,9994,0.017944,0.505249,0.856934,507
10295082,10014,0.020874,0.505249,0.854004,508
10305069,9987,0.017334,0.508667,0.847900,510
10315081,10012,0.012695,0.507324,0.844238,507
10325054,9973,0.010376,0.504883,0.843994,508
10335071,10017,0.008667,0.496948,0.845215,506
10345061,9990,0.006836,0.490723,0.847168,508
10355060,9999,0.010986,0.481689,0.854492,508
10365054,9994,0.004150,0.486206,0.851685,506
10375072,10018,0.002563,0.484375,0.846436,508
10385053,9981,0.001831,0.491211,0.844604,508
10395065,10012,0.001953,0.494751,0.845459,508
10405052,9987,0.005981,0.482056,0.852051,507
10415054,10002,0.011719,0.486450,0.856445,494
10425076,10022,0.014526,0.480103,0.855103,500
10435073,9997,0.016235,0.472900,0.844116,508
10445060,9987,0.015625,0.474854,0.836060,506
10455081,10021,0.015381,0.478027,0.837036,500
10465055,9974,0.016235,0.481323,0.851440,508
10475061,10006,0.011841,0.480835,0.849121,505
10485070,10009,0.006592,0.478516,0.841309,506
10495061,9991,0.002075,0.481812,0.832031,504
10505073,10012,-0.001709,0.486816,0.822266,505
10515080,10007,-0.005371,0.479492,0.812622,504
10525064,9984,-0.006348,0.466064,0.809814,508
10535053,9989,-0.006104,0.456177,0.814209,510
10545057,10004,-0.008179,0.453003,0.815918,508
10555053,9996,-0.010376,0.456909,0.817383,511
10565076,10023,-0.010498,0.466064,0.816528,512
10575055,9979,-0.006226,0.497437,0.812012,511
10585069,10014,-0.002808,0.500610,0.813599,513
10595052,9983,0.001343,0.500610,0.818481,513
10605057,10005,0.006226,0.500366,0.823364,511
10615058,10001,0.004395,0.499634,0.822632,514
10625077,10019,-0.003296,0.495361,0.829346,513
10635061,9984,-0.006836,0.496338,0.837646,514
10645066,10005,-0.003296,0.499634,0.850464,508
10655075,10009,-0.001953,0.506348,0.856079,514
10665058,9983,-0.001831,0.516357,0.860229,507
10675054,9996,0.001465,0.559570,0.860229,515
10685077,10023,0.000244,0.535156,0.858154,514
10695056,9979,-0.002319,0.529297,0.860229,514
10705079,10023,-0.002075,0.512573,0.864624,514
10715074,9995,0.000366,0.499146,0.865845,514
10725056,9982,0.002075,0.496216,0.863159,515
10735107,10051,-0.005371,0.491699,0.842407,512
10745056,9949,-0.007202,0.490479,0.827637,510
10755055,9999,-0.008179,0.492554,0.813477,508
10765055,10000,-0.012329,0.490967,0.807861,507
10775077,10022,-0.013550,0.489136,0.817383,514
10785052,9975,-0.011230,0.503052,0.835083,506
10795073,10021,-0.017212,0.512451,0.834595,511
10805070,9997,-0.019043,0.520508,0.828125,510
10815053,9983,-0.018433,0.529907,0.821899,510
10825082,10029,-0.015869,0.536743,0.822266,509
10835065,9983,-0.011230,0.538086,0.832397,509
10845058,9993,-0.000122,0.532471,0.847534,508
10855059,10001,-0.001831,0.529785,0.848633,503
10865076,10017,-0.006226,0.522461,0.848511,507
10875061,9985,-0.010986,0.507202,0.847778,508
10885068,10007,-0.015381,0.496094,0.842651,510
10895053,9985,-0.022949,0.482788,0.831543,508
10905059,10006,-0.022339,0.477173,0.831787,507
10915067,10008,-0.017944,0.473877,0.830078,512
10925053,9986,-0.018311,0.471069,0.822144,505
10935066,10013,-0.015625,0.471191,0.815918,506
10945100,10034,-0.012207,0.481201,0.815918,507
10955076,9976,-0.010010,0.505981,0.833984,511
10965057,9981,-0.011597,0.509644,0.833374,511
10975067,10010,-0.016968,0.505981,0.830200,509
10985052,9985,-0.023193,0.502686,0.827637,512
10995063,10011,-0.022461,0.502197,0.831299,506
11005060,9997,-0.014893,0.504272,0.847534,512
11015063,10003,-0.009644,0.512939,0.855713,512
11025066,10003,-0.003662,0.522339,0.858276,511
11035057,9991,-0.002075,0.525146,0.857300,515
11045065,10008,-0.000366,0.526733,0.852661,511
11055064,9999,-0.000732,0.528809,0.847900,513
11065071,10007,-0.000732,0.512939,0.848389,519
11075078,10007,0.000000,0.500000,0.844116,520
11085078,10000,-0.002441,0.491699,0.841064,524
11095063,9985,-0.000366,0.489624,0.841675,525
11105076,10013,-0.000488,0.492187,0.843262,525
11115079,10003,-0.003662,0.485229,0.833740,522
11125057,9978,-0.006104,0.481934,0.828613,525
11135080,10023,-0.007446,0.480347,0.823120,521
11145094,10014,-0.011719,0.479614,0.817017,520
11155063,9969,-0.014282,0.480835,0.810791,511
11165060,9997,-0.011963,0.480469,0.810303,514
11175071,10011,-0.011963,0.481567,0.810547,510
11185080,10009,-0.014038,0.486084,0.817627,500
11195078,9998,-0.016235,0.491943,0.823364,504
11205067,9989,-0.014771,0.497314,0.827881,498
11215075,10008,-0.017090,0.500122,0.830566,497
11225065,9990,-0.020020,0.508057,0.828979,497
11235070,10005,-0.021484,0.513184,0.827271,492
11245056,9986,-0.017456,0.516357,0.828735,498
11258446,13390,-0.009399,0.511597,0.833008,497
11265075,6629,0.000000,0.000000,0.000000,498
11275069,9994,-0.009277,0.507202,0.837158,491
11285071,10002,-0.014893,0.500000,0.838623,502
11295064,9993,-0.016479,0.500000,0.839233,500
11305063,9999,-0.016846,0.500366,0.839233,499
11315066,10003,-0.018799,0.503662,0.838867,501
11325077,10011,-0.019653,0.503784,0.835205,503
11335067,9990,-0.019531,0.490845,0.827026,499
11349023,13956,-0.021362,0.487061,0.828491,499
11355068,6045,-0.021606,0.487793,0.827148,506
11365289,10221,-0.023193,0.487427,0.828247,503
11375062,9773,-0.023682,0.486084,0.829468,503
11385059,9997,-0.023315,0.488770,0.825317,508
11395056,9997,-0.018799,0.494019,0.822266,505
11405058,10002,-0.019287,0.498657,0.825806,506
11415075,10017,-0.014038,0.500977,0.830322,507
11425060,9985,-0.011597,0.501343,0.833008,509
11435067,10007,-0.010864,0.502930,0.832886,501
11445070,10003,-0.017822,0.504517,0.837280,507
11455068,9998,-0.019531,0.503540,0.837646,505
11465078,10010,-0.023682,0.503174,0.835449,507
11475063,9985,-0.023437,0.504761,0.836182,507
11485068,10005,-0.017700,0.509277,0.842041,499
11495080,10012,-0.016968,0.512695,0.848999,502
11505060,9980,-0.018311,0.506348,0.847168,499
11515067,10007,-0.023193,0.500854,0.841797,503
11525075,10008,-0.025879,0.499512,0.836670,500
11535069,9994,-0.026001,0.499390,0.833252,506
11545080,10011,-0.025513,0.500854,0.835205,507
11555081,10001,-0.021973,0.504272,0.841431,507
11565073,9992,-0.020386,0.507324,0.836060,507
11575091,10018,-0.020386,0.512451,0.831665,507
11585060,9969,-0.016357,0.515747,0.831543,507
11595056,9996,-0.017700,0.516968,0.832764,506
11605077,10021,-0.019897,0.516602,0.840820,502
11615061,9984,-0.022583,0.518188,0.845337,506
11625081,10020,-0.025269,0.521118,0.847900,501
11635059,9978,-0.026123,0.521484,0.849121,508
11645071,10012,-0.025146,0.521851,0.851318,504
11655074,10003,-0.020630,0.520874,0.850952,508
11665057,9983,-0.011719,0.522339,0.851074,502
11675081,10024,-0.010132,0.522339,0.854492,508
11685052,9971,-0.007568,0.519409,0.853760,499
11695065,10013,-0.008179,0.514648,0.852295,501
11705056,9991,-0.007935,0.513794,0.854248,503
11715065,10009,-0.012085,0.502563,0.849365,503
11725073,10008,-0.011475,0.498047,0.849731,512
11735061,9988,-0.009766,0.498657,0.846069,509
11745071,10010,-0.009644,0.502808,0.843140,507
11755062,9991,-0.009399,0.504761,0.836426,501
11765063,10001,-0.008667,0.502319,0.826416,504
11775091,10028,-0.010986,0.474854,0.812988,509
11785063,9972,-0.010620,0.450562,0.823242,509
11795077,10014,-0.013062,0.467529,0.828735,502
11805061,9984,-0.020386,0.462891,0.837036,503
11815053,9992,-0.020142,0.470337,0.840698,498
11825078,10025,-0.016235,0.475952,0.844238,506
11835071,9993,-0.005005,0.476807,0.846313,508
11845067,9996,-0.008301,0.503906,0.848022,505
11855052,9985,0.000244,0.531982,0.851562,505
11865809,10757,0.001587,0.546265,0.855957,504
11875069,9260,0.000732,0.540039,0.819824,504
11885072,10003,-0.005371,0.515869,0.821655,504
11895069,9997,-0.006836,0.515259,0.813232,504
11905080,10011,-0.010132,0.514282,0.809448,502
11915062,9982,-0.009033,0.509155,0.810181,500
11925071,10009,-0.005615,0.510132,0.808838,503
11935081,10010,-0.005981,0.512207,0.806641,507
11945068,9987,-0.003540,0.507935,0.805542,507
11955056,9988,-0.001221,0.504639,0.806885,506
11965060,10004,0.000854,0.505005,0.812378,508
11975075,10015,0.002686,0.509521,0.818604,512
11985105,10030,0.004395,0.518066,0.829468,507
11995089,9984,0.005127,0.524902,0.829956,510
12005055,9966,0.005371,0.523804,0.830566,507
12015072,10017,0.004395,0.521729,0.831421,509
12025069,9997,0.006714,0.516113,0.830566,510
12035063,9994,0.002441,0.504150,0.825684,511
12045064,10001,-0.010742,0.478882,0.823853,505
12055549,10485,-0.013672,0.479614,0.824829,512
12065079,9530,-0.025757,0.476562,0.824341,507
12075071,9992,-0.028442,0.476318,0.821777,507
12085058,9987,-0.034180,0.481812,0.826294,507
12095067,10009,-0.041016,0.481201,0.830444,512
12105053,9986,-0.041382,0.486572,0.834473,510
12115076,10023,-0.039917,0.486328,0.835205,509
12125057,9981,-0.035156,0.488403,0.840088,512
12135065,10008,-0.029297,0.488647,0.840942,511
12145071,10006,-0.026611,0.488647,0.841553,511
12156595,11524,-0.023193,0.501099,0.837524,505
12165061,8466,-0.019043,0.505615,0.839844,505
12175064,10003,-0.015015,0.502075,0.841919,509
12185066,10002,-0.011475,0.496582,0.842896,510
12195092,10026,-0.008667,0.497559,0.843994,511
12205066,9974,-0.002808,0.513916,0.846436,511
12215065,9999,0.000366,0.515991,0.846924,511
12225052,9987,0.003906,0.510864,0.847412,510
12235062,10010,0.006104,0.509399,0.846436,512
12245059,9997,0.005737,0.508545,0.843872,512
12255052,9993,0.003906,0.505371,0.841064,513
12265077,10025,-0.000854,0.497559,0.833374,513
12275057,9980,-0.003784,0.494751,0.831055,513
12285057,10000,-0.006104,0.490845,0.826416,506
12295072,10015,-0.009155,0.485229,0.824463,512
12305066,9994,-0.012329,0.481445,0.828735,514
12315070,10004,-0.005981,0.489868,0.844849,514
12325080,10010,-0.009277,0.500488,0.848511,507
12335058,9978,-0.007324,0.505005,0.849976,512
12345052,9994,-0.006958,0.506836,0.847656,513
12355078,10026,-0.004150,0.508423,0.845337,509
12365071,9993,-0.005127,0.510010,0.840698,509
12376267,11196,0.004028,0.509399,0.840576,511
12385065,8798,0.005371,0.512207,0.842041,511
12395053,9988,0.007690,0.508179,0.836914,511
12405070,10017,0.007935,0.511841,0.836914,504
12415080,10010,0.005493,0.516235,0.833008,512
12425060,9980,-0.000977,0.514893,0.821045,509
12435058,9998,-0.004272,0.511108,0.816040,510
12445059,10001,-0.007324,0.507935,0.813110,513
12455082,10023,-0.007935,0.506104,0.815552,513
12465057,9975,-0.008057,0.500244,0.818481,507
12476647,11590,-0.012207,0.496826,0.815063,511
12487398,10751,-0.014038,0.499390,0.812378,512
12496329,8931,-0.015747,0.498291,0.813599,507
12505076,8747,-0.015015,0.495972,0.816284,512
12515072,9996,-0.014526,0.493408,0.817627,508
12525071,9999,-0.013794,0.495605,0.818115,511
12535054,9983,-0.015381,0.497925,0.817017,509
12545082,10028,-0.013672,0.500488,0.817749,505
12555058,9976,-0.012451,0.504883,0.818726,512
12565071,10013,-0.011963,0.506226,0.822632,505
12575064,9993,-0.009766,0.510132,0.828369,511
12585063,9999,-0.006592,0.517212,0.832153,511
12595072,10009,-0.004639,0.517334,0.834839,509
12605074,10002,-0.003784,0.516479,0.839600,503
12615076,10002,-0.001221,0.517334,0.845581,503
12625083,10007,0.000488,0.518677,0.848877,509
12635095,10012,0.000122,0.517578,0.849365,509
12645064,9969,0.000488,0.520386,0.849731,506
12655079,10015,0.000122,0.520142,0.850220,508
12665079,10000,-0.000122,0.514404,0.851440,506
12675077,9998,0.000244,0.507690,0.851074,511
12685079,10002,-0.000732,0.502319,0.851685,506
12695052,9973,-0.002075,0.499023,0.852417,506
12705073,10021,-0.004395,0.489990,0.850098,512
12715080,10007,-0.002441,0.486938,0.846558,512
12725080,10000,0.001099,0.486328,0.841797,514
12735063,9983,0.003418,0.487793,0.834229,507
12745063,10000,0.004395,0.488159,0.826294,509
12755080,10017,0.000488,0.484863,0.822510,509
12765058,9978,0.001709,0.485352,0.834961,514
12775364,10306,0.005249,0.489746,0.842651,512
12785054,9690,0.006226,0.500488,0.846313,517
12797237,12183,0.008423,0.528442,0.843018,522
12805071,7834,0.000000,0.000000,0.000000,516
12815055,9984,0.008423,0.531494,0.833618,518
12825101,10046,0.004883,0.526001,0.824097,516
12835053,9952,-0.000244,0.518799,0.817871,518
12845058,10005,-0.002441,0.510986,0.815430,519
12855075,10017,-0.005127,0.500244,0.815063,517
12865073,9998,-0.003296,0.479004,0.818115,520
12876111,11038,-0.003296,0.465454,0.817993,517
12885059,8948,-0.004395,0.498169,0.820679,517
12895064,10005,-0.012207,0.498535,0.819336,516
12905066,10002,-0.007568,0.507935,0.820435,518
12915062,9996,-0.010376,0.500366,0.828369,519
12925080,10018,-0.012329,0.505859,0.834961,517
12935080,10000,-0.019653,0.497437,0.837158,516
12945052,9972,-0.016846,0.499146,0.838135,516
12955074,10022,-0.021118,0.499146,0.840698,513
12965080,10006,-0.018311,0.498779,0.843262,516
12975061,9981,-0.018066,0.503418,0.844238,513
12986018,10957,-0.013306,0.506226,0.840942,514
12995058,9040,-0.014282,0.511719,0.843994,509
13005060,10002,-0.014282,0.506714,0.841553,513
13015055,9995,-0.011963,0.510742,0.840942,506
13025062,10007,-0.013428,0.513062,0.842285,511
13035104,10042,-0.012817,0.509888,0.844971,509
13045057,9953,-0.009155,0.508911,0.847656,512
13055093,10036,-0.006958,0.507812,0.848511,508
13065077,9984,-0.008179,0.506470,0.844482,508
13075061,9984,-0.007690,0.506348,0.840942,510
13085073,10012,-0.003418,0.505493,0.841187,512
13095059,9986,-0.003906,0.511475,0.838623,512
13105058,9999,-0.006348,0.506592,0.835815,513
13115077,10019,-0.006226,0.496948,0.833496,509
13125072,9995,-0.007813,0.499390,0.832764,510
13135080,10008,-0.013550,0.482788,0.829712,514
13145055,9975,-0.011841,0.489258,0.831177,512
13155058,10003,-0.015869,0.491821,0.829102,510
13165054,9996,-0.017700,0.489014,0.826050,511
13175056,10002,-0.019897,0.486328,0.826172,509
13185061,10005,-0.018433,0.485840,0.825928,514
13195078,10017,-0.020752,0.485474,0.821655,512
13205058,9980,-0.020630,0.488525,0.822754,513
13215076,10018,-0.021362,0.492432,0.825073,515
13225076,10000,-0.020996,0.493652,0.825562,518
13235071,9995,-0.020752,0.497070,0.825684,520
13245056,9985,-0.017700,0.500366,0.831421,520
13255082,10026,-0.016724,0.501099,0.833984,518
13265091,10009,-0.015625,0.503174,0.835815,523
13275074,9983,-0.014038,0.506348,0.841675,523
13285058,9984,-0.011841,0.509766,0.845215,521
13295288,10230,-0.013306,0.509033,0.841309,521
13305053,9765,-0.015137,0.508789,0.838013,515
13315064,10011,-0.019043,0.508179,0.835083,522
13325071,10007,-0.019287,0.505737,0.830566,520
13335074,10003,-0.020020,0.500122,0.827881,516
13345059,9985,-0.019897,0.498779,0.830322,521
13355072,10013,-0.020996,0.511353,0.830688,519
13365067,9995,-0.019409,0.512329,0.833496,520
13375062,9995,-0.017944,0.507202,0.831543,528
13385073,10011,-0.020874,0.502075,0.828491,517
13395071,9998,-0.021484,0.500366,0.823975,512
13405061,9990,-0.022095,0.500366,0.821289,515
13415064,10003,-0.021973,0.500244,0.821411,511
13425067,10003,-0.021606,0.500732,0.823486,516
13435054,9987,-0.020142,0.503296,0.824585,514
13445074,10020,-0.020264,0.504761,0.825562,514
13455056,9982,-0.019287,0.505615,0.823853,513
13465108,10052,-0.020020,0.513306,0.824097,512
13475062,9954,-0.018677,0.518555,0.828613,515
13485066,10004,-0.018921,0.517578,0.831299,511
13495062,9996,-0.021484,0.513916,0.832397,516
13505075,10013,-0.022339,0.511108,0.831055,510
13515053,9978,-0.022705,0.507324,0.828247,517
13525057,10004,-0.024902,0.504395,0.828613,514
13535075,10018,-0.024048,0.504395,0.828491,516
13545073,9998,-0.022461,0.502808,0.829468,516
13555059,9986,-0.021606,0.500488,0.829346,515
13565064,10005,-0.021240,0.502930,0.828369,515
13575055,9991,-0.020874,0.512085,0.827881,519
13585074,10019,-0.019287,0.510864,0.829590,513
13595064,9990,-0.020386,0.507446,0.830933,512
13605071,10007,-0.020996,0.505615,0.832764,515
13615060,9989,-0.019531,0.504761,0.831787,515
13625054,9994,-0.021362,0.505981,0.827637,514
13635072,10018,-0.018799,0.508301,0.829712,515
13645056,9984,-0.015625,0.507690,0.832764,516
13655072,10016,-0.016113,0.505249,0.831909,513
13665078,10006,-0.014893,0.506348,0.830322,516
13675065,9987,-0.013794,0.512085,0.830444,514
13685079,10014,-0.016602,0.514526,0.833252,514
13695062,9983,-0.015137,0.510742,0.833130,507
13705083,10021,-0.017090,0.507935,0.832642,514
13715505,10422,-0.018921,0.505493,0.832520,510
13725088,9583,-0.018066,0.504761,0.831665,516
13735065,9977,-0.019531,0.502808,0.825439,514
13745056,9991,-0.018921,0.501831,0.824585,520
13755080,10024,-0.018433,0.500732,0.824219,518
13765081,10001,-0.018311,0.500977,0.824951,520
13775074,9993,-0.017822,0.501465,0.824951,521
13788183,13109,-0.016846,0.506104,0.827148,518
13795057,6874,-0.020020,0.509888,0.829102,523
13806355,11298,-0.017700,0.511719,0.835327,524
13815060,8705,-0.018311,0.514404,0.837280,526
13825068,10008,-0.018799,0.514893,0.836426,520
13835060,9992,-0.020264,0.512451,0.833496,525
13845074,10014,-0.024536,0.502808,0.824463,520
13855079,10005,-0.025024,0.502686,0.823853,523
13865055,9976,-0.026611,0.503418,0.823242,523
13875071,10016,-0.024902,0.502319,0.824341,520
13885056,9985,-0.024170,0.501709,0.827393,518
13895068,10012,-0.023193,0.507812,0.829834,517
13905054,9986,-0.023682,0.519775,0.835571,520
13915061,10007,-0.022949,0.524414,0.836914,514
13925061,10000,-0.023071,0.526733,0.837280,518
13935105,10044,-0.023560,0.526489,0.835083,514
13945080,9975,-0.024902,0.521484,0.832397,517
13955089,10009,-0.027100,0.510742,0.830688,509
13965074,9985,-0.026489,0.510010,0.829834,516
13975063,9989,-0.027710,0.509766,0.830566,516
13985079,10016,-0.028198,0.509399,0.832153,515
13995064,9985,-0.028442,0.508667,0.829956,516
14005078,10014,-0.030396,0.506714,0.828857,514
14015052,9974,-0.027222,0.510864,0.832764,517
14025076,10024,-0.025635,0.511597,0.832886,513
14035065,9989,-0.026245,0.508667,0.833252,509
14045058,9993,-0.021851,0.511597,0.834961,516
14055073,10015,-0.020020,0.517944,0.836304,518
14065075,10002,-0.019653,0.517822,0.835571,516
14075080,10005,-0.020142,0.515869,0.834595,510
14085071,9991,-0.020630,0.514893,0.833496,515
14098475,13404,-0.020386,0.513306,0.831299,515
14105064,6589,0.000000,0.000000,0.000000,510
14115770,10706,-0.019409,0.510254,0.828125,516
14125057,9287,-0.019287,0.510864,0.828735,515
14135077,10020,-0.018677,0.508423,0.826172,516
14145104,10027,-0.018433,0.503662,0.823120,508
14155060,9956,-0.020386,0.501587,0.821167,512
14165089,10029,-0.019897,0.502686,0.819214,513
14175055,9966,-0.021973,0.500122,0.820190,515
14185063,10008,-0.020996,0.497925,0.821167,514
14195056,9993,-0.019653,0.496582,0.824951,514
14205054,9998,-0.017944,0.500000,0.825562,508
14215053,9999,-0.018188,0.504395,0.826782,513
14225055,10002,-0.019897,0.506348,0.828247,514
14235056,10001,-0.018921,0.511841,0.832886,514
14245073,10017,-0.018555,0.512451,0.835815,514
14255071,9998,-0.017944,0.512573,0.840454,516
14265071,10000,-0.018555,0.510010,0.838867,512
14275068,9997,-0.019775,0.508179,0.835815,513
14285079,10011,-0.024902,0.505737,0.828247,514
14296465,11386,-0.022583,0.504639,0.826294,524
14305063,8598,-0.022339,0.504395,0.827637,521
14315074,10011,-0.022949,0.504272,0.828247,527
14325071,9997,-0.021484,0.505371,0.826904,527
14335065,9994,-0.022827,0.508545,0.828369,528
14345074,10009,-0.023682,0.507812,0.828979,528
14355054,9980,-0.022705,0.509399,0.831299,520
14365052,9998,-0.021729,0.511597,0.831299,523
14375059,10007,-0.022095,0.513062,0.832397,524
14385055,9996,-0.023071,0.514160,0.832153,524
14395052,9997,-0.025635,0.514404,0.826538,521
14405056,10004,-0.025269,0.510986,0.827148,522
14415052,9996,-0.025513,0.509399,0.826660,522
14425055,10003,-0.025269,0.507568,0.828247,520
14435072,10017,-0.023560,0.507324,0.827759,521
14445054,9982,-0.023560,0.508667,0.829834,515
14455075,10021,-0.023437,0.506348,0.830078,517
14465055,9980,-0.024048,0.505005,0.830444,511
14475054,9999,-0.022705,0.505005,0.832153,517
14485058,10004,-0.023804,0.504395,0.831543,519
14495064,10006,-0.025757,0.504517,0.831177,514
14505073,10009,-0.024536,0.504761,0.832764,510
14515075,10002,-0.023804,0.508545,0.833130,514
14525071,9996,-0.024170,0.508423,0.832886,516
14535075,10004,-0.025146,0.508545,0.833374,515
14545057,9982,-0.025391,0.509033,0.833740,511
14555083,10026,-0.022827,0.510254,0.836792,514
14565073,9990,-0.024902,0.507568,0.837036,514
14575081,10008,-0.025269,0.503662,0.838257,514
14585074,9993,-0.025879,0.500488,0.834229,510
14595052,9978,-0.027344,0.500366,0.833740,507
14605078,10026,-0.025391,0.501831,0.832886,514
14616423,11345,-0.025513,0.505981,0.832764,514
14625054,8631,-0.023804,0.509766,0.833618,515
14635055,10001,-0.020630,0.513306,0.836304,515
14645078,10023,-0.018555,0.515503,0.836060,514
14655066,9988,-0.020142,0.514160,0.834351,514
14665072,10006,-0.018799,0.516235,0.835815,516
14675055,9983,-0.021118,0.516479,0.836548,515
14685068,10013,-0.021118,0.512573,0.839111,510
14695070,10002,-0.021484,0.506958,0.836548,509
14705078,10008,-0.022949,0.500977,0.831543,513
14715067,9989,-0.024414,0.499878,0.826294,512
14725056,9989,-0.025146,0.497314,0.827148,514
14735061,10005,-0.023437,0.494507,0.827881,512
14745109,10048,-0.021606,0.492920,0.827148,512
14755054,9945,-0.023804,0.494019,0.826172,511
14765087,10033,-0.022461,0.497070,0.823975,512
14775071,9984,-0.020996,0.502686,0.825806,506
14785055,9984,-0.019775,0.503418,0.829224,510
14795080,10025,-0.018433,0.501465,0.835083,509
14805054,9974,-0.018066,0.505127,0.829590,509
14815066,10012,-0.020508,0.507935,0.828857,504
14825642,10576,-0.023437,0.507446,0.831665,509
14835055,9413,-0.025269,0.507446,0.831299,511
14845057,10002,-0.026245,0.503784,0.832031,511
14855065,10008,-0.027466,0.499634,0.831909,515
14865057,9992,-0.028442,0.497925,0.832031,509
14875060,10003,-0.028198,0.497314,0.831299,514
14885063,10003,-0.028198,0.500488,0.829834,513
14895058,9995,-0.027588,0.503296,0.829834,514
14905065,10007,-0.027832,0.504517,0.830200,520
14915078,10013,-0.027832,0.504883,0.827148,521
14925059,9981,-0.029663,0.501831,0.821045,523
14935068,10009,-0.029419,0.499756,0.832764,517
14945072,10004,-0.020142,0.498901,0.840698,523
14955079,10007,-0.016968,0.504517,0.843994,520
14965103,10024,-0.018311,0.509766,0.840698,523
14975057,9954,-0.021729,0.505371,0.832153,515
14985073,10016,-0.021484,0.508789,0.828979,520
14995077,10004,-0.019653,0.508057,0.838379,522
15005079,10002,-0.016113,0.513672,0.837646,520
15015052,9973,-0.015381,0.504150,0.834595,519
15025052,10000,-0.012451,0.505737,0.831299,519
15035074,10022,-0.010742,0.510254,0.829102,517
15045063,9989,-0.013550,0.494751,0.825806,519
15055073,10010,-0.015503,0.494751,0.821777,516
15065062,9989,-0.020752,0.489868,0.815186,516
15075073,10011,-0.026489,0.485474,0.808960,513
15085079,10006,-0.027588,0.483887,0.808838,511
15095076,9997,-0.026367,0.489990,0.811890,509
15105070,9994,-0.023682,0.490112,0.823608,511
15115055,9985,-0.020264,0.503174,0.828247,511
15125079,10024,-0.018555,0.505371,0.833618,511
15135078,9999,-0.013062,0.520142,0.840820,505
15145065,9987,-0.014160,0.531006,0.844482,509
15155099,10034,-0.010498,0.533813,0.838379,510
15165064,9965,-0.011719,0.533691,0.833130,508
15175097,10033,-0.014282,0.529419,0.833740,511
15185054,9957,-0.015259,0.523437,0.837280,509
15195060,10006,-0.016113,0.515991,0.839722,509
15205057,9997,-0.022095,0.508545,0.837891,511
15215081,10024,-0.030273,0.504395,0.826050,511
15225058,9977,-0.033203,0.504028,0.824707,506
15235075,10017,-0.035645,0.500977,0.823242,512
15246550,11475,-0.035034,0.500610,0.824463,508
15255061,8511,-0.034546,0.502441,0.823730,511
15265069,10008,-0.028687,0.508057,0.823730,511
15275066,9997,-0.026611,0.510986,0.824829,511
15285078,10012,-0.023682,0.515869,0.827026,511
15295062,9984,-0.022583,0.519531,0.833008,512
15305068,10006,-0.021973,0.523071,0.836304,512
15315070,10002,-0.023193,0.520508,0.836792,509
15325062,9992,-0.019897,0.515625,0.832764,510
15335052,9990,-0.018188,0.515869,0.831177,508
15345078,10026,-0.016113,0.518433,0.832642,507
15355103,10025,-0.013062,0.520386,0.834229,510
15365062,9959,-0.016724,0.519043,0.836914,509
15375059,9997,-0.020752,0.512695,0.833008,509
15385084,10025,-0.023560,0.510376,0.834961,508
15395078,9994,-0.024048,0.506226,0.835571,502
15405058,9980,-0.023926,0.505127,0.833862,508
15415075,10017,-0.022095,0.509155,0.829224,508
15425071,9996,-0.020630,0.516113,0.826660,508
15435055,9984,-0.014771,0.522705,0.828491,510
15445071,10016,-0.011475,0.518799,0.830200,508
15455053,9982,-0.011108,0.513184,0.831543,509
15465062,10009,-0.011353,0.509277,0.835449,506
15475078,10016,-0.012207,0.509033,0.835815,510
15485077,9999,-0.016968,0.516968,0.833496,512
15495079,10002,-0.018921,0.519897,0.832886,511
15505052,9973,-0.018677,0.516357,0.830078,514
15515068,10016,-0.018555,0.514526,0.829834,511
15525070,10002,-0.017456,0.513550,0.828491,512
15535056,9986,-0.018921,0.509644,0.827881,511
15545077,10021,-0.017090,0.513672,0.828613,510
15555057,9980,-0.015869,0.515381,0.832397,516
15565056,9999,-0.012695,0.515991,0.832275,516
15575060,10004,-0.011475,0.514038,0.828857,517
15585077,10017,-0.009766,0.514893,0.826050,514
15595094,10017,-0.007813,0.517090,0.825073,510
15605073,9979,-0.008179,0.516968,0.825562,516
15615072,9999,-0.010010,0.515991,0.824707,512
15625053,9981,-0.011108,0.513916,0.823242,518
15635062,10009,-0.013550,0.512573,0.822266,516
15645061,9999,-0.016968,0.511108,0.823242,517
15655063,10002,-0.016724,0.509155,0.827148,518
15665066,10003,-0.015259,0.507812,0.829956,516
15675052,9986,-0.015869,0.507690,0.830078,514
15685060,10008,-0.016357,0.507812,0.828857,513
15695071,10011,-0.016602,0.507446,0.826538,514
15705076,10005,-0.019165,0.504761,0.824951,512
15715074,9998,-0.020264,0.505127,0.825317,507
15725076,10002,-0.022095,0.503906,0.828613,512
15735081,10005,-0.022827,0.501465,0.828857,506
15745077,9996,-0.023315,0.500732,0.828613,507
15755057,9980,-0.020508,0.503418,0.824585,513
15765054,9997,-0.018799,0.506836,0.821411,507
15775062,10008,-0.017456,0.507935,0.821167,512
15785065,10003,-0.014526,0.508301,0.823975,512
15795076,10011,-0.013794,0.508423,0.823975,510
15805081,10005,-0.014526,0.507080,0.825195,512
15815055,9974,-0.018677,0.505493,0.822266,511
15825067,10012,-0.020508,0.508057,0.820679,507
15835066,9999,-0.020508,0.508667,0.821411,511
15845061,9995,-0.021851,0.507568,0.822510,511
15855062,10001,-0.019775,0.509033,0.822754,503
15865078,10016,-0.018677,0.512573,0.826172,503
15875054,9976,-0.019775,0.511841,0.827637,512
15885069,10015,-0.019775,0.511475,0.828491,512
15895062,9993,-0.021606,0.509766,0.828979,505
15905055,9993,-0.021118,0.513916,0.833008,510
15915071,10016,-0.022095,0.520020,0.838013,509
15925074,10003,-0.023071,0.516602,0.845215,505
15935066,9992,-0.025635,0.512207,0.844116,507
15945056,9990,-0.028687,0.508667,0.840210,509
15955061,10005,-0.030884,0.505615,0.835937,507
15965061,10000,-0.030518,0.505249,0.833862,508
15975053,9992,-0.029663,0.502686,0.833008,503
15985055,10002,-0.029419,0.500977,0.832031,509
15995087,10032,-0.029175,0.503662,0.827393,506
16005057,9970,-0.027466,0.505005,0.821777,502
16015079,10022,-0.026001,0.504517,0.818481,508
16025238,10159,-0.024170,0.502075,0.813110,508
16035067,9829,-0.019287,0.506470,0.811157,509
16045057,9990,-0.017212,0.512573,0.813354,506
16055076,10019,-0.015625,0.515869,0.815308,510
16065052,9976,-0.013672,0.513916,0.815308,506
16075066,10014,-0.015869,0.511719,0.814941,502
16085079,10013,-0.019287,0.507690,0.813477,510
16095054,9975,-0.020630,0.508911,0.813721,507
16105062,10008,-0.020508,0.511597,0.816528,511
16115074,10012,-0.017700,0.512085,0.821533,508
16125071,9997,-0.017334,0.515625,0.826294,508
16135075,10004,-0.014282,0.521606,0.833008,506
16145055,9980,-0.015991,0.528076,0.837402,504
16155071,10016,-0.019531,0.524292,0.838501,507
16165053,9982,-0.022339,0.520142,0.836792,501
16175060,10007,-0.025024,0.519165,0.835571,508
16185052,9992,-0.027710,0.516357,0.836060,511
16195090,10038,-0.029419,0.509766,0.829834,506
16205077,9987,-0.028564,0.507568,0.828247,513
16215095,10018,-0.028198,0.507324,0.826172,512
16225072,9977,-0.025757,0.508179,0.827148,513
16235067,9995,-0.024170,0.510864,0.828613,513
16245062,9995,-0.023926,0.514282,0.828979,515
16255074,10012,-0.021606,0.516479,0.829956,516
16265054,9980,-0.022827,0.520752,0.828735,510
16275056,10002,-0.021362,0.523437,0.828735,514
16285068,10012,-0.020996,0.521118,0.823242,511
16295075,10007,-0.022705,0.517456,0.820801,515
16305063,9988,-0.027222,0.515259,0.810791,516
16315065,10002,-0.025391,0.514771,0.812622,516
16325073,10008,-0.026245,0.510620,0.814941,516
16335079,10006,-0.026489,0.504517,0.817627,516
16345125,10046,-0.025391,0.501221,0.818970,516
16355056,9931,-0.023437,0.510620,0.809692,514
16365066,10010,-0.025269,0.510986,0.808716,514
16375067,10001,-0.023682,0.517334,0.810547,514
16385075,10008,-0.021973,0.524292,0.814331,511
16395071,9996,-0.020020,0.527344,0.817261,514
16405056,9985,-0.019165,0.525269,0.820557,513
16415088,10032,-0.019043,0.532227,0.823853,512
16425080,9992,-0.017822,0.536621,0.828735,512
16435077,9997,-0.017334,0.538574,0.828979,512
16445067,9990,-0.016968,0.537354,0.829590,508
16455081,10014,-0.018066,0.534790,0.828735,510
16465054,9973,-0.020020,0.529297,0.829346,510
16475068,10014,-0.020142,0.525024,0.827393,507
16485065,9997,-0.022095,0.519287,0.826416,508
16495058,9993,-0.023682,0.517090,0.828857,511
16505063,10005,-0.023315,0.518799,0.828979,509
16515059,9996,-0.026245,0.517334,0.828125,509
16525069,10010,-0.024658,0.524048,0.828247,508
16535665,10596,-0.021606,0.531616,0.833862,508
16545069,9404,-0.016968,0.538452,0.840820,509
16560201,15132,-0.017944,0.531738,0.843506,502
16566690,6489,0.000000,0.000000,0.000000,511
16575067,8377,-0.023193,0.516235,0.832031,510
16585073,10006,-0.025269,0.511963,0.828125,511
16595087,10014,-0.025635,0.508179,0.828491,508
16605059,9972,-0.023193,0.503174,0.829956,510
16615062,10003,-0.020630,0.502686,0.829102,511
16625070,10008,-0.021240,0.505859,0.826416,512
16635060,9990,-0.019897,0.505615,0.817749,510
16651398,16338,-0.017456,0.507324,0.821045,512
16658703,7305,0.000000,0.000000,0.000000,509
16665068,6365,-0.015869,0.513550,0.825684,511
16675077,10009,-0.014404,0.523193,0.829224,510
16685068,9991,-0.010742,0.524414,0.833862,510
16695067,9999,-0.011597,0.520386,0.832764,506
16705061,9994,-0.011230,0.516724,0.831177,511
16715065,10004,-0.012207,0.514648,0.827759,510
16725064,9999,-0.013550,0.511475,0.825317,510
16735078,10014,-0.014404,0.507812,0.823486,508
16745073,9995,-0.013916,0.504272,0.824585,503
16755060,9987,-0.013916,0.504395,0.824219,503
16765062,10002,-0.015381,0.503784,0.820435,511
16775065,10003,-0.014648,0.503296,0.817871,509
16785072,10007,-0.014160,0.503784,0.815674,510
16795064,9992,-0.012085,0.502930,0.817627,507
16805090,10026,-0.010254,0.506714,0.820679,509
16815054,9964,-0.008057,0.508911,0.823608,504
16825055,10001,-0.009033,0.510498,0.823486,512
16835057,10002,-0.010254,0.512451,0.819946,510
16845061,10004,-0.010376,0.519409,0.821289,505
16855079,10018,-0.008789,0.519409,0.822021,511
16865081,10002,-0.010620,0.516479,0.821411,511
16875052,9971,-0.013428,0.519287,0.819458,512
16885058,10006,-0.015991,0.519775,0.814819,504
16895080,10022,-0.016479,0.518921,0.813232,508
16905059,9979,-0.017578,0.519897,0.813843,511
16915054,9995,-0.017822,0.523560,0.817993,507
16925058,10004,-0.016968,0.526123,0.825073,512
16935067,10009,-0.016235,0.527222,0.828735,509
16945062,9995,-0.018066,0.526855,0.828857,514
16955070,10008,-0.017334,0.529175,0.826172,514
16965062,9992,-0.019043,0.531982,0.825928,514
16975076,10014,-0.019653,0.530273,0.824097,514
16985065,9989,-0.021484,0.529541,0.824585,512
16995058,9993,-0.020020,0.528809,0.827271,514
17005068,10010,-0.020752,0.528564,0.831421,514
17015058,9990,-0.023926,0.521484,0.832520,515
17025065,10007,-0.025635,0.522339,0.832642,514
17035063,9998,-0.026001,0.525391,0.833130,512
17045061,9998,-0.026001,0.524658,0.835327,514
17055068,10007,-0.026978,0.521606,0.834351,506
17065052,9984,-0.025391,0.524536,0.830688,512
17075064,10012,-0.024658,0.525391,0.830078,509
17085070,10006,-0.022949,0.525757,0.828979,506
17095061,9991,-0.021362,0.525024,0.828613,511
17105080,10019,-0.020508,0.525879,0.828247,506
17115061,9981,-0.019287,0.525513,0.828003,510
17125059,9998,-0.019897,0.517334,0.821167,506
17135067,10008,-0.020142,0.516724,0.817749,510
17145074,10007,-0.017944,0.520752,0.818237,501
17155069,9995,-0.014771,0.521729,0.819824,504
17168779,13710,-0.012329,0.519043,0.819824,505
17175073,6294,0.000000,0.000000,0.000000,509
17185055,9982,-0.010132,0.517944,0.814087,511
17195054,9999,-0.008667,0.517334,0.811035,508
17205076,10022,-0.007568,0.517944,0.812012,506
17215071,9995,-0.006836,0.517334,0.812500,508
17225060,9989,-0.007324,0.513550,0.814941,511
17235065,10005,-0.007690,0.507690,0.810425,510
17245052,9987,-0.010132,0.505737,0.808960,512
17255079,10027,-0.009521,0.506104,0.807373,509
17265066,9987,-0.010010,0.505127,0.808838,510
17275081,10015,-0.008545,0.503540,0.811035,511
17285081,10000,-0.008179,0.510254,0.815430,509
17295061,9980,-0.007813,0.514771,0.816528,508
17305081,10020,-0.007813,0.517334,0.818848,510
17315070,9989,-0.006958,0.519897,0.822754,510
17325082,10012,-0.007324,0.518188,0.823364,510
17335072,9990,-0.009888,0.517578,0.825195,510
17345062,9990,-0.011108,0.521606,0.826538,507
17355082,10020,-0.013794,0.521362,0.828003,506
17367068,11986,-0.014282,0.517334,0.829712,505
17375076,8008,-0.014526,0.515015,0.831177,510
17385056,9980,-0.016846,0.515625,0.832153,505
17395068,10012,-0.019043,0.513672,0.831665,509
17405076,10008,-0.020142,0.512573,0.830933,508
17415054,9978,-0.021484,0.509888,0.829102,511
17425065,10011,-0.023437,0.507202,0.828491,510
17435077,10012,-0.023926,0.505005,0.828003,510
17445095,10018,-0.022461,0.506714,0.829590,503
17455080,9985,-0.022705,0.511963,0.832153,510
17465055,9975,-0.021729,0.513428,0.830933,509
17475056,10001,-0.021484,0.516479,0.829956,504
17485058,10002,-0.021118,0.521240,0.829956,508
17495055,9997,-0.017090,0.523315,0.832520,508
17505058,10003,-0.015503,0.527832,0.830688,506
17515061,10003,-0.014404,0.534180,0.833130,503
17525077,10016,-0.012451,0.538574,0.833618,507
17535073,9996,-0.013306,0.537231,0.836548,509
17545078,10005,-0.013062,0.530762,0.837036,507
17555061,9983,-0.015381,0.524170,0.829102,510
17565053,9992,-0.020508,0.519897,0.825439,504
17575068,10015,-0.023193,0.517212,0.822998,511
17585078,10010,-0.023193,0.514282,0.822021,512
17595052,9974,-0.022461,0.512695,0.822021,509
17605056,10004,-0.020996,0.511963,0.822632,506
17615056,10000,-0.018921,0.513428,0.819702,510
17625067,10011,-0.015625,0.516724,0.820679,512
17635066,9999,-0.014160,0.520264,0.822144,514
17645085,10019,-0.012085,0.519897,0.824829,512
17655056,9971,-0.011108,0.519653,0.826050,512
17665067,10011,-0.013062,0.522339,0.828613,509
17675057,9990,-0.016357,0.519287,0.827393,512
17685066,10009,-0.016968,0.514648,0.828613,512
17695076,10010,-0.017334,0.512329,0.827026,513
17705066,9990,-0.018433,0.510986,0.821777,509
17715077,10011,-0.018188,0.509766,0.822510,512
17725073,9996,-0.014648,0.509888,0.822388,512
17735068,9995,-0.013794,0.508545,0.821167,512
17745080,10012,-0.013428,0.509644,0.823486,510
17755078,9998,-0.012817,0.513550,0.824341,510
17765078,10000,-0.011963,0.516479,0.827271,513
17775060,9982,-0.010376,0.515869,0.829102,508
17785057,9997,-0.009521,0.516235,0.828735,508
17795076,10019,-0.010742,0.516235,0.825439,508
17805058,9982,-0.012451,0.514282,0.824585,513
17815055,9997,-0.011353,0.511963,0.824585,511
17825077,10022,-0.012573,0.510864,0.823853,504
17835077,10000,-0.014282,0.511353,0.822632,511
17845055,9978,-0.012695,0.513184,0.824585,509
17855073,10018,-0.013184,0.514526,0.825928,507
17865077,10004,-0.012573,0.512939,0.827148,506
17875056,9979,-0.013428,0.509277,0.826904,507
17885052,9996,-0.012207,0.512329,0.827515,507
17895080,10028,-0.012451,0.515869,0.826538,506
17905073,9993,-0.013428,0.514893,0.824341,511
17915068,9995,-0.015015,0.514160,0.822876,508
17925067,9999,-0.016113,0.512573,0.820801,509
17935059,9992,-0.016357,0.515625,0.821167,509
17945074,10015,-0.016357,0.513306,0.825684,511
17955059,9985,-0.017944,0.509399,0.827271,509
17965081,10022,-0.015747,0.507812,0.827881,510
17975075,9994,-0.017822,0.508057,0.825439,508
17985071,9996,-0.019409,0.507690,0.822510,504
17995065,9994,-0.016357,0.507935,0.823853,507
18005073,10008,-0.016724,0.507935,0.825928,504
18015081,10008,-0.016846,0.506958,0.825195,509
18025066,9985,-0.013672,0.507935,0.824219,510
18035077,10011,-0.014526,0.511719,0.822510,510
18045079,10002,-0.014160,0.515991,0.827026,511
18055064,9985,-0.011597,0.516846,0.833862,508
18065081,10017,-0.010132,0.517456,0.834595,509
18075951,10870,-0.010620,0.515015,0.832764,510
18085081,9130,-0.013184,0.513062,0.831909,510
18095053,9972,-0.013062,0.512451,0.829224,510
18105068,10015,-0.016479,0.507324,0.825317,506
18115065,9997,-0.016113,0.504028,0.825562,508
18125055,9990,-0.016235,0.501831,0.826904,508
18135057,10002,-0.015869,0.500000,0.825928,509
18145052,9995,-0.015991,0.500854,0.826294,511
18155065,10013,-0.015869,0.504272,0.825195,508
18165081,10016,-0.013672,0.508667,0.827148,509
18175056,9975,-0.013672,0.509033,0.828979,503
18185053,9997,-0.012573,0.509888,0.830322,510
18195070,10017,-0.012817,0.511475,0.832153,503
18205057,9987,-0.012817,0.512329,0.832397,510
18215077,10020,-0.015259,0.512939,0.831055,508
18225062,9985,-0.016724,0.512817,0.829346,504
18235053,9991,-0.017944,0.512207,0.829102,509
18245076,10023,-0.019653,0.512207,0.828979,507
18255076,10000,-0.018921,0.509521,0.830566,511
18265066,9990,-0.021240,0.507690,0.829102,512
18275052,9986,-0.022705,0.508667,0.826782,511
18285063,10011,-0.022827,0.510864,0.827026,503
18295060,9997,-0.021729,0.512207,0.827881,509
18305064,10004,-0.021729,0.512207,0.828247,512
18315070,10006,-0.019775,0.514038,0.831909,513
18325065,9995,-0.019165,0.518799,0.836670,506
18335074,10009,-0.019531,0.517456,0.836060,512
18345055,9981,-0.019897,0.516113,0.835937,512
18355052,9997,-0.020508,0.516357,0.833740,513
18365057,10005,-0.022095,0.515625,0.832642,507
18375078,10021,-0.023682,0.514526,0.830200,515
18385077,9999,-0.024048,0.511719,0.830200,513
18395052,9975,-0.025024,0.508911,0.829346,513
18405053,10001,-0.026001,0.507080,0.828735,511
18415056,10003,-0.023926,0.504272,0.827881,507
18425077,10021,-0.024414,0.506470,0.827393,509
18435052,9975,-0.022461,0.507446,0.825317,513
18445072,10020,-0.021484,0.509155,0.824707,512
18455055,9983,-0.021362,0.512817,0.824585,513
18465062,10007,-0.020020,0.513794,0.826660,512
18475081,10019,-0.016724,0.515259,0.828491,513
18492968,17887,-0.018311,0.516602,0.825317,511
18498949,5981,-0.018433,0.517334,0.825073,508
18505135,6186,-0.016724,0.517212,0.826050,510
18515059,9924,-0.018433,0.514648,0.825195,503
18525063,10004,-0.018433,0.514404,0.827759,509
18535060,9997,-0.019409,0.515503,0.828491,507
18545055,9995,-0.022339,0.509766,0.825439,510
18555068,10013,-0.024048,0.505737,0.824829,508
18565081,10013,-0.022827,0.504028,0.824951,509
18575073,9992,-0.025024,0.503784,0.823242,510
18585069,9996,-0.024414,0.504883,0.822876,511
18595081,10012,-0.024780,0.507568,0.826538,508
18605070,9989,-0.024170,0.508789,0.829102,505
18615080,10010,-0.023560,0.507812,0.827637,511
18625081,10001,-0.024414,0.512085,0.830200,504
18635067,9986,-0.022705,0.517456,0.832764,507
18645076,10009,-0.023315,0.521240,0.835327,509
18655055,9979,-0.026367,0.519531,0.833740,504
18665057,10002,-0.027222,0.517822,0.833740,509
18675057,10000,-0.028687,0.514282,0.833496,511
18685073,10016,-0.028564,0.509399,0.832642,510
18695078,10005,-0.028687,0.507446,0.831665,510
18705058,9980,-0.027588,0.510254,0.828613,503
18715081,10023,-0.026245,0.510498,0.828247,510
18725068,9987,-0.024292,0.510132,0.829346,503
18735072,10004,-0.022705,0.511475,0.831909,504
18745053,9981,-0.022827,0.512695,0.832764,509
18755077,10024,-0.023315,0.512939,0.832397,507
18765076,9999,-0.027344,0.511353,0.828735,512
18775064,9988,-0.026855,0.509399,0.828613,510
18785074,10010,-0.025879,0.506226,0.829956,506
18795054,9980,-0.023437,0.505249,0.830200,509
18805053,9999,-0.023071,0.504517,0.828491,507
18815081,10028,-0.027710,0.499756,0.822266,511
18825064,9983,-0.028931,0.497925,0.818115,510
18835057,9993,-0.027588,0.498047,0.821045,510
18845052,9995,-0.027466,0.499756,0.823364,509
18855073,10021,-0.027710,0.501953,0.826050,504
18865073,10000,-0.024170,0.508789,0.828491,509
18875072,9999,-0.026245,0.514893,0.827148,505
18885055,9983,-0.025757,0.514282,0.830200,510
18895052,9997,-0.022705,0.516968,0.833130,511
18905078,10026,-0.021851,0.518921,0.833618,508
18915077,9999,-0.024048,0.519043,0.833130,510
18925075,9998,-0.023437,0.518433,0.828735,510
18935063,9988,-0.024292,0.515991,0.829834,511
18945058,9995,-0.024902,0.510620,0.829590,509
18955089,10031,-0.026978,0.505737,0.829468,511
18965055,9966,-0.029419,0.503418,0.827881,508
18975070,10015,-0.031738,0.501343,0.826660,509
18985053,9983,-0.033325,0.501221,0.827515,506
18995057,10004,-0.033813,0.500122,0.826050,504
19005077,10020,-0.032959,0.500244,0.825439,511
19015065,9988,-0.031372,0.502197,0.822632,512
19025079,10014,-0.030518,0.504639,0.820190,513
19035070,9991,-0.031006,0.511108,0.820557,508
19045072,10002,-0.026245,0.509277,0.829590,513
19055074,10002,-0.022705,0.508057,0.833618,514
19065082,10008,-0.024048,0.505615,0.833008,513
19075069,9987,-0.026123,0.506836,0.828003,514
19085074,10005,-0.027344,0.506470,0.824829,507
19095054,9980,-0.026001,0.517578,0.830200,512
19105062,10008,-0.025391,0.512817,0.831543,513
19115073,10011,-0.021729,0.515259,0.834473,514
19125079,10006,-0.022339,0.516846,0.833374,513
19135074,9995,-0.020386,0.513550,0.831177,510
19145068,9994,-0.015503,0.517700,0.839111,511
19155071,10003,-0.016968,0.515869,0.837280,512
19165108,10037,-0.017578,0.509888,0.834839,512
19175071,9963,-0.017090,0.508423,0.835327,513
19185078,10007,-0.018066,0.505249,0.834229,512
19195087,10009,-0.018433,0.502808,0.833862,511
19205060,9973,-0.018188,0.503418,0.833862,511
19215076,10016,-0.019287,0.503052,0.832275,510
19225064,9988,-0.019653,0.500122,0.828613,506
19235077,10013,-0.022095,0.500732,0.825195,512
19245057,9980,-0.024414,0.503540,0.828003,510
19255066,10009,-0.025269,0.500732,0.830688,510
19265071,10005,-0.024902,0.499756,0.832642,505
19275081,10010,-0.025391,0.500488,0.831665,510
19285060,9979,-0.026733,0.501709,0.832886,510
19295065,10005,-0.027466,0.503174,0.834106,511
19305070,10005,-0.028320,0.504517,0.832886,512
19315072,10002,-0.031006,0.504517,0.832397,512
19325071,9999,-0.032227,0.507935,0.833252,503
19335079,10008,-0.031006,0.510254,0.833618,509
19345057,9978,-0.030029,0.508667,0.838745,510
19355054,9997,-0.028809,0.506592,0.839355,507
19365052,9998,-0.028687,0.507324,0.837036,504
19375101,10049,-0.028198,0.506836,0.838989,511
19385061,9960,-0.028442,0.505371,0.837891,510
19395061,10000,-0.028320,0.505737,0.835571,510
19405065,10004,-0.027588,0.505859,0.833862,510
19415066,10001,-0.029419,0.504517,0.832764,510
19425066,10000,-0.029297,0.504272,0.831909,510
19435073,10007,-0.029297,0.504639,0.832764,509
19445071,9998,-0.028564,0.505005,0.833984,506
19455059,9988,-0.027344,0.506470,0.834351,512
19465054,9995,-0.027222,0.507202,0.834839,510
19475076,10022,-0.027222,0.504150,0.832642,511
19485058,9982,-0.028809,0.502808,0.832520,510
19495053,9995,-0.030151,0.503540,0.830322,512
19505057,10004,-0.030396,0.504639,0.828003,503
19515078,10021,-0.032715,0.504028,0.828491,508
19525079,10001,-0.030029,0.505615,0.829834,511
19535055,9976,-0.030151,0.507690,0.829590,505
19545056,10001,-0.030029,0.506104,0.830322,504
19555056,10000,-0.030029,0.504517,0.830200,508
19565067,10011,-0.029419,0.504150,0.828125,511
19575108,10041,-0.030151,0.504150,0.827881,508
19585056,9948,-0.030151,0.501465,0.825928,511
19595072,10016,-0.028564,0.502441,0.825195,509
19605093,10021,-0.029785,0.504028,0.825317,512
19619574,14481,-0.024658,0.504272,0.831909,512
19626350,6776,0.000000,0.000000,0.000000,510
19635079,8729,-0.024780,0.510986,0.834473,511
19645056,9977,-0.026855,0.511353,0.833374,512
19655060,10004,-0.026245,0.512085,0.830933,511
19665053,9993,-0.029053,0.509033,0.828369,502
19675065,10012,-0.030640,0.505249,0.825317,505
19685064,9999,-0.032227,0.500000,0.829102,510
19695065,10001,-0.032349,0.500366,0.831421,511
19705060,9995,-0.033325,0.501587,0.829224,512
19715059,9999,-0.036011,0.501099,0.825562,507
19725074,10015,-0.038452,0.500366,0.823608,510
19735064,9990,-0.038208,0.500244,0.823608,512
19745080,10016,-0.037842,0.504150,0.827515,516
19755055,9975,-0.037109,0.503296,0.828735,512
19765059,10004,-0.037354,0.501587,0.827393,514
19775063,10004,-0.039917,0.501831,0.825073,515
19785078,10015,-0.041138,0.503296,0.824585,515
19795083,10005,-0.041138,0.504639,0.827881,516
19805080,9997,-0.042114,0.504517,0.829224,516
19815068,9988,-0.042480,0.505127,0.828735,515
19825074,10006,-0.042603,0.505737,0.825806,509
19835061,9987,-0.045776,0.505981,0.823486,516
19845075,10014,-0.045776,0.508301,0.822632,512
19855061,9986,-0.044067,0.511963,0.824951,513
19865058,9997,-0.041138,0.514771,0.828491,512
19875069,10011,-0.041504,0.518188,0.830078,508
19885071,10002,-0.041748,0.519043,0.829346,516
19895078,10007,-0.042603,0.514160,0.828735,514
19905082,10004,-0.043579,0.513916,0.827881,514
19915068,9986,-0.046387,0.515503,0.828491,514
19925080,10012,-0.045044,0.515991,0.830688,514
19935059,9979,-0.044067,0.514038,0.832520,514
19945081,10022,-0.043945,0.517090,0.832153,514
19955081,10000,-0.043823,0.519531,0.830444,514
19965089,10008,-0.041016,0.526367,0.832275,508
19975068,9979,-0.039673,0.525269,0.834229,510
19985079,10011,-0.040161,0.523071,0.835205,512
19995057,9978,-0.039307,0.519897,0.834717,510
20005055,9998,-0.039063,0.519897,0.833496,511
20015073,10018,-0.041138,0.515015,0.829956,507
20025076,10003,-0.039917,0.513306,0.829956,514
20035076,10000,-0.039185,0.514526,0.829346,511
20045059,9983,-0.038086,0.515137,0.828491,513
20055052,9993,-0.037598,0.514526,0.828247,513
20065062,10010,-0.036133,0.514648,0.828857,512
20075061,9999,-0.036133,0.518555,0.831909,512
20085055,9994,-0.034058,0.519409,0.834229,514
20095076,10021,-0.032104,0.517822,0.834839,508
20105074,9998,-0.032837,0.516479,0.833130,512
20115062,9988,-0.032471,0.513916,0.832397,511
20125077,10015,-0.032959,0.511963,0.829468,513
20135613,10536,-0.032227,0.509521,0.829956,511
20145081,9468,-0.031250,0.506104,0.830566,508
20155075,9994,-0.032593,0.505005,0.830933,515
20165070,9995,-0.031738,0.503052,0.830322,512
20175075,10005,-0.032104,0.501343,0.828979,505
20185053,9978,-0.030396,0.503906,0.833984,510
20195070,10017,-0.031250,0.505981,0.834717,511
20205082,10012,-0.029297,0.505005,0.836670,511
20215073,9991,-0.028076,0.504150,0.835937,505
20225082,10009,-0.027832,0.502686,0.834106,505
20235054,9972,-0.027954,0.501831,0.831055,509
20245076,10022,-0.028076,0.500122,0.829224,511
20255081,10005,-0.027832,0.498779,0.828613,506
20265057,9976,-0.026123,0.496582,0.827148,511
20275056,9999,-0.027222,0.495972,0.825317,509
20285077,10021,-0.028931,0.494385,0.824219,510
20295059,9982,-0.026978,0.498169,0.825562,507
20305057,9998,-0.028076,0.497437,0.828125,513
20315053,9996,-0.028809,0.494629,0.828369,512
20325055,10002,-0.029297,0.494507,0.828857,511
20335062,10007,-0.030518,0.497314,0.826050,512
20345065,10003,-0.028564,0.499634,0.828735,512
20355073,10008,-0.026978,0.501343,0.832886,508
20365063,9990,-0.025024,0.503906,0.834229,511
20375074,10011,-0.025269,0.507812,0.832642,513
20385061,9987,-0.025757,0.510010,0.830811,512
20395104,10043,-0.027832,0.511719,0.833618,508
20405073,9969,-0.026245,0.510376,0.833740,511
20415080,10007,-0.028198,0.507935,0.833374,512
20425056,9976,-0.031982,0.506226,0.832886,510
20435081,10025,-0.034424,0.505859,0.830811,508
20445055,9974,-0.035645,0.506592,0.832764,513
20455061,10006,-0.040283,0.505493,0.832031,514
20465061,10000,-0.039917,0.505249,0.832886,513
20475060,9999,-0.040527,0.508057,0.834106,513
20485066,10006,-0.039551,0.509644,0.835571,517
20495060,9994,-0.037109,0.511108,0.835693,516
20505078,10018,-0.037354,0.514404,0.839355,519
20515079,10001,-0.036621,0.514404,0.840332,518
20525073,9994,-0.038940,0.512085,0.839478,519
20535054,9981,-0.039673,0.510864,0.838257,518
20545052,9998,-0.041382,0.508301,0.835571,519
20555077,10025,-0.041138,0.507202,0.834595,520
20565058,9981,-0.043213,0.507446,0.832031,518
20575074,10016,-0.043457,0.506714,0.828613,518
20585062,9988,-0.041626,0.507568,0.827515,518
20595063,10001,-0.039795,0.507935,0.825073,518
20605108,10045,-0.038940,0.507446,0.824707,516
20615084,9976,-0.038086,0.511108,0.827148,517
20625053,9969,-0.038696,0.513306,0.828613,511
20635053,10000,-0.036621,0.514038,0.830444,512
20645065,10012,-0.036743,0.513550,0.830933,512
20655060,9995,-0.036987,0.513916,0.829468,509
20665069,10009,-0.036499,0.515259,0.826294,512
20675058,9989,-0.035034,0.512085,0.825806,511
20685057,9999,-0.034180,0.507568,0.826416,514
20695056,9999,-0.034302,0.504639,0.825562,512
20705053,9997,-0.033813,0.504395,0.822998,512
20715070,10017,-0.034302,0.506104,0.824463,514
20725058,9988,-0.033325,0.503906,0.825073,512
20735063,10005,-0.032837,0.501587,0.827637,510
20745059,9996,-0.033447,0.502197,0.828491,507
20755075,10016,-0.031738,0.503540,0.829224,512
20765076,10001,-0.031982,0.504150,0.828125,512
20775067,9991,-0.032471,0.504395,0.827881,514
20785067,10000,-0.028320,0.503540,0.831909,512
20795053,9986,-0.028931,0.505371,0.832397,513
20805061,10008,-0.029907,0.506226,0.831543,512
20815085,10024,-0.029419,0.504761,0.833984,513
20825054,9969,-0.028442,0.503906,0.837280,510
20835055,10001,-0.030518,0.503784,0.832886,510
20845056,10001,-0.030518,0.503296,0.832764,516
20855079,10023,-0.031738,0.503174,0.832275,507
20865074,9995,-0.031250,0.504028,0.832153,516
20875061,9987,-0.031006,0.502808,0.830322,516
20885056,9995,-0.031372,0.500122,0.831177,511
20895080,10024,-0.030884,0.499390,0.828857,512
20905075,9995,-0.029785,0.501099,0.830444,512
20915061,9986,-0.029419,0.502686,0.832153,506
20925070,10009,-0.029175,0.502563,0.831665,512
20935064,9994,-0.029785,0.502686,0.834106,512
20945055,9991,-0.029785,0.502563,0.838013,514
20955078,10023,-0.031616,0.500122,0.836426,511
20965066,9988,-0.032837,0.499390,0.835205,513
20975066,10000,-0.033203,0.500366,0.833008,510
20985075,10009,-0.032593,0.500366,0.832642,507
20995060,9985,-0.032715,0.499634,0.833252,504
21005069,10009,-0.029541,0.501709,0.833862,511
21015076,10007,-0.029785,0.505371,0.834229,508
21025094,10018,-0.030273,0.506714,0.833374,506
21035072,9978,-0.030396,0.506226,0.834351,513
21045053,9981,-0.031128,0.507690,0.834229,508
21055066,10013,-0.031494,0.507812,0.830933,512
21065073,10007,-0.032349,0.505127,0.828857,507
21075069,9996,-0.033569,0.502563,0.827271,508
21085072,10003,-0.034790,0.500122,0.825806,512
21095060,9988,-0.034668,0.499268,0.823853,505
21105069,10009,-0.033569,0.499268,0.824951,512
21115066,9997,-0.031128,0.502441,0.823486,513
21125081,10015,-0.030762,0.503418,0.823608,512
21135072,9991,-0.028687,0.504761,0.826904,511
21145074,10002,-0.028198,0.504517,0.830933,505
21155074,10000,-0.029175,0.505737,0.829590,512
21165064,9990,-0.030396,0.511475,0.829834,514
21175058,9994,-0.026611,0.513306,0.831299,507
21185079,10021,-0.028687,0.515015,0.833252,511
21195075,9996,-0.028687,0.514038,0.835327,511
21205081,10006,-0.029907,0.512573,0.832764,504
21215065,9984,-0.030884,0.511841,0.828857,514
21225090,10025,-0.034668,0.508179,0.828613,513
21235061,9971,-0.034790,0.507568,0.831055,511
21245065,10004,-0.034912,0.509399,0.830078,516
21255060,9995,-0.034058,0.510376,0.830322,515
21265076,10016,-0.031616,0.508667,0.832764,516
21275053,9977,-0.029663,0.519043,0.837891,514
21285070,10017,-0.026733,0.523315,0.840942,512
21295079,10009,-0.023804,0.525269,0.842285,514
21305054,9975,-0.023560,0.527100,0.842041,520
21315067,10013,-0.024048,0.524658,0.842407,520
21325072,10005,-0.023315,0.515625,0.834717,519
21335062,9990,-0.026367,0.510376,0.831299,518
21345078,10016,-0.028564,0.504028,0.828735,518
21355053,9975,-0.029541,0.500000,0.825928,515
21365052,9999,-0.030273,0.498169,0.821655,518
21375056,10004,-0.031372,0.495850,0.818726,518
21385052,9996,-0.025757,0.495239,0.818115,518
21395075,10023,-0.026367,0.493286,0.819580,511
21405077,10002,-0.025513,0.494141,0.821167,516
21415090,10013,-0.023682,0.498291,0.824341,516
21425053,9963,-0.023926,0.503174,0.825562,516
21435063,10010,-0.020874,0.510132,0.829102,514
21445064,10001,-0.020264,0.515259,0.833374,512
21455071,10007,-0.017578,0.516479,0.838623,510
21465061,9990,-0.015747,0.516968,0.841431,514
21475068,10007,-0.014526,0.519287,0.841309,514
21485055,9987,-0.015747,0.519043,0.843628,513
21495063,10008,-0.017090,0.518677,0.842651,514
21505070,10007,-0.019409,0.512207,0.841064,514
21515066,9996,-0.021484,0.505005,0.839478,511
21525072,10006,-0.022583,0.500000,0.836548,508
21535075,10003,-0.025757,0.497681,0.832886,515
21545078,10003,-0.024170,0.494507,0.833374,512
21555056,9978,-0.025024,0.494873,0.833374,515
21565065,10009,-0.024414,0.495850,0.833618,512
21575081,10016,-0.022095,0.499023,0.832642,513
21585058,9977,-0.020752,0.500122,0.833984,513
21595065,10007,-0.019409,0.502808,0.835571,515
21605068,10003,-0.018433,0.507446,0.834839,509
21615100,10032,-0.018311,0.508057,0.833984,514
21625066,9966,-0.017944,0.508179,0.833252,512
21635077,10011,-0.017700,0.507324,0.829834,516
21645076,9999,-0.018555,0.504761,0.827759,509
21655092,10016,-0.018799,0.501343,0.823486,512
21665070,9978,-0.020264,0.501709,0.822510,514
21675055,9985,-0.019653,0.503906,0.822754,513
21685052,9997,-0.020630,0.507202,0.823242,511
21695057,10005,-0.020874,0.506592,0.825195,513
21705076,10019,-0.019775,0.506958,0.826660,505
21715069,9993,-0.020630,0.506104,0.829346,515
21725069,10000,-0.021240,0.510010,0.831177,512
21735069,10000,-0.021240,0.511841,0.832275,512
21745080,10011,-0.022827,0.510620,0.829590,512
21755077,9997,-0.023560,0.510376,0.828369,514
21765074,9997,-0.025024,0.509399,0.830811,510
21775061,9987,-0.023193,0.508179,0.830811,511
21785061,10000,-0.022827,0.508423,0.830322,513
21795077,10016,-0.023682,0.507935,0.829346,505
21805054,9977,-0.022461,0.511841,0.829590,513
21815069,10015,-0.021729,0.516724,0.830444,511
21825072,10003,-0.024658,0.515991,0.831177,510
21835091,10019,-0.024170,0.513306,0.829346,509
21845075,9984,-0.024292,0.512573,0.826904,511
21855078,10003,-0.026855,0.509277,0.825439,512
21865093,10015,-0.026733,0.505371,0.824707,512
21875064,9971,-0.025757,0.509155,0.823608,509
21885062,9998,-0.026978,0.510742,0.822144,510
21895073,10011,-0.025024,0.511963,0.821899,512
21905079,10006,-0.023926,0.514282,0.823975,512
21915067,9988,-0.021362,0.514038,0.823853,512
21925066,9999,-0.019531,0.519409,0.832031,512
21935071,10005,-0.019043,0.519531,0.832275,512
21945061,9990,-0.017822,0.523193,0.825684,512
21955080,10019,-0.017700,0.522095,0.825195,506
21965063,9983,-0.018799,0.517212,0.824951,513
21975075,10012,-0.020142,0.513062,0.825317,505
21985062,9987,-0.021973,0.507446,0.825928,512
21995065,10003,-0.024658,0.501953,0.824829,510
22005066,10001,-0.025024,0.500977,0.824585,512
22015067,10001,-0.023560,0.503784,0.826538,514
22025060,9993,-0.022095,0.505127,0.826172,514
22035064,10004,-0.018188,0.511597,0.832520,509
22045075,10011,-0.014893,0.512939,0.833862,514
22055060,9985,-0.015503,0.515869,0.834717,514
22065079,10019,-0.014526,0.519409,0.835327,518
22075060,9981,-0.013306,0.520386,0.838135,519
22085063,10003,-0.012329,0.520264,0.839478,519
22095068,10005,-0.014526,0.513062,0.839355,520
22105053,9985,-0.014404,0.508667,0.838257,514
22115061,10008,-0.014404,0.506104,0.836426,517
22125073,10012,-0.015625,0.502197,0.833740,518
22135060,9987,-0.016479,0.498535,0.830688,512
22145080,10020,-0.014771,0.499634,0.828857,515
22155059,9979,-0.015625,0.496826,0.828369,511
22165052,9993,-0.014282,0.496338,0.828613,516
22175074,10022,-0.013306,0.498779,0.831055,517
22185071,9997,-0.011963,0.500366,0.831177,516
22195072,10001,-0.011963,0.502686,0.832520,516
22205059,9987,-0.009277,0.511841,0.834717,516
22215053,9994,-0.009033,0.515747,0.836548,513
22225064,10011,-0.008301,0.516846,0.838257,515
22235080,10016,-0.009277,0.516113,0.838745,510
22245074,9994,-0.011597,0.511597,0.838135,512
22255062,9988,-0.015137,0.505127,0.832275,513
22265067,10005,-0.016724,0.504150,0.831055,513
22275084,10017,-0.016479,0.501343,0.829956,507
22285055,9971,-0.017822,0.500488,0.828979,513
22295063,10008,-0.017456,0.500854,0.829834,509
22305053,9990,-0.016357,0.500977,0.828491,508
22315070,10017,-0.015259,0.502319,0.828247,511
22325058,9988,-0.014771,0.502441,0.827637,513
22335061,10003,-0.014771,0.506348,0.828613,514
22345058,9997,-0.012085,0.511719,0.830444,514
22355078,10020,-0.012451,0.515259,0.833740,515
22365056,9978,-0.011719,0.514038,0.832397,511
22375052,9996,-0.013794,0.516113,0.831055,514
22385065,10013,-0.013062,0.516113,0.831543,513
22395076,10011,-0.013184,0.515625,0.832397,510
22405062,9986,-0.012695,0.515747,0.831787,515
22415076,10014,-0.013672,0.511841,0.828003,514
22425052,9976,-0.012695,0.508179,0.827393,514
22435053,10001,-0.012451,0.507202,0.827759,506
22445070,10017,-0.014038,0.506836,0.826538,514
22455060,9990,-0.014038,0.504883,0.827515,508
22465061,10001,-0.014282,0.502197,0.827515,512
22475078,10017,-0.015015,0.503174,0.825317,516
22485069,9991,-0.015625,0.505371,0.824097,513
22495062,9993,-0.014648,0.505127,0.828247,509
22505056,9994,-0.014526,0.506592,0.830322,513
22515063,10007,-0.013062,0.508667,0.831665,509
22525056,9993,-0.011353,0.513550,0.833862,512
22535062,10006,-0.012451,0.511108,0.833252,512
22545059,9997,-0.012329,0.508789,0.829346,505
22555078,10019,-0.014771,0.505859,0.826660,507
22565079,10001,-0.016479,0.500977,0.826172,506
22575068,9989,-0.016479,0.497314,0.827271,508
22585064,9996,-0.018799,0.495972,0.827026,513
22595062,9998,-0.019043,0.499756,0.828491,511
22605052,9990,-0.016968,0.503418,0.828125,508
22615054,10002,-0.015503,0.505859,0.827881,506
22625068,10014,-0.014282,0.508911,0.828735,511
22635056,9988,-0.013428,0.515747,0.834595,512
22645076,10020,-0.013550,0.516602,0.837280,511
22655080,10004,-0.014160,0.519653,0.838989,505
22665073,9993,-0.015747,0.518311,0.840576,507
22675093,10020,-0.018188,0.514404,0.842041,514
22685055,9962,-0.020142,0.509399,0.843018,512
22695053,9998,-0.023682,0.501953,0.841064,512
22705081,10028,-0.025879,0.500000,0.837036,512
22715070,9989,-0.026001,0.501099,0.831787,513
22725065,9995,-0.026245,0.499390,0.836792,512
22735058,9993,-0.023437,0.499390,0.835449,514
22745076,10018,-0.020264,0.507080,0.836548,516
22755062,9986,-0.018433,0.506470,0.836792,515
22765068,10006,-0.015869,0.507690,0.836304,517
22775070,10002,-0.015259,0.511597,0.836426,517
22785064,9994,-0.014526,0.513062,0.834473,518
22795074,10010,-0.015137,0.515259,0.832520,519
22805062,9988,-0.018066,0.512695,0.826294,513
22815063,10001,-0.016968,0.509399,0.826904,520
22825065,10002,-0.018311,0.509155,0.825195,515
22835081,10016,-0.018555,0.510132,0.827637,513
22845053,9972,-0.018677,0.512817,0.824951,523
22855065,10012,-0.017334,0.507935,0.825317,517
22865056,9991,-0.016846,0.506958,0.822021,511
22875056,10000,-0.018677,0.507324,0.821289,509
22885097,10041,-0.018799,0.507568,0.818726,509
22895065,9968,-0.022217,0.505371,0.818970,516
22905080,10015,-0.023437,0.503296,0.823364,509
22915080,10000,-0.027100,0.502563,0.827271,514
22925076,9996,-0.027100,0.501831,0.831177,514
22935057,9981,-0.024292,0.503418,0.831543,513
22945070,10013,-0.026245,0.507568,0.831909,513
22955065,9995,-0.022461,0.510986,0.840088,510
22965065,10000,-0.019043,0.518066,0.838257,515
22975068,10003,-0.017334,0.518555,0.835083,511
22985065,9997,-0.017700,0.518188,0.839600,511
22995073,10008,-0.017212,0.516724,0.839478,511
23005066,9993,-0.019287,0.514526,0.840088,512
23015058,9992,-0.020142,0.508545,0.839111,514
23025073,10015,-0.021240,0.508911,0.839478,507
23035055,9982,-0.021851,0.508057,0.834106,514
23045055,10000,-0.020386,0.506226,0.826416,513
23055085,10030,-0.021118,0.502197,0.826660,509
23065078,9993,-0.011353,0.499023,0.828979,514
23075063,9985,-0.009399,0.497070,0.829956,513
23085086,10023,-0.011230,0.497314,0.825317,511
23095069,9983,-0.009521,0.499634,0.822998,508
23105069,10000,-0.009521,0.500488,0.825439,513
23115075,10006,-0.010376,0.498657,0.828735,511
23125063,9988,-0.009033,0.491089,0.831299,512
23135073,10010,-0.005981,0.492920,0.834229,514
23145060,9987,-0.005493,0.498413,0.836548,513
23155052,9992,-0.003418,0.502563,0.840088,511
23165074,10022,-0.011108,0.507324,0.832031,511
23175054,9980,-0.015015,0.478516,0.828735,508
23185068,10014,-0.007935,0.490479,0.842651,509
23195052,9984,-0.009766,0.499390,0.846436,505
23205068,10016,-0.009277,0.497070,0.851318,509
23215074,10006,-0.002197,0.503296,0.854004,508
23225071,9997,-0.000488,0.506714,0.854980,507
23235070,9999,-0.009399,0.487061,0.842407,508
23245067,9997,-0.012207,0.483887,0.840210,510
23255071,10004,-0.015747,0.481323,0.841309,514
23265094,10023,-0.016357,0.476196,0.842041,506
23275076,9982,-0.015625,0.472168,0.841919,506
23285057,9981,-0.015381,0.473877,0.842773,511
23295079,10022,-0.010498,0.487183,0.842651,512
23305077,9998,-0.005127,0.492920,0.846802,507
23315057,9980,-0.004272,0.497925,0.853638,508
23325072,10015,-0.005615,0.504639,0.854370,511
23335078,10006,-0.004639,0.508911,0.856445,506
23345075,9997,-0.010254,0.492920,0.848877,512
23355081,10006,-0.012817,0.485962,0.843506,506
23365075,9994,-0.011841,0.487427,0.845703,509
23375070,9995,-0.011475,0.488403,0.847290,511
23385062,9992,-0.013672,0.490356,0.845215,511
23395061,9999,-0.017700,0.491089,0.839966,508
23405060,9999,-0.023682,0.486816,0.830811,506
23415063,10003,-0.027588,0.482666,0.826782,515
23425058,9995,-0.030029,0.477783,0.823853,512
23435070,10012,-0.031860,0.479736,0.821533,515
23445077,10007,-0.033203,0.483032,0.822510,516
23455057,9980,-0.032837,0.489624,0.826660,513
23465108,10051,-0.034302,0.492065,0.826172,512
23475082,9974,-0.035645,0.496460,0.825806,516
23485063,9981,-0.038208,0.499756,0.828125,512
23495066,10003,-0.038696,0.503540,0.832153,518
23505067,10001,-0.037109,0.507690,0.836792,518
23515079,10012,-0.037598,0.513550,0.845215,512
23525052,9973,-0.036865,0.518799,0.847534,516
23535061,10009,-0.035156,0.524414,0.847900,518
23545070,10009,-0.033569,0.528442,0.846558,508
23555072,10002,-0.033325,0.528320,0.848877,514
23565061,9989,-0.032349,0.522461,0.852905,513
23575063,10002,-0.032227,0.515625,0.851807,513
23585070,10007,-0.031372,0.508789,0.848633,513
23595054,9984,-0.033569,0.504517,0.843384,515
23605064,10010,-0.035156,0.500610,0.840210,514
23615056,9992,-0.036011,0.499268,0.830811,512
23625064,10008,-0.035645,0.493774,0.828247,512
23635053,9989,-0.034058,0.489380,0.828125,512
23645071,10018,-0.032959,0.489258,0.828247,511
23655062,9991,-0.031250,0.486938,0.827148,511
23665080,10018,-0.030518,0.487549,0.823242,507
23675067,9987,-0.023682,0.490723,0.827271,511
23685065,9998,-0.018921,0.494507,0.830811,511
23695091,10026,-0.017090,0.498413,0.830933,508
23705075,9984,-0.014893,0.499756,0.830322,512
23715052,9977,-0.016479,0.499878,0.829590,510
23725075,10023,-0.018921,0.498535,0.831543,508
23735071,9996,-0.018311,0.499878,0.833618,512
23745066,9995,-0.019531,0.499512,0.835205,506
23755056,9990,-0.020264,0.497437,0.835693,509
23765058,10002,-0.020386,0.497681,0.836060,507
23775076,10018,-0.019287,0.499023,0.837402,510
23785053,9977,-0.017090,0.496704,0.842041,511
23795052,9999,-0.018677,0.494507,0.840942,512
23805053,10001,-0.022339,0.492065,0.838257,510
23815060,10007,-0.021973,0.489624,0.837646,504
23825065,10005,-0.022339,0.486694,0.837769,510
23835079,10014,-0.022217,0.485596,0.839722,503
23845063,9984,-0.024658,0.487549,0.842773,511
23855074,10011,-0.024536,0.487305,0.843140,510
23865052,9978,-0.023560,0.485229,0.841187,510
23875074,10022,-0.023437,0.485107,0.839722,509
23885052,9978,-0.023437,0.485840,0.840576,510
23895077,10025,-0.019409,0.486450,0.844604,509
23905070,9993,-0.017334,0.487549,0.843750,505
23915063,9993,-0.013916,0.489868,0.845703,509
23925061,9998,-0.011108,0.496094,0.850464,509
23935060,9999,-0.005371,0.499512,0.856323,508
23945077,10017,-0.012207,0.496094,0.851807,511
23955079,10002,-0.014893,0.493042,0.848999,511
23965069,9990,-0.015381,0.489746,0.848389,510
23975062,9993,-0.016357,0.483643,0.850220,505
23985071,10009,-0.018555,0.478760,0.851562,511
23995056,9985,-0.019531,0.471680,0.852295,512
24005061,10005,-0.023804,0.465210,0.847290,513
24015074,10013,-0.024292,0.465576,0.847290,510
24025065,9991,-0.025024,0.465698,0.847046,514
24035063,9998,-0.027344,0.464966,0.847656,513
24045062,9999,-0.026611,0.464722,0.846313,514
24055070,10008,-0.028320,0.467041,0.843872,515
24065060,9990,-0.030640,0.468018,0.841675,516
24075104,10044,-0.031494,0.467407,0.842163,516
24085059,9955,-0.028809,0.468994,0.843628,517
24095063,10004,-0.026733,0.469849,0.843506,517
24105072,10009,-0.026489,0.475952,0.842041,517
24115058,9986,-0.028687,0.488281,0.837402,516
24125062,10004,-0.029419,0.492676,0.839600,518
24135068,10006,-0.029297,0.498413,0.840576,514
24145056,9988,-0.029175,0.504150,0.841675,510
24155078,10022,-0.028809,0.508911,0.844971,507
24165078,10000,-0.026855,0.511230,0.848022,514
24175053,9975,-0.027344,0.512695,0.845337,512
24185068,10015,-0.029907,0.513306,0.842285,516
24195076,10008,-0.031372,0.512573,0.841309,514
24205072,9996,-0.029297,0.509033,0.841064,511
24215076,10004,-0.028809,0.505981,0.841187,509
24225054,9978,-0.024902,0.495728,0.839966,507
24235067,10013,-0.025024,0.491699,0.837036,512
24245076,10009,-0.025757,0.488281,0.834595,513
24255055,9979,-0.027466,0.487061,0.832275,509
24265068,10013,-0.027344,0.483765,0.831909,512
24275088,10020,-0.027710,0.473511,0.830444,509
24285069,9981,-0.027100,0.470215,0.829346,512
24295079,10010,-0.025513,0.469116,0.828735,512
24305065,9986,-0.023437,0.469849,0.830444,512
24315054,9989,-0.023560,0.474365,0.832764,509
24325067,10013,-0.021362,0.478027,0.832520,512
24335052,9985,-0.017822,0.484741,0.834839,510
24345053,10001,-0.015869,0.489136,0.837769,513
24355062,10009,-0.014404,0.491699,0.842773,509
24365068,10006,-0.014038,0.492554,0.846924,513
24375069,10001,-0.009277,0.495728,0.850342,513
24385052,9983,-0.010132,0.496704,0.848022,512
24395075,10023,-0.012939,0.495605,0.846436,512
24405076,10001,-0.013672,0.494751,0.849731,521
24415067,9991,-0.015625,0.492676,0.852051,508
24425069,10002,-0.018188,0.489502,0.852417,504
24435077,10008,-0.019531,0.489990,0.848022,510
24445056,9979,-0.022461,0.490356,0.846924,510
24455073,10017,-0.019653,0.487427,0.848877,510
24465052,9979,-0.016479,0.484985,0.850098,511
24475065,10013,-0.017578,0.479980,0.847900,508
24485107,10042,-0.019165,0.476318,0.844604,510
24495070,9963,-0.018677,0.481567,0.843628,512
24505063,9993,-0.019409,0.482422,0.845459,512
24515052,9989,-0.019165,0.482422,0.847778,511
24525062,10010,-0.020020,0.485840,0.849976,513
24535054,9992,-0.018677,0.489258,0.850830,507
24545079,10025,-0.022583,0.494019,0.844116,509
24555063,9984,-0.023437,0.496826,0.844482,512
24565080,10017,-0.022827,0.498047,0.845581,510
24575080,10000,-0.022583,0.496338,0.848633,507
24585061,9981,-0.023071,0.491211,0.848755,512
24595057,9996,-0.022217,0.485718,0.848145,506
24605074,10017,-0.025757,0.484863,0.842529,506
24615068,9994,-0.025513,0.485107,0.842285,510
24625070,10002,-0.025024,0.485718,0.844238,508
24635070,10000,-0.024292,0.487549,0.846436,513
24645057,9987,-0.024170,0.487793,0.847534,514
24655067,10010,-0.019653,0.491333,0.850464,511
24665073,10006,-0.018677,0.492432,0.849609,517
24675080,10007,-0.017212,0.490479,0.847900,510
24685057,9977,-0.014282,0.489014,0.848267,508
24695060,10003,-0.012085,0.490845,0.849976,514
24705102,10042,-0.010986,0.492798,0.852417,516
24715075,9973,-0.013306,0.486938,0.846924,516
24725064,9989,-0.014038,0.484131,0.840088,516
24735053,9989,-0.018066,0.484497,0.835937,512
24745062,10009,-0.018921,0.481689,0.833496,511
24755056,9994,-0.021484,0.478394,0.831909,511
24765061,10005,-0.023926,0.473145,0.827393,513
24775069,10008,-0.026001,0.475952,0.827271,512
24785063,9994,-0.027588,0.475830,0.829224,515
24795077,10014,-0.026611,0.475464,0.832031,512
24805062,9985,-0.023682,0.479370,0.838257,512
24815073,10011,-0.023804,0.485596,0.844482,514
24825075,10002,-0.020142,0.496582,0.856689,512
24835081,10006,-0.017090,0.499390,0.859375,513
24845057,9976,-0.015625,0.502686,0.858154,513
24855055,9998,-0.012695,0.504761,0.858154,512
24865052,9997,-0.013306,0.504639,0.857788,512
24875075,10023,-0.012573,0.495483,0.852051,512
24885055,9980,-0.013672,0.488037,0.851807,509
24895069,10014,-0.014893,0.481079,0.849121,512
24905075,10006,-0.018799,0.478516,0.846069,511
24915071,9996,-0.023193,0.476318,0.839722,511
24925075,10004,-0.027344,0.475586,0.834473,508
24935099,10024,-0.025513,0.481201,0.834717,512
24945071,9972,-0.024780,0.486084,0.837036,515
24955052,9981,-0.024048,0.485962,0.839111,511
24965067,10015,-0.022583,0.485229,0.839844,514
24975062,9995,-0.022583,0.488281,0.842041,512
24985057,9995,-0.020386,0.499023,0.847778,509
24995069,10012,-0.017700,0.499268,0.854004,513
25005062,9993,-0.012817,0.498047,0.860107,512
25015059,9997,-0.012939,0.496582,0.860474,512
25025052,9993,-0.016235,0.494263,0.860474,511
25035079,10027,-0.017944,0.490845,0.856812,511
25045056,9977,-0.018799,0.485718,0.858032,503
25055071,10015,-0.019165,0.484497,0.858154,512
25065056,9985,-0.018799,0.483887,0.858765,507
25075053,9997,-0.018555,0.481323,0.858032,507
25085070,10017,-0.019775,0.477417,0.855835,511
25095067,9997,-0.019409,0.475098,0.859253,512
25105052,9985,-0.018555,0.480591,0.860474,509
25115057,10005,-0.021118,0.485107,0.859375,509
25125070,10013,-0.021973,0.488647,0.856323,510
25135079,10009,-0.020508,0.490845,0.854004,509
25145060,9981,-0.020752,0.491821,0.853271,511
25155071,10011,-0.019165,0.494995,0.849365,512
25165060,9989,-0.021118,0.492554,0.847290,512
25175065,10005,-0.019775,0.491089,0.844482,512
25185066,10001,-0.017578,0.490356,0.845093,512
25195070,10004,-0.015259,0.488647,0.847656,514
25205080,10010,-0.012085,0.484863,0.846680,516
25215074,9994,-0.013062,0.483154,0.845337,511
25225074,10000,-0.013672,0.481934,0.844849,516
25235081,10007,-0.013306,0.480469,0.842163,514
25245055,9974,-0.013306,0.475098,0.842041,518
25255065,10010,-0.012695,0.459595,0.841431,517
25265077,10012,-0.013306,0.458862,0.837891,516
25275052,9975,-0.015625,0.457031,0.838379,515
25285068,10016,-0.017578,0.451782,0.836060,516
25295058,9990,-0.020996,0.447998,0.834717,516
25305075,10017,-0.024048,0.447144,0.833374,515
25315060,9985,-0.026733,0.450928,0.839478,510
25325053,9993,-0.027344,0.455078,0.843140,514
25335054,10001,-0.024292,0.462280,0.849365,514
25345074,10020,-0.023193,0.471313,0.853394,516
25355053,9979,-0.022339,0.480835,0.856445,507
25365069,10016,-0.020020,0.494141,0.861816,514
25375096,10027,-0.019531,0.496704,0.863525,515
25385082,9986,-0.021729,0.494263,0.860229,515
25395077,9995,-0.024902,0.489868,0.854858,509
25405068,9991,-0.028931,0.484253,0.849976,513
25415062,9994,-0.034912,0.475098,0.845093,513
25425078,10016,-0.042725,0.461548,0.845337,510
25435059,9981,-0.045410,0.459595,0.847168,507
25445080,10021,-0.044434,0.460815,0.850098,512
25455059,9979,-0.044067,0.464355,0.850098,506
25465076,10017,-0.044312,0.471313,0.847046,511
25475063,9987,-0.038452,0.482544,0.843750,512
25485060,9997,-0.036133,0.485474,0.846558,512
25495056,9996,-0.031006,0.490479,0.852661,513
25505071,10015,-0.026611,0.493286,0.856201,512
25515060,9989,-0.024048,0.495117,0.856567,512
25525063,10003,-0.021851,0.496094,0.856812,512
25535063,10000,-0.021362,0.492554,0.859985,511
25545068,10005,-0.020874,0.492798,0.859497,503
25555059,9991,-0.022949,0.492920,0.855469,510
25565060,10001,-0.025757,0.487061,0.850220,507
25575053,9993,-0.030273,0.474731,0.847412,511
25585074,10021,-0.033936,0.454956,0.839111,510
25595060,9986,-0.035889,0.455933,0.837036,511
25605070,10010,-0.037964,0.458130,0.837280,511
25615060,9990,-0.036743,0.459473,0.838745,510
25625070,10010,-0.036987,0.460449,0.843994,510
25635065,9995,-0.033325,0.464966,0.848755,511
25645075,10010,-0.028320,0.475342,0.859741,512
25655084,10009,-0.025757,0.477661,0.860474,512
25665071,9987,-0.024414,0.477051,0.859619,510
25675063,9992,-0.021729,0.475220,0.865356,510
25685059,9996,-0.019165,0.473755,0.870239,512
25695076,10017,-0.021606,0.481079,0.876587,509
25705072,9996,-0.024658,0.483276,0.869629,512
25715074,10002,-0.031860,0.479004,0.860474,511
25725060,9986,-0.040161,0.469482,0.851074,510
25735065,10005,-0.047363,0.457397,0.844360,511
25745076,10011,-0.051514,0.448608,0.838379,513
25755065,9989,-0.056030,0.453369,0.828003,508
25765057,9992,-0.057007,0.459351,0.824951,514
25775057,10000,-0.056274,0.461548,0.823364,516
25785078,10021,-0.051636,0.468750,0.823364,509
25795072,9994,-0.046997,0.484253,0.824829,514
25805079,10007,-0.035522,0.500122,0.838623,515
25815065,9986,-0.035522,0.500732,0.832397,514
25825075,10010,-0.045776,0.503052,0.837036,511
25835073,9998,-0.033936,0.500610,0.847778,515
25845069,9996,-0.033691,0.500854,0.855957,515
25855054,9985,-0.036987,0.492920,0.850830,515
25865056,10002,-0.051270,0.463501,0.842163,516
25875060,10004,-0.051880,0.454712,0.850220,516
25885089,10029,-0.052490,0.451660,0.856323,514
25895064,9975,-0.049805,0.451782,0.858276,515
25905069,10005,-0.051758,0.454712,0.858398,515
25915080,10011,-0.051025,0.471924,0.864868,508
25925062,9982,-0.045288,0.479370,0.870239,513
25935078,10016,-0.040771,0.484863,0.869995,514
25945062,9984,-0.042603,0.490479,0.868652,513
25955076,10014,-0.046875,0.494019,0.867187,510
25965052,9976,-0.052368,0.491699,0.867676,512
25975070,10018,-0.061279,0.468384,0.859619,512
25985066,9996,-0.066772,0.464966,0.856445,511
25995073,10007,-0.067749,0.472046,0.856079,510
26005059,9986,-0.065186,0.487427,0.855469,511
26015055,9996,-0.063110,0.500366,0.856079,510
26025057,10002,-0.056030,0.507812,0.858276,511
26035057,10000,-0.051025,0.508667,0.858398,506
26045075,10018,-0.046265,0.512329,0.859375,509
26055055,9980,-0.042969,0.514282,0.861450,506
26065065,10010,-0.043823,0.514771,0.862061,508
26075064,9999,-0.046875,0.507446,0.861328,505
26085076,10012,-0.048950,0.489380,0.855347,511
26095072,9996,-0.051880,0.480713,0.846680,511
26105068,9996,-0.053223,0.473999,0.841187,507
26115065,9997,-0.052246,0.469116,0.836182,513
26125080,10015,-0.052734,0.463867,0.829346,511
26135074,9994,-0.052002,0.456055,0.817749,505
26145057,9983,-0.052490,0.453247,0.817139,507
26155077,10020,-0.051758,0.450806,0.819824,511
26165060,9983,-0.050903,0.448730,0.824097,511
26175072,10012,-0.052246,0.448242,0.827026,509
26185054,9982,-0.050903,0.454712,0.833008,512
26195080,10026,-0.049316,0.479004,0.832886,512
26205080,10000,-0.048706,0.493530,0.835815,511
26215065,9985,-0.046387,0.498047,0.837524,510
26225069,10004,-0.047974,0.499634,0.847168,510
26235062,9993,-0.040161,0.497681,0.855957,512
26245062,10000,-0.048584,0.502441,0.851318,510
26255058,9996,-0.044800,0.478027,0.837646,509
26265078,10020,-0.045288,0.484009,0.841064,506
26275053,9975,-0.050049,0.481812,0.841553,510
26285092,10039,-0.051270,0.477783,0.842041,511
26295063,9971,-0.053101,0.481934,0.837036,510
26305082,10019,-0.059570,0.477051,0.830566,507
26315079,9997,-0.064575,0.466553,0.825806,508
26325080,10001,-0.064087,0.460693,0.828125,511
26335056,9976,-0.060303,0.462280,0.837036,513
26345063,10007,-0.054443,0.466919,0.844238,513
26355077,10014,-0.048340,0.472412,0.838379,514
26365065,9988,-0.049438,0.474609,0.831543,513
26375062,9997,-0.047974,0.477783,0.831665,513
26385057,9995,-0.045410,0.480591,0.834717,514
26395055,9998,-0.046021,0.478271,0.837891,511
26405058,10003,-0.050537,0.471680,0.844849,511
26415077,10019,-0.055054,0.473145,0.843140,512
26425064,9987,-0.059692,0.476807,0.840820,513
26435054,9990,-0.061646,0.478882,0.844727,512
26445063,10009,-0.058716,0.478882,0.853149,511
26455079,10016,-0.057861,0.480835,0.860352,504
26465071,9992,-0.062256,0.483154,0.866211,519
26475074,10003,-0.065308,0.483154,0.865601,509
26485088,10014,-0.068726,0.484375,0.864258,511
26495076,9988,-0.071167,0.487305,0.863770,508
26505054,9978,-0.072510,0.488892,0.864380,508
26515080,10026,-0.072754,0.487061,0.862427,511
26525053,9973,-0.074707,0.484985,0.855225,509
26535068,10015,-0.075806,0.482788,0.849731,508
26545058,9990,-0.073853,0.482544,0.847412,506
26555065,10007,-0.071777,0.482666,0.845825,505
26565080,10015,-0.068115,0.488403,0.850464,506
26575056,9976,-0.065308,0.493774,0.851929,507
26585068,10012,-0.066650,0.496704,0.847900,508
26595067,9999,-0.066040,0.499634,0.843872,507
26605058,9991,-0.065674,0.501099,0.841309,508
26615069,10011,-0.068359,0.500977,0.839478,507
26625064,9995,-0.070312,0.499390,0.833862,508
26635078,10014,-0.070312,0.499512,0.834717,500
26645080,10002,-0.074219,0.499390,0.839355,500
26655064,9984,-0.078979,0.497681,0.842529,507
26665058,9994,-0.081787,0.499634,0.838501,507
26675057,9999,-0.085815,0.506348,0.831665,508
26685093,10036,-0.091064,0.513306,0.820679,506
26695054,9961,-0.093872,0.511475,0.817749,508
26705056,10002,-0.093506,0.504761,0.817261,509
26715071,10015,-0.091553,0.497803,0.817505,509
26725089,10018,-0.092529,0.489624,0.816162,508
26735074,9985,-0.093140,0.487671,0.816284,508
26745065,9991,-0.090820,0.490112,0.818604,508
26755063,9998,-0.087646,0.492432,0.821411,509
26765056,9993,-0.085937,0.489502,0.821899,506
26775070,10014,-0.085327,0.485229,0.821533,508
26785053,9983,-0.084229,0.483887,0.826294,508
26795066,10013,-0.081543,0.485596,0.830444,503
26805070,10004,-0.078735,0.487061,0.835571,509
26815065,9995,-0.076294,0.492676,0.843262,508
26825071,10006,-0.071411,0.499390,0.852051,508
26838173,13102,-0.064331,0.499878,0.859131,505
26845066,6893,0.000000,0.000000,0.000000,505
26855070,10004,-0.057861,0.497192,0.865723,510
26865054,9984,-0.057617,0.496826,0.864502,504
26875056,10002,-0.056030,0.492554,0.859131,505
26885067,10011,-0.054443,0.488281,0.857056,504
26895064,9997,-0.053223,0.484131,0.859375,508
26905064,10000,-0.053345,0.483032,0.858276,508
26915061,9997,-0.053223,0.484985,0.857300,507
26925059,9998,-0.050171,0.485352,0.856079,509
26935066,10007,-0.051392,0.486572,0.854736,505
26945086,10020,-0.048950,0.489014,0.855591,508
26955064,9978,-0.049561,0.486816,0.849487,512
26965052,9988,-0.053101,0.479858,0.845703,509
26975076,10024,-0.055908,0.473022,0.843750,511
26985079,10003,-0.059814,0.467651,0.843018,507
26995060,9981,-0.061157,0.464233,0.839355,512
27005061,10001,-0.062866,0.465576,0.836548,512
27015067,10006,-0.064575,0.467651,0.834473,512
27025065,9998,-0.063721,0.471680,0.835327,509
27035065,10000,-0.060181,0.476196,0.833496,511
27045052,9987,-0.061890,0.478149,0.831787,510
27055066,10014,-0.062744,0.478638,0.830322,505
27065074,10008,-0.062500,0.482666,0.828979,508
27075071,9997,-0.065552,0.484131,0.828369,511
27085053,9982,-0.065308,0.487427,0.828857,510
27095063,10010,-0.066406,0.493042,0.828979,507
27105069,10006,-0.067871,0.496582,0.829712,505
27115067,9998,-0.071899,0.492554,0.833130,510
27125077,10010,-0.072632,0.493774,0.832520,503
27135082,10005,-0.075317,0.495117,0.831543,504
27145075,9993,-0.075195,0.493896,0.833862,509
27155074,9999,-0.073120,0.493652,0.834473,508
27165078,10004,-0.074097,0.492676,0.838013,507
27175096,10018,-0.074951,0.494751,0.841187,504
27185079,9983,-0.074219,0.494263,0.842896,509
27195078,9999,-0.078125,0.491089,0.842041,510
27205076,9998,-0.080444,0.491455,0.839478,510
27215056,9980,-0.082764,0.494507,0.840332,510
27225058,10002,-0.084961,0.489868,0.840088,511
27235062,10004,-0.086548,0.489380,0.836060,511
27245082,10020,-0.086792,0.490479,0.833984,508
27255078,9996,-0.086304,0.491943,0.832642,509
27265054,9976,-0.085327,0.492798,0.832886,511
27275063,10009,-0.086060,0.492920,0.836182,510
27285075,10012,-0.083252,0.493896,0.839111,510
27295060,9985,-0.082153,0.498169,0.836426,511
27305069,10009,-0.081909,0.500122,0.836426,509
27315064,9995,-0.078857,0.501343,0.842041,504
27325079,10015,-0.074097,0.502319,0.845337,504
27335059,9980,-0.072876,0.502563,0.843506,507
27345077,10018,-0.072266,0.504272,0.839600,510
27355064,9987,-0.074951,0.503296,0.836304,504
27365073,10009,-0.077026,0.499756,0.834839,503
27375065,9992,-0.077881,0.496826,0.836426,508
27385077,10012,-0.077148,0.498901,0.836182,510
27395054,9977,-0.081543,0.500244,0.840088,507
27405080,10026,-0.083008,0.500488,0.836792,508
27415077,9997,-0.085083,0.501587,0.833740,506
27425080,10003,-0.086548,0.502563,0.829468,510
27435056,9976,-0.088501,0.502808,0.828735,510
27445073,10017,-0.086792,0.496338,0.833252,506
27455879,10806,-0.084229,0.497070,0.833862,511
27465077,9198,-0.082275,0.498657,0.833984,510
27475068,9991,-0.083374,0.500366,0.835327,512
27485063,9995,-0.082153,0.502197,0.837158,511
27495073,10010,-0.080200,0.503662,0.840698,507
27505073,10000,-0.080078,0.500122,0.846802,513
27515054,9981,-0.080200,0.499634,0.849121,508
27525077,10023,-0.082764,0.498169,0.848511,510
27535081,10004,-0.086060,0.496094,0.848999,508
27545057,9976,-0.086182,0.491943,0.851562,507
27555052,9995,-0.085449,0.485107,0.858032,511
27565071,10019,-0.084351,0.480469,0.861450,511
27575076,10005,-0.082520,0.480957,0.859985,512
27585069,9993,-0.081909,0.480835,0.857910,512
27595109,10040,-0.081787,0.480103,0.858887,506
27605053,9944,-0.082642,0.481323,0.857788,511
27615079,10026,-0.080322,0.476807,0.859009,504
27625067,9988,-0.080566,0.472412,0.853394,507
27635068,10001,-0.081909,0.472656,0.849243,509
27645096,10028,-0.080688,0.474365,0.845703,504
27655081,9985,-0.080688,0.476562,0.843994,505
27665075,9994,-0.078491,0.473755,0.844116,509
27675059,9984,-0.075684,0.473389,0.840210,505
27685078,10019,-0.076538,0.476074,0.838623,510
27695077,9999,-0.075562,0.478516,0.837036,503
27705070,9993,-0.074463,0.481445,0.837402,508
27715080,10010,-0.071899,0.485596,0.837524,510
27725076,9996,-0.069580,0.490967,0.841187,513
27735053,9977,-0.068604,0.490845,0.840942,510
27745076,10023,-0.069458,0.492065,0.838989,510
27755065,9989,-0.069824,0.488647,0.836670,505
27765081,10016,-0.070923,0.485352,0.832520,503
27775065,9984,-0.072510,0.481567,0.828857,505
27785074,10009,-0.072632,0.479248,0.827637,510
27795070,9996,-0.072144,0.479370,0.825806,503
27805063,9993,-0.071289,0.477783,0.824707,510
27815081,10018,-0.072998,0.476929,0.821167,509
27825082,10001,-0.075439,0.476440,0.820557,508
27835082,10000,-0.076172,0.483521,0.821411,508
27845069,9987,-0.076538,0.488159,0.825195,510
27855062,9993,-0.075684,0.489746,0.826050,518
27865077,10015,-0.076904,0.488770,0.828613,511
27875078,10001,-0.077148,0.489624,0.829712,511
27885053,9975,-0.076416,0.497559,0.833130,502
27895072,10019,-0.078125,0.495972,0.831177,506
27905059,9987,-0.078613,0.493896,0.832642,506
27915078,10019,-0.079224,0.490845,0.833984,511
27925081,10003,-0.080200,0.489380,0.836060,509
27935069,9988,-0.080078,0.489014,0.842041,508
27945075,10006,-0.080444,0.489014,0.842529,511
27955073,9998,-0.078857,0.489868,0.843506,511
27965078,10005,-0.078735,0.489746,0.843262,512
27975073,9995,-0.076416,0.489990,0.844482,511
27985067,9994,-0.075806,0.488892,0.843994,512
27995076,10009,-0.073364,0.488892,0.845947,507
28005064,9988,-0.072021,0.485962,0.848267,514
28015069,10005,-0.071533,0.486206,0.849243,511
28025068,9999,-0.071899,0.486572,0.847900,511
28035063,9995,-0.073608,0.485718,0.848145,512
28045058,9995,-0.074097,0.483032,0.842163,514
28055058,10000,-0.076172,0.481567,0.840088,512
28065053,9995,-0.079346,0.482422,0.839600,511
28075090,10037,-0.078979,0.480469,0.839478,512
28085065,9975,-0.077515,0.479126,0.838867,512
28095056,9991,-0.078003,0.477905,0.839966,511
28105074,10018,-0.078125,0.478760,0.837402,511
28115064,9990,-0.078979,0.482300,0.836670,512
28125078,10014,-0.077637,0.485840,0.838013,510
28135069,9991,-0.077393,0.489258,0.840210,511
28145073,10004,-0.076050,0.491943,0.842285,512
28155061,9988,-0.076538,0.498901,0.846436,511
28165080,10019,-0.072998,0.501709,0.848511,508
28175057,9977,-0.073608,0.505493,0.847168,512
28185072,10015,-0.073486,0.506348,0.847778,508
28195079,10007,-0.073608,0.504395,0.846069,512
28205081,10002,-0.075317,0.499634,0.844116,513
28215081,10000,-0.079956,0.488892,0.842651,505
28225080,9999,-0.082275,0.483765,0.840820,510
28235062,9982,-0.082764,0.481201,0.839844,504
28245057,9995,-0.083618,0.481567,0.840088,511
28255052,9995,-0.083984,0.484375,0.842773,508
28265053,10001,-0.081787,0.489380,0.841675,508
28275074,10021,-0.080566,0.492310,0.838745,504
28285108,10034,-0.081299,0.491211,0.836426,504
28296476,11368,-0.079956,0.493408,0.837280,511
28305070,8594,-0.076050,0.494995,0.843750,508
28315065,9995,-0.074097,0.494995,0.849609,512
28325071,10006,-0.070923,0.495117,0.847168,509
28335059,9988,-0.071045,0.499878,0.841431,507
28345067,10008,-0.069214,0.499390,0.837402,511
28355057,9990,-0.068481,0.498413,0.838501,508
28365059,10002,-0.065186,0.500244,0.839722,510
28375069,10010,-0.064697,0.497314,0.842773,510
28385071,10002,-0.065186,0.494263,0.842163,508
28395073,10002,-0.066162,0.491333,0.842773,506
28405052,9979,-0.067749,0.484619,0.842163,507
28415081,10029,-0.067627,0.481445,0.841675,510
28425058,9977,-0.071045,0.481201,0.840942,507
28435081,10023,-0.074585,0.476807,0.837036,509
28445072,9991,-0.075928,0.473022,0.836548,511
28455059,9987,-0.077637,0.469971,0.837769,509
28465074,10015,-0.078491,0.469971,0.840210,505
28475065,9991,-0.079468,0.475830,0.841187,504
28485080,10015,-0.078735,0.484985,0.847290,508
28495080,10000,-0.078491,0.485596,0.848389,511
28505080,10000,-0.076172,0.487061,0.848389,507
28515104,10024,-0.077271,0.491577,0.845825,508
28525052,9948,-0.077515,0.495117,0.844482,505
28535075,10023,-0.075806,0.496704,0.844971,514
28545070,9995,-0.073608,0.499512,0.846802,514
28555052,9982,-0.072998,0.499878,0.846191,512
28565079,10027,-0.074707,0.501343,0.846436,511
28575058,9979,-0.072632,0.502075,0.845581,512
28585063,10005,-0.073853,0.500366,0.844360,512
28595067,10004,-0.071655,0.494507,0.840942,511
28605066,9999,-0.073364,0.489624,0.835815,511
28615058,9992,-0.074707,0.486206,0.829956,513
28625059,10001,-0.078491,0.480347,0.827026,512
28635053,9994,-0.079346,0.476318,0.824951,513
28645069,10016,-0.079346,0.474487,0.827881,513
28655074,10005,-0.081177,0.480591,0.832031,508
28665065,9991,-0.079346,0.487671,0.834717,511
28675080,10015,-0.076416,0.495972,0.839355,518
28685054,9974,-0.073730,0.500366,0.845337,513
28695072,10018,-0.071045,0.503418,0.848267,513
28705059,9987,-0.066284,0.506348,0.858276,506
28715067,10008,-0.062378,0.507568,0.866577,511
28725059,9992,-0.059082,0.505493,0.871582,510
28735070,10011,-0.058716,0.501587,0.873779,511
28745074,10004,-0.058472,0.499634,0.871826,512
28755075,10001,-0.058960,0.497314,0.869263,508
28765077,10002,-0.057861,0.487061,0.864380,512
28775069,9992,-0.060181,0.483398,0.860352,511
28785064,9995,-0.062988,0.475586,0.859497,506
28795063,9999,-0.064575,0.467896,0.852661,506
28805070,10007,-0.069214,0.463135,0.844482,512
28815073,10003,-0.075928,0.466797,0.838989,512
28825081,10008,-0.077271,0.465210,0.840454,513
28835068,9987,-0.077026,0.459961,0.840332,511
28845058,9990,-0.076782,0.455566,0.834961,512
28855062,10004,-0.076050,0.457153,0.826172,506
28865073,10011,-0.077515,0.461548,0.818848,512
28875062,9989,-0.075073,0.467285,0.816284,513
28885052,9990,-0.072021,0.468262,0.817505,513
28895071,10019,-0.071289,0.468750,0.820312,506
28905078,10007,-0.070923,0.473511,0.820190,505
28915077,9999,-0.071777,0.479980,0.818604,511
28925079,10002,-0.072266,0.488525,0.814087,512
28935058,9979,-0.072266,0.487427,0.814209,510
28945054,9996,-0.071289,0.487793,0.815308,512
28955081,10027,-0.071899,0.489136,0.819092,511
28965056,9975,-0.073486,0.489990,0.821777,509
28975077,10021,-0.074707,0.487793,0.824707,512
28985064,9987,-0.079224,0.482666,0.826050,511
28995090,10026,-0.080078,0.481079,0.827637,510
29005080,9990,-0.081177,0.481934,0.828125,508
29015073,9993,-0.082642,0.484253,0.828003,507
29025054,9981,-0.083496,0.489014,0.830566,514
29035062,10008,-0.083740,0.494873,0.842529,512
29045067,10005,-0.083496,0.496826,0.845703,511
29055083,10016,-0.085083,0.500122,0.849243,516
29065072,9989,-0.083862,0.504517,0.856201,512
29075059,9987,-0.083008,0.508667,0.862549,513
29085058,9999,-0.081543,0.508667,0.876099,507
29095065,10007,-0.078857,0.504272,0.878418,513
29105056,9991,-0.078369,0.499634,0.875977,511
29115075,10019,-0.078003,0.497559,0.868774,514
29125061,9986,-0.078003,0.491821,0.870483,514
29135058,9997,-0.075317,0.489746,0.868042,513
29145077,10019,-0.074341,0.487549,0.859131,514
29155054,9977,-0.072266,0.483643,0.854492,512
29165077,10023,-0.070679,0.478882,0.849609,511
29175066,9989,-0.071045,0.477783,0.847778,511
29185058,9992,-0.068115,0.479248,0.848267,505
29195079,10021,-0.064453,0.485229,0.853516,512
29205061,9982,-0.056274,0.493896,0.850952,509
29215107,10046,-0.053467,0.495483,0.845947,511
29225069,9962,-0.051636,0.493042,0.841309,511
29235056,9987,-0.050415,0.490601,0.840576,507
29245077,10021,-0.047974,0.485474,0.841064,510
29255055,9978,-0.043579,0.477417,0.842529,511
29265077,10022,-0.041382,0.477905,0.844849,512
29275057,9980,-0.042603,0.476074,0.843262,511
29285071,10014,-0.043335,0.471313,0.837158,511
29295081,10010,-0.045166,0.467529,0.835083,507
29305052,9971,-0.049561,0.458984,0.823975,511
29315057,10005,-0.059204,0.454102,0.822144,509
29325062,10005,-0.062988,0.450562,0.824707,499
29335062,10000,-0.064575,0.449341,0.826050,510
29345068,10006,-0.067139,0.448975,0.824463,510
29355066,9998,-0.071289,0.453613,0.824219,514
29365069,10003,-0.072266,0.471680,0.829712,510
29375081,10012,-0.073608,0.476807,0.832153,512
29385057,9976,-0.074341,0.482056,0.834351,511
29395067,10010,-0.074707,0.488037,0.838501,510
29405070,10003,-0.074463,0.494995,0.845581,510
29415081,10011,-0.071045,0.503540,0.859131,508
29425097,10016,-0.072144,0.504517,0.862671,510
29435078,9981,-0.073730,0.504639,0.862183,510
29445055,9977,-0.076904,0.502441,0.859375,511
29455075,10020,-0.076660,0.498413,0.856079,512
29465058,9983,-0.076904,0.492187,0.855957,511
29475055,9997,-0.067139,0.489868,0.862671,511
29485070,10015,-0.063721,0.493164,0.864624,510
29495058,9988,-0.063477,0.493408,0.862549,512
29505063,10005,-0.065552,0.490234,0.856079,513
29515053,9990,-0.068848,0.482544,0.847290,510
29525060,10007,-0.069092,0.470581,0.837769,510
29535054,9994,-0.066528,0.466309,0.838501,511
29545069,10015,-0.064331,0.466309,0.840210,511
29555055,9986,-0.063354,0.470581,0.839966,512
29565064,10009,-0.064697,0.478394,0.840088,510
29575067,10003,-0.059204,0.487793,0.840942,512
29585054,9987,-0.053711,0.503174,0.847656,510
29595073,10019,-0.052856,0.504639,0.849487,512
29605061,9988,-0.051147,0.505615,0.849731,512
29615061,10000,-0.050781,0.503296,0.852051,513
29625080,10019,-0.050049,0.498779,0.853027,514
29635076,9996,-0.053101,0.483032,0.850464,512
29645067,9991,-0.053345,0.478394,0.847412,516
29655089,10022,-0.056274,0.475220,0.843140,515
29665080,9991,-0.059937,0.471924,0.837769,512
29675081,10001,-0.062622,0.468872,0.833008,516
29685058,9977,-0.063965,0.468506,0.830566,515
29695077,10019,-0.059570,0.469360,0.830811,514
29705079,10002,-0.059082,0.473999,0.834351,516
29715074,9995,-0.058716,0.476562,0.836304,517
29725054,9980,-0.059692,0.476196,0.837280,515
29735062,10008,-0.057739,0.474487,0.837280,516
29745062,10000,-0.058594,0.478149,0.840942,515
29755067,10005,-0.057373,0.484497,0.844849,508
29765062,9995,-0.053711,0.494263,0.848389,509
29775066,10004,-0.051514,0.500488,0.853271,516
29785080,10014,-0.049316,0.498169,0.854492,513
29795061,9981,-0.054810,0.485840,0.857178,513
29805072,10011,-0.052979,0.490234,0.864868,516
29815055,9983,-0.054810,0.478760,0.864136,514
29825060,10005,-0.045654,0.479370,0.868896,511
29835069,10009,-0.042847,0.490112,0.876587,513
29845060,9991,-0.044434,0.474243,0.869629,511
29855063,10003,-0.042847,0.474854,0.859253,513
29865071,10008,-0.040527,0.461182,0.851074,512
29875098,10027,-0.043091,0.470337,0.846680,512
29885070,9972,-0.048096,0.461304,0.844360,512
29895070,10000,-0.050293,0.471313,0.848389,510
29905062,9992,-0.058594,0.466553,0.815796,512
29915062,10000,-0.066406,0.471802,0.843994,514
29925095,10033,-0.074585,0.464600,0.837524,514
29935065,9970,-0.070190,0.472290,0.835327,513
29945064,9999,-0.073730,0.477539,0.839722,512
29955071,10007,-0.072876,0.468506,0.840454,515
29965069,9998,-0.064575,0.466553,0.853271,513
29975076,10007,-0.062012,0.469849,0.854736,512
29985074,9998,-0.060669,0.473022,0.851562,515
29995064,9990,-0.056274,0.473999,0.850952,507
30005053,9989,-0.055908,0.474121,0.853394,516
30015053,10000,-0.053223,0.473022,0.858154,513
30025067,10014,-0.046875,0.469238,0.859619,511
30035073,10006,-0.041382,0.471680,0.858887,512
30045054,9981,-0.041260,0.475708,0.855347,513
30055079,10025,-0.042236,0.479492,0.851074,513
30065064,9985,-0.042114,0.480713,0.848267,510
30075064,10000,-0.041992,0.473999,0.847168,512
30085069,10005,-0.043091,0.469238,0.844727,512
30095076,10007,-0.045166,0.467529,0.841064,512
30105062,9986,-0.045044,0.466797,0.840454,512
30115057,9995,-0.044556,0.465088,0.840576,507
30125079,10022,-0.046509,0.466919,0.835205,514
30135078,9999,-0.046753,0.466797,0.836670,512
30145075,9997,-0.042725,0.471802,0.839966,518
30155078,10003,-0.044922,0.470947,0.840576,515
30165159,10081,-0.042358,0.465454,0.841553,512
30175062,9903,-0.037476,0.471680,0.848755,516
30185065,10003,-0.037476,0.486084,0.847534,515
30195054,9989,-0.038330,0.496460,0.843262,515
30205064,10010,-0.043701,0.491577,0.838989,516
30215064,10000,-0.040649,0.488037,0.838867,515
30225496,10432,-0.040039,0.485229,0.840698,517
30235073,9577,-0.041626,0.475342,0.841553,516
30245072,9999,-0.041260,0.482666,0.840454,512
30255061,9989,-0.048828,0.481934,0.836914,516
30265076,10015,-0.048584,0.472046,0.836304,511
30275080,10004,-0.044556,0.473145,0.847534,517
30285058,9978,-0.046753,0.479858,0.849976,511
30295071,10013,-0.042236,0.481201,0.854492,512
30305067,9996,-0.039063,0.492798,0.859131,516
30315066,9999,-0.042114,0.497925,0.858521,512
30325098,10032,-0.037720,0.494995,0.857056,515
30335056,9958,-0.032227,0.500244,0.859619,514
30345061,10005,-0.059937,0.502441,0.852051,509
30355059,9998,-0.027588,0.494263,0.846802,508
30365070,10011,-0.030029,0.488647,0.847534,517
30375063,9993,-0.032837,0.475464,0.847168,514
30385087,10024,-0.034058,0.460937,0.848511,514
30395059,9972,-0.037476,0.456299,0.852783,517
30405074,10015,-0.036499,0.466309,0.852905,516
30415054,9980,-0.034668,0.469971,0.851318,514
30425065,10011,-0.034790,0.471191,0.848511,516
30435064,9999,-0.037354,0.470581,0.846191,513
30445065,10001,-0.037109,0.471313,0.847778,514
30455060,9995,-0.048828,0.451904,0.862671,515
30465056,9996,-0.046509,0.457275,0.877075,509
30475066,10010,-0.044800,0.469116,0.888916,517
30485055,9989,-0.045532,0.464111,0.895508,516
30495066,10011,-0.041016,0.476318,0.894043,510
30505079,10013,-0.041504,0.494263,0.884888,516
30515067,9988,-0.043945,0.500488,0.875977,515
30525080,10013,-0.048950,0.485840,0.877686,516
30535072,9992,-0.052734,0.478882,0.876953,517
30545071,9999,-0.060669,0.514282,0.870361,509
30555061,9990,-0.061035,0.481079,0.875977,516
30565094,10033,-0.046509,0.469727,0.866455,518
30575076,9982,-0.050171,0.476807,0.866821,520
30585060,9984,-0.041748,0.506348,0.873779,517
30595065,10005,-0.039795,0.543823,0.877197,518
30605080,10015,-0.046753,0.556152,0.880127,518
30615063,9983,-0.036987,0.548584,0.878540,519
30625078,10015,-0.034546,0.536987,0.857300,518
30635077,9999,-0.027466,0.535522,0.852417,519
30645063,9986,-0.028320,0.527344,0.854004,521
30655065,10002,-0.016479,0.538208,0.859375,522
30665081,10016,-0.013428,0.518921,0.861572,521
30675075,9994,-0.045044,0.511597,0.892822,514
30685078,10003,-0.045166,0.505249,0.901123,522
30695064,9986,-0.041748,0.489014,0.898437,516
30705081,10017,-0.039063,0.467896,0.875854,523
30716482,11401,-0.040161,0.458618,0.840942,524
30725062,8580,-0.038818,0.456299,0.802856,523
30735081,10019,-0.022095,0.438599,0.795044,521
30745056,9975,0.003052,0.442383,0.810791,529
30755081,10025,0.008057,0.452148,0.818237,536
30765064,9983,0.008057,0.449707,0.822388,539
30775081,10017,0.007324,0.460327,0.822876,539
30785061,9980,0.008667,0.484863,0.820068,545
30795080,10019,0.006226,0.485718,0.815674,552
30805063,9983,0.005615,0.497070,0.809326,559
30815071,10008,0.003296,0.484131,0.813354,558
30825056,9985,0.001953,0.462646,0.818726,556
30835071,10015,-0.000977,0.446533,0.818970,554
30845061,9990,-0.029297,0.443481,0.847290,548
30855079,10018,-0.033691,0.437744,0.870239,544
30865070,9991,-0.035522,0.421387,0.879883,534
30875066,9996,-0.042847,0.412109,0.873291,522
30885062,9996,-0.045898,0.415039,0.853760,516
30895061,9999,-0.053345,0.413452,0.828613,503
30905056,9995,-0.061279,0.401978,0.824829,500
30915064,10008,-0.067017,0.393677,0.827637,494
30925071,10007,-0.070190,0.389038,0.837769,490
30935057,9986,-0.071655,0.391968,0.849731,487
30945074,10017,-0.068970,0.398804,0.859619,484
30955065,9991,-0.056519,0.428345,0.866211,488
30965077,10012,-0.047607,0.441406,0.861694,487
30975056,9979,-0.042603,0.445923,0.854980,486
30985073,10017,-0.040283,0.443237,0.851440,494
30995081,10008,-0.039307,0.438843,0.852539,491
31005057,9976,-0.045410,0.443848,0.868042,499
31015079,10022,-0.046631,0.448486,0.885742,498
31025099,10020,-0.049072,0.445923,0.897461,496
31035071,9972,-0.052002,0.449585,0.899414,508
31045062,9991,-0.053833,0.444580,0.897949,510
31055055,9993,-0.063354,0.448364,0.888550,507
31065063,10008,-0.078979,0.439941,0.877808,518
31075067,10004,-0.087891,0.440308,0.880981,521
31085091,10024,-0.088867,0.438232,0.886230,523
31095074,9983,-0.086060,0.446655,0.881348,528
31105058,9984,-0.082886,0.463745,0.879150,529
31115072,10014,-0.086914,0.464478,0.860107,525
31125058,9986,-0.084717,0.461182,0.856934,526
31135080,10022,-0.094604,0.448975,0.857422,527
31145055,9975,-0.099609,0.448975,0.854004,528
31155076,10021,-0.106079,0.463501,0.853271,525
31165073,9997,-0.103149,0.457031,0.857056,524
31175075,10002,-0.091309,0.449585,0.855469,515
31185067,9992,-0.093994,0.441040,0.853882,517
31195058,9991,-0.084717,0.443970,0.851685,517
31205071,10013,-0.084839,0.465820,0.857544,516
31215068,9997,-0.079102,0.486572,0.860962,514
31225054,9986,-0.076660,0.507324,0.881836,510
31235075,10021,-0.075562,0.501099,0.882568,509
31245075,10000,-0.077148,0.491089,0.879639,510
31255067,9992,-0.077759,0.480347,0.873779,509
31265088,10021,-0.076782,0.475098,0.866089,508
31275069,9981,-0.075684,0.468140,0.845459,508
31285066,9997,-0.077271,0.453247,0.834839,507
31295058,9992,-0.081055,0.437378,0.824951,504
31305066,10008,-0.085083,0.420654,0.814453,505
31315077,10011,-0.090332,0.405884,0.814209,504
31325059,9982,-0.090942,0.397705,0.814331,512
31335064,10005,-0.091675,0.398560,0.801636,515
31345053,9989,-0.086548,0.395874,0.801147,510
31355052,9999,-0.082520,0.414062,0.805786,513
31365078,10026,-0.077271,0.431274,0.817749,512
31375071,9993,-0.078247,0.450195,0.824463,513
31385072,10001,-0.072021,0.449829,0.848633,513
31395072,10000,-0.068115,0.446289,0.862061,511
31405061,9989,-0.066772,0.442871,0.877319,511
31415074,10013,-0.062744,0.444092,0.890625,507
31425054,9980,-0.060181,0.449463,0.896118,507
31435081,10027,-0.062256,0.453857,0.892090,509
31445098,10017,-0.057007,0.472534,0.880005,505
31455059,9961,-0.071289,0.458618,0.875366,506
31465066,10007,-0.073853,0.444458,0.872559,511
31475053,9987,-0.072632,0.436157,0.876099,513
31485066,10013,-0.071167,0.432373,0.882935,509
31495080,10014,-0.071289,0.407227,0.894531,512
31505084,10004,-0.073853,0.403442,0.892456,511
31515053,9969,-0.077393,0.407959,0.888062,513
31525058,10005,-0.078613,0.414551,0.881714,509
31535054,9996,-0.076294,0.415894,0.876221,511
31545066,10012,-0.074219,0.416138,0.875977,508
31555076,10010,-0.074585,0.408691,0.903564,506
31565090,10014,-0.080078,0.411621,0.904907,509
31575070,9980,-0.088135,0.414673,0.906494,509
31585058,9988,-0.082153,0.421143,0.907227,505
31595062,10004,-0.079834,0.421021,0.912109,507
31605082,10020,-0.040283,0.418091,0.922974,507
31615078,9996,-0.049561,0.427490,0.924805,503
31625052,9974,-0.042603,0.436646,0.919067,506
31635081,10029,-0.039673,0.444946,0.908081,504
31645053,9972,-0.039185,0.446533,0.901123,506
31655075,10022,-0.042725,0.443237,0.892822,507
31665057,9982,-0.047485,0.439575,0.884399,506
31675054,9997,-0.048340,0.446777,0.877808,502
31685062,10008,-0.047119,0.451904,0.874023,507
31695064,10002,-0.041138,0.452271,0.869751,508
31705071,10007,-0.037109,0.448853,0.859253,506
31715070,9999,-0.029175,0.451538,0.838379,507
31725072,10002,-0.026978,0.456543,0.841797,508
31738555,13483,-0.027588,0.457031,0.846924,512
31745668,7113,-0.032715,0.451538,0.856567,509
31755076,9408,-0.033569,0.449707,0.865601,507
31765065,9989,-0.032349,0.453735,0.859863,507
31775067,10002,-0.037598,0.460327,0.823853,512
31785071,10004,-0.038818,0.463501,0.810059,511
31795080,10009,-0.034546,0.466064,0.814575,511
31805078,9998,-0.034546,0.462891,0.825684,511
31815065,9987,-0.040649,0.452271,0.835327,513
31825052,9987,-0.056396,0.435181,0.844116,504
31835077,10025,-0.058838,0.437378,0.841919,505
31845080,10003,-0.062256,0.449097,0.836182,510
31855077,9997,-0.060669,0.462158,0.832520,512
31865058,9981,-0.056885,0.469727,0.830200,511
31875073,10015,-0.053467,0.473022,0.832764,509
31885076,10003,-0.039063,0.482666,0.844971,512
31895071,9995,-0.041138,0.485107,0.848267,512
31905053,9982,-0.044189,0.477295,0.853638,512
31915079,10026,-0.048706,0.468628,0.863770,512
31925074,9995,-0.062500,0.464111,0.866455,512
31935074,10000,-0.083984,0.471680,0.867432,513
31945073,9999,-0.080322,0.471191,0.874512,512
31955063,9990,-0.072510,0.469238,0.879272,513
31965070,10007,-0.062012,0.472778,0.877808,506
31975077,10007,-0.057861,0.480957,0.875244,512
31985066,9989,-0.055786,0.490967,0.877563,508
31995064,9998,-0.053223,0.497192,0.879517,514
32005074,10010,-0.055908,0.484497,0.873047,514
32015073,9999,-0.056885,0.471313,0.864380,514
32025062,9989,-0.057129,0.460449,0.860107,513
32035068,10006,-0.057373,0.451782,0.864990,515
32045062,9994,-0.060791,0.435547,0.872070,512
32055052,9990,-0.062744,0.430542,0.870972,512
32065066,10014,-0.064209,0.435425,0.870728,511
32075077,10011,-0.065674,0.444824,0.872681,510
32085077,10000,-0.069214,0.448608,0.875610,511
32095053,9976,-0.066284,0.450195,0.878784,510
32105054,10001,-0.055176,0.459473,0.872925,503
32115054,10000,-0.057007,0.464478,0.875854,510
32125057,10003,-0.058838,0.464966,0.875366,510
32135057,10000,-0.065430,0.460815,0.871338,510
32145072,10015,-0.069946,0.452881,0.867798,510
32155062,9990,-0.076904,0.439941,0.875610,506
32165055,9993,-0.076538,0.437378,0.876953,507
32175069,10014,-0.076660,0.437500,0.872070,506
32185064,9995,-0.076416,0.445557,0.865112,508
32195081,10017,-0.074951,0.453979,0.860229,513
32205091,10010,-0.074585,0.459717,0.857178,513
32215067,9976,-0.068726,0.462402,0.858154,508
32225055,9988,-0.066406,0.465698,0.862183,514
32235055,10000,-0.064819,0.469604,0.865479,513
32245077,10022,-0.061768,0.477051,0.865723,514
32255068,9991,-0.064453,0.483398,0.864624,514
32265067,9999,-0.066650,0.491455,0.860229,517
32275077,10010,-0.064209,0.480103,0.855713,517
32285070,9993,-0.058838,0.479614,0.854004,516
32295065,9995,-0.061523,0.475098,0.850586,517
32305053,9988,-0.067139,0.465088,0.846069,517
32315075,10022,-0.070435,0.462524,0.841553,516
32325064,9989,-0.078979,0.466431,0.837524,515
32335079,10015,-0.082764,0.458130,0.839111,514
32345064,9985,-0.082397,0.457275,0.840698,509
32355073,10009,-0.083374,0.462158,0.842163,516
32365060,9987,-0.083862,0.466553,0.841309,511
32375062,10002,-0.075195,0.474609,0.837769,515
32385065,10003,-0.077759,0.474609,0.836304,513
32395073,10008,-0.073120,0.468628,0.838135,512
32405064,9991,-0.066040,0.480103,0.846069,513
32415071,10007,-0.065674,0.474976,0.855835,511
32425074,10003,-0.063599,0.473877,0.859253,514
32435062,9988,-0.062622,0.485718,0.856445,512
32445061,9999,-0.063232,0.487305,0.851562,510
32455066,10005,-0.061523,0.485840,0.849121,513
32465068,10002,-0.058838,0.479736,0.849609,512
32475066,9998,-0.060059,0.476196,0.849976,508
32485074,10008,-0.062256,0.474976,0.840088,507
32495056,9982,-0.070557,0.472412,0.828491,508
32505080,10024,-0.076294,0.466675,0.822998,513
32515089,10009,-0.083252,0.464600,0.822144,514
32525060,9971,-0.093872,0.464844,0.828491,513
32535072,10012,-0.098145,0.469360,0.837646,514
32545073,10001,-0.097656,0.486084,0.842407,514
32555056,9983,-0.097046,0.490112,0.831787,513
32565077,10021,-0.095215,0.493652,0.823608,513
32575052,9975,-0.093384,0.493774,0.822632,508
32585068,10016,-0.093872,0.483154,0.828003,503
32595074,10006,-0.090454,0.477539,0.838745,493
32605071,9997,-0.093384,0.469360,0.833496,513
32615059,9988,-0.092773,0.464355,0.831665,514
32625061,10002,-0.089844,0.465576,0.828491,510
32635062,10001,-0.088745,0.463745,0.827759,512
32645075,10013,-0.087158,0.467041,0.833008,511
32655071,9996,-0.087891,0.490601,0.839111,511
32665058,9987,-0.087891,0.499390,0.843750,509
32675068,10010,-0.090210,0.500244,0.848389,511
32685070,10002,-0.088623,0.497803,0.855469,508
32695069,9999,-0.086914,0.494263,0.861816,504
32705062,9993,-0.082397,0.498047,0.866577,504
32715083,10021,-0.086670,0.499390,0.864014,510
32725067,9984,-0.088989,0.497681,0.859985,510
32735080,10013,-0.088379,0.493652,0.859985,510
32745076,9996,-0.092651,0.488037,0.858032,507
32755284,10208,-0.097534,0.477173,0.851807,510
32765073,9789,-0.104370,0.474731,0.853516,511
32775092,10019,-0.103760,0.477783,0.857300,514
32785072,9980,-0.100586,0.480713,0.858398,512
32795055,9983,-0.099365,0.480957,0.856934,512
32805059,10004,-0.095337,0.484253,0.851074,512
32815057,9998,-0.091187,0.491455,0.838379,511
32825053,9996,-0.091187,0.490112,0.836670,514
32835058,10005,-0.091675,0.489502,0.833374,512
32845065,10007,-0.091064,0.492554,0.833008,513
32855079,10014,-0.090088,0.493042,0.832031,511
32865061,9982,-0.089600,0.492676,0.829468,508
32875066,10005,-0.086914,0.492432,0.830078,512
32885056,9990,-0.086182,0.495361,0.831299,512
32895081,10025,-0.088257,0.498047,0.831421,513
32905079,9998,-0.087769,0.499268,0.831299,512
32915058,9979,-0.088623,0.499146,0.827637,509
32925066,10008,-0.092529,0.492554,0.823975,511
32935074,10008,-0.093140,0.492676,0.822266,510
32945070,9996,-0.093384,0.493286,0.822144,512
32955066,9996,-0.093384,0.494385,0.817749,512
32965069,10003,-0.095093,0.495483,0.816162,506
32975070,10001,-0.093384,0.530029,0.816895,511
32985066,9996,-0.093506,0.500977,0.817871,512
32995079,10013,-0.095825,0.504028,0.823608,510
33005077,9998,-0.095337,0.507202,0.827759,510
33015056,9979,-0.099976,0.507935,0.829468,514
33025091,10035,-0.102051,0.506348,0.830322,513
33035078,9987,-0.101440,0.501709,0.827026,506
33045062,9984,-0.101685,0.500244,0.825195,511
33055061,9999,-0.104492,0.497681,0.826904,512
33065071,10010,-0.104492,0.498413,0.828857,512
33075078,10007,-0.104248,0.497681,0.833130,508
33085055,9977,-0.102051,0.496582,0.839355,507
33095057,10002,-0.102173,0.492798,0.840332,513
33105079,10022,-0.103271,0.491943,0.837524,512
33115063,9984,-0.101563,0.492798,0.840332,505
33125064,10001,-0.100586,0.496948,0.843262,511
33135077,10013,-0.097290,0.500244,0.845215,510
33145066,9989,-0.092285,0.498291,0.850342,512
33155082,10016,-0.089722,0.500244,0.848511,508
33165059,9977,-0.088379,0.500366,0.846802,512
33175070,10011,-0.087891,0.500977,0.844971,510
33185058,9988,-0.088013,0.499878,0.846313,508
33195080,10022,-0.089600,0.490845,0.846436,510
33205053,9973,-0.094482,0.486328,0.844238,510
33215075,10022,-0.095703,0.483643,0.841309,508
33225058,9983,-0.096313,0.477905,0.838013,512
33235060,10002,-0.096680,0.476807,0.834595,512
33245072,10012,-0.096802,0.476562,0.832886,512
33255065,9993,-0.091919,0.484009,0.828613,513
33265078,10013,-0.091187,0.484985,0.829834,512
33275076,9998,-0.089355,0.486816,0.831177,508
33285062,9986,-0.088989,0.491577,0.833618,513
33295068,10006,-0.089844,0.494995,0.833740,513
33305074,10006,-0.088867,0.496216,0.835571,516
33315054,9980,-0.087524,0.497925,0.837280,509
33325055,10001,-0.085693,0.503540,0.840698,514
33335060,10005,-0.085083,0.507812,0.843750,515
33345068,10008,-0.082397,0.508789,0.848633,516
33355059,9991,-0.080566,0.508301,0.851562,513
33365070,10011,-0.082397,0.505615,0.847534,514
33375053,9983,-0.082886,0.503540,0.844238,514
33385069,10016,-0.082520,0.503174,0.843750,516
33395065,9996,-0.082642,0.501953,0.844116,514
33405077,10012,-0.084106,0.499512,0.844604,514
33415065,9988,-0.084595,0.490723,0.847168,509
33425080,10015,-0.088989,0.488770,0.844238,514
33435053,9973,-0.091919,0.488403,0.842529,513
33445063,10010,-0.090576,0.487549,0.844482,512
33455081,10018,-0.089600,0.482788,0.846558,513
33465063,9982,-0.091309,0.478516,0.844238,511
33475057,9994,-0.092773,0.477417,0.840698,512
33485071,10014,-0.092773,0.474121,0.839600,511
33495077,10006,-0.094360,0.470581,0.836548,511
33505079,10002,-0.093750,0.469238,0.837280,512
33515072,9993,-0.093506,0.470093,0.839966,510
33525059,9987,-0.090820,0.473511,0.837891,513
33535065,10006,-0.089722,0.478638,0.840210,510
33545065,10000,-0.086670,0.484253,0.843872,512
33555076,10011,-0.085083,0.488892,0.844116,511
33565880,10804,-0.083740,0.490601,0.841187,508
33575075,9195,-0.084595,0.493286,0.841064,512
33585059,9984,-0.083130,0.500732,0.846680,508
33595063,10004,-0.081421,0.499512,0.851318,512
33605074,10011,-0.080811,0.497192,0.853516,511
33615082,10008,-0.083496,0.494995,0.853638,509
33625080,9998,-0.087402,0.489624,0.850952,511
33635055,9975,-0.089355,0.478271,0.843018,509
33645055,10000,-0.091064,0.476562,0.840332,511
33655054,9999,-0.091797,0.473633,0.836914,511
33665072,10018,-0.091064,0.473145,0.837158,509
33675072,10000,-0.090820,0.473267,0.836914,511
33685074,10002,-0.089111,0.472778,0.840088,511
33695056,9982,-0.084351,0.470703,0.840820,511
33705081,10025,-0.083862,0.474731,0.840454,505
33715075,9994,-0.083496,0.478638,0.839355,510
33725052,9977,-0.084351,0.480103,0.841675,505
33735064,10012,-0.081665,0.479736,0.840820,504
33745069,10005,-0.082397,0.477051,0.838745,509
33755062,9993,-0.081421,0.479004,0.837769,512
33765082,10020,-0.081177,0.480469,0.837280,511
33775061,9979,-0.080322,0.482056,0.834717,509
33785059,9998,-0.080933,0.481567,0.833740,508
33795059,10000,-0.077637,0.484497,0.833740,512
33805064,10005,-0.076172,0.488037,0.832153,512
33815057,9993,-0.075562,0.485596,0.832886,514
33825052,9995,-0.073608,0.483887,0.834595,513
33835075,10023,-0.073853,0.483643,0.833008,512
33845067,9992,-0.076538,0.484131,0.829712,514
33855067,10000,-0.077393,0.477173,0.826294,514
33865057,9990,-0.077881,0.471436,0.823975,508
33875073,10016,-0.078735,0.467041,0.821167,512
33885076,10003,-0.080078,0.464722,0.819702,514
33895052,9976,-0.080566,0.461670,0.820557,513
33905070,10018,-0.081299,0.461304,0.821777,513
33915076,10006,-0.082886,0.463867,0.823975,513
33925059,9983,-0.083130,0.465942,0.824829,506
33935063,10004,-0.083374,0.467651,0.822266,512
33945080,10017,-0.082031,0.471191,0.820801,507
33955063,9983,-0.082153,0.473022,0.817749,513
33965093,10030,-0.078613,0.474121,0.818359,508
33975072,9979,-0.076416,0.476807,0.821045,512
33985061,9989,-0.075073,0.481445,0.825073,512
33995069,10008,-0.076416,0.486816,0.825317,512
34005055,9986,-0.077393,0.495117,0.827271,510
34015060,10005,-0.075195,0.499634,0.833374,512
34025070,10010,-0.077393,0.506470,0.849731,511
34035053,9983,-0.078491,0.507935,0.853027,505
