t_us,dt_us,ax,ay,az,ppg
9231440,10024,-0.102173,0.381348,0.893677,512
9241419,9979,-0.100708,0.381104,0.893066,513
9251427,10008,-0.102417,0.380005,0.893799,514
9261430,10003,-0.103394,0.378784,0.894409,513
9271440,10010,-0.104736,0.379272,0.895508,513
9281444,10004,-0.104858,0.379395,0.893555,507
9291438,9994,-0.103027,0.379028,0.892700,511
9301442,10004,-0.101440,0.379761,0.893188,510
9311430,9988,-0.100830,0.381226,0.893066,512
9321432,10002,-0.100830,0.381714,0.893555,513
9331435,10003,-0.102417,0.380371,0.894165,511
9341428,9993,-0.103882,0.377808,0.893555,512
9351445,10017,-0.104126,0.377808,0.894775,511
9361467,10022,-0.103271,0.378906,0.894775,511
9371440,9973,-0.103271,0.378662,0.894653,512
9381425,9985,-0.103027,0.379395,0.893921,524
9391424,9999,-0.101196,0.379761,0.893799,507
9401426,10002,-0.102417,0.379639,0.892822,513
9411444,10018,-0.101685,0.380615,0.895142,512
9421433,9989,-0.102051,0.380615,0.894653,512
9431444,10011,-0.103394,0.379395,0.895142,512
9441423,9979,-0.103271,0.379150,0.895142,508
9451437,10014,-0.102905,0.378906,0.894409,511
9461429,9992,-0.102661,0.378418,0.894165,512
9471437,10008,-0.103394,0.379028,0.894409,508
9481432,9995,-0.102783,0.380005,0.892944,503
9491427,9995,-0.101929,0.379517,0.893677,508
9501422,9995,-0.103516,0.380127,0.894653,511
9511416,9994,-0.102661,0.380981,0.894043,506
9521424,10008,-0.102905,0.380371,0.892822,513
9531426,10002,-0.102417,0.379395,0.893188,510
9541433,10007,-0.103149,0.379272,0.893555,510
9551424,9991,-0.103027,0.379272,0.893799,511
9561420,9996,-0.103882,0.380127,0.893677,511
9571421,10001,-0.105347,0.379761,0.894043,513
9581429,10008,-0.103516,0.380249,0.894653,511
9591434,10005,-0.101929,0.380249,0.893433,511
9601440,10006,-0.102417,0.379517,0.893921,510
9611434,9994,-0.102051,0.378662,0.893677,509
9621417,9983,-0.103271,0.380005,0.894409,512
9631433,10016,-0.102905,0.379761,0.893921,511
9641445,10012,-0.102783,0.379395,0.894897,513
9651422,9977,-0.102417,0.379761,0.895386,511
9661420,9998,-0.102539,0.380127,0.894653,510
9671438,10018,-0.103760,0.379272,0.892578,511
9681430,9992,-0.104126,0.379639,0.894409,509
9691426,9996,-0.103149,0.380005,0.894897,511
9701424,9998,-0.101929,0.380859,0.894775,508
9711445,10021,-0.102173,0.380005,0.895142,509
9721423,9978,-0.102295,0.380127,0.895142,510
9731440,10017,-0.101440,0.379150,0.894897,508
9741460,10020,-0.099976,0.380005,0.893311,511
9751447,9987,-0.102783,0.376343,0.894531,506
9761416,9969,-0.101807,0.376831,0.893555,512
9771439,10023,-0.102051,0.377563,0.894165,506
9781439,10000,-0.102295,0.381104,0.895630,507
9791423,9984,-0.103271,0.380371,0.895508,514
9801436,10013,-0.103027,0.380859,0.894653,514
9811432,9996,-0.103638,0.382080,0.894043,517
9821428,9996,-0.102051,0.380981,0.894775,520
9831431,10003,-0.101074,0.379150,0.892334,520
9841436,10005,-0.101318,0.377686,0.892456,519
9851428,9992,-0.103271,0.376709,0.894653,517
9861443,10015,-0.104004,0.379028,0.894653,514
9871426,9983,-0.103760,0.381104,0.895142,520
9881435,10009,-0.103149,0.380981,0.894775,517
9891441,10006,-0.103149,0.380249,0.895142,520
9901454,10013,-0.101929,0.381104,0.893555,520
9911441,9987,-0.099854,0.380127,0.894653,521
9921435,9994,-0.100342,0.378906,0.894653,519
9931444,10009,-0.102783,0.375854,0.895752,520
9941435,9991,-0.104248,0.378540,0.894287,518
9951429,9994,-0.103027,0.379272,0.895386,520
9961439,10010,-0.102051,0.380737,0.895264,510
9971423,9984,-0.101563,0.380737,0.894897,516
9981433,10010,-0.101074,0.380859,0.893066,515
9991434,10001,-0.101807,0.381592,0.893921,515
10001423,9989,-0.103149,0.380981,0.894653,509
10011441,10018,-0.102905,0.379883,0.895142,516
10021436,9995,-0.101929,0.379883,0.894409,514
10031433,9997,-0.102539,0.379028,0.895020,513
10041438,10005,-0.103516,0.377197,0.894165,508
10051427,9989,-0.103760,0.378296,0.892578,512
10061420,9993,-0.104492,0.379395,0.893311,510
10071440,10020,-0.104004,0.380127,0.895264,511
10081416,9976,-0.101929,0.382446,0.895386,511
10091419,10003,-0.101074,0.381470,0.895386,512
10101427,10008,-0.101074,0.380371,0.893066,508
10111467,10040,-0.103394,0.379517,0.892944,511
10121423,9956,-0.102783,0.379395,0.892456,503
10131436,10013,-0.100952,0.380005,0.893677,511
10141433,9997,-0.102417,0.378418,0.895508,512
10151440,10007,-0.105103,0.378174,0.893311,509
10161427,9987,-0.105347,0.377808,0.895020,510
10171428,10001,-0.103394,0.379272,0.896240,508
10181424,9996,-0.100708,0.383057,0.895874,505
10191423,9999,-0.098999,0.385498,0.894165,508
10201420,9997,-0.100098,0.381958,0.894531,512
10211423,10003,-0.101685,0.375732,0.895264,525
10221430,10007,-0.104004,0.376099,0.894531,509
10231424,9994,-0.105103,0.378296,0.894531,512
10241435,10011,-0.105591,0.378052,0.895264,508
10251417,9982,-0.106323,0.378784,0.895874,512
10261441,10024,-0.102539,0.380981,0.896118,511
10271447,10006,-0.099976,0.382080,0.892212,512
10281429,9982,-0.100464,0.381104,0.892090,511
10291437,10008,-0.100830,0.380737,0.895386,511
10301453,10016,-0.103516,0.379761,0.896606,510
10311440,9987,-0.105835,0.378662,0.895508,509
10321431,9991,-0.107666,0.374512,0.891846,504
10331432,10001,-0.107300,0.377075,0.891357,508
10341444,10012,-0.102539,0.380859,0.892456,491
10351430,9986,-0.097290,0.384521,0.897583,506
10361425,9995,-0.093628,0.385620,0.892212,510
10371431,10006,-0.099854,0.379272,0.899048,503
10381419,9988,-0.106934,0.379395,0.890259,509
10391438,10019,-0.108765,0.376221,0.898682,511
10401439,10001,-0.105957,0.381470,0.895752,508
10411432,9993,-0.100464,0.382080,0.895874,509
10421417,9985,-0.098022,0.379272,0.894043,509
10431441,10024,-0.106689,0.371582,0.892090,509
10441437,9996,-0.106934,0.374756,0.891113,510
10451437,10000,-0.106567,0.378174,0.893433,502
10461436,9999,-0.105103,0.383179,0.896729,512
10471430,9994,-0.100464,0.388794,0.896240,509
10481428,9998,-0.097534,0.387817,0.898437,503
10491431,10003,-0.098633,0.379883,0.891113,504
10501427,9996,-0.102783,0.372681,0.888550,502
10511436,10009,-0.107910,0.370728,0.892212,506
10521439,10003,-0.110107,0.371948,0.894409,510
10531427,9988,-0.106689,0.377319,0.897095,509
10541417,9990,-0.101318,0.385498,0.896240,508
10551440,10023,-0.096313,0.386597,0.891113,511
10561443,10003,-0.096191,0.383301,0.893433,511
10571420,9977,-0.099854,0.380127,0.891357,511
10581419,9999,-0.102173,0.377686,0.893677,508
10591432,10013,-0.105835,0.376221,0.898071,510
10601439,10007,-0.106812,0.377930,0.898804,507
10611435,9996,-0.102905,0.381226,0.893921,512
10621423,9988,-0.099976,0.379639,0.892822,509
10631431,10008,-0.102295,0.378662,0.891113,515
10641424,9993,-0.100952,0.378540,0.890991,514
10651445,10021,-0.102173,0.383423,0.895020,512
10661464,10019,-0.102417,0.383057,0.896484,515
10671442,9978,-0.103149,0.380127,0.898315,518
10681441,9999,-0.103271,0.381714,0.895386,517
10691430,9989,-0.103638,0.377930,0.893311,519
10701421,9991,-0.101440,0.376831,0.890869,515
10711426,10005,-0.104614,0.377930,0.893921,519
10721430,10004,-0.102417,0.380493,0.895752,521
10731418,9988,-0.101563,0.382690,0.895630,520
10741437,10019,-0.103027,0.380981,0.896729,515
10751431,9994,-0.103516,0.381470,0.894287,524
10761420,9989,-0.100220,0.380493,0.894653,521
10771418,9998,-0.101685,0.378174,0.894531,516
10781440,10022,-0.102173,0.378052,0.894653,514
10791431,9991,-0.103638,0.377197,0.895508,523
10801460,10029,-0.105591,0.378906,0.896606,521
10811428,9968,-0.103271,0.380737,0.894897,510
10821445,10017,-0.101929,0.381104,0.892334,513
10831466,10021,-0.102783,0.381714,0.894165,516
10841445,9979,-0.100464,0.382080,0.890381,512
10851436,9991,-0.101074,0.379272,0.894531,517
10861439,10003,-0.103394,0.379150,0.895020,515
10871426,9987,-0.103271,0.379761,0.894287,510
10881443,10017,-0.105103,0.379395,0.893921,510
10891442,9999,-0.105103,0.378906,0.895142,509
10901445,10003,-0.103271,0.379761,0.892578,512
10911444,9999,-0.102295,0.378662,0.893555,505
10921443,9999,-0.103394,0.380493,0.893799,505
10931425,9982,-0.101196,0.383911,0.893433,511
10941434,10009,-0.101196,0.384644,0.895020,511
10951419,9985,-0.100708,0.384766,0.895630,510
10961439,10020,-0.099731,0.383301,0.894531,510
10971432,9993,-0.098755,0.380005,0.893799,511
10981436,10004,-0.107300,0.377075,0.891968,506
10991417,9981,-0.108643,0.375488,0.895874,511
11001419,10002,-0.108154,0.376099,0.898071,512
11011438,10019,-0.104980,0.377930,0.895386,513
11021466,10028,-0.102539,0.379883,0.894043,512
11031443,9977,-0.098389,0.383911,0.892578,514
11041420,9977,-0.096924,0.387085,0.895996,511
11051436,10016,-0.096924,0.386597,0.896118,507
11061430,9994,-0.101929,0.380859,0.895630,512
11071434,10004,-0.106812,0.376343,0.893311,508
11081441,10007,-0.108154,0.373413,0.894531,513
11091432,9991,-0.105835,0.377808,0.896240,511
11101427,9995,-0.103394,0.379272,0.894897,511
11111441,10014,-0.101074,0.380127,0.893433,510
11121419,9978,-0.100464,0.382446,0.893799,506
11131438,10019,-0.099243,0.385132,0.893921,504
11141432,9994,-0.099731,0.383423,0.894165,505
11151440,10008,-0.103760,0.381470,0.894287,510
11161435,9995,-0.105469,0.379395,0.895020,505
11171422,9987,-0.105713,0.376709,0.895142,512
11181442,10020,-0.107300,0.376099,0.894287,507
11191430,9988,-0.106812,0.375244,0.893433,509
11201460,10030,-0.104370,0.378052,0.894531,511
11211444,9984,-0.101440,0.382202,0.893433,510
11221428,9984,-0.098755,0.386719,0.893799,502
11231421,9993,-0.098511,0.387329,0.895630,510
11241435,10014,-0.098267,0.386108,0.895630,506
11251436,10001,-0.102783,0.378906,0.892334,510
11261437,10001,-0.106934,0.373047,0.893677,504
11271429,9992,-0.108521,0.372925,0.891479,511
11281428,9999,-0.106689,0.375854,0.895020,511
11291424,9996,-0.104126,0.379395,0.895508,503
11301435,10011,-0.101196,0.383423,0.895386,512
11311445,10010,-0.101196,0.384155,0.892456,509
11321429,9984,-0.100952,0.383179,0.892212,504
11331428,9999,-0.101196,0.382813,0.894897,512
11341446,10018,-0.100464,0.382568,0.895142,511
11351439,9993,-0.100708,0.380371,0.894287,510
11361432,9993,-0.106323,0.374268,0.892456,509
11371420,9988,-0.108521,0.375366,0.895020,508
11381449,10029,-0.104980,0.379395,0.894897,510
11391428,9979,-0.100220,0.383545,0.895630,508
11401444,10016,-0.099976,0.383423,0.895508,511
11411424,9980,-0.103149,0.383423,0.895386,511
11421438,10014,-0.102417,0.381714,0.893433,509
11431421,9983,-0.103516,0.379150,0.894897,508
11441422,10001,-0.105103,0.376099,0.894409,504
11451421,9999,-0.105713,0.377686,0.895752,509
11461431,10010,-0.103394,0.381592,0.895264,509
11471428,9997,-0.102173,0.380371,0.895874,509
11481441,10013,-0.101685,0.380127,0.893188,510
11491419,9978,-0.101318,0.380127,0.893066,504
11501437,10018,-0.101440,0.382324,0.891602,510
11511426,9989,-0.100220,0.382446,0.894897,509
11521431,10005,-0.104614,0.379395,0.895508,514
11531432,10001,-0.105347,0.378540,0.894531,508
11541434,10002,-0.105469,0.375854,0.892334,508
11551419,9985,-0.105713,0.376099,0.894409,510
11561438,10019,-0.104370,0.379517,0.892822,515
11571418,9980,-0.100464,0.385132,0.893433,518
11581433,10015,-0.099731,0.383301,0.895264,516
11591417,9984,-0.101074,0.379272,0.893555,519
11601445,10028,-0.101685,0.377563,0.892578,515
11611442,9997,-0.101807,0.377808,0.893188,520
11621429,9987,-0.104004,0.379517,0.893066,520
11631443,10014,-0.105713,0.378418,0.896240,523
11641439,9996,-0.105835,0.378784,0.896484,517
11651439,10000,-0.104492,0.379639,0.894287,522
11661419,9980,-0.103149,0.380005,0.892334,523
11671420,10001,-0.099609,0.381592,0.892578,521
11681445,10025,-0.098511,0.382690,0.893799,518
11691436,9991,-0.101807,0.381836,0.894653,520
11701431,9995,-0.104980,0.379639,0.895630,518
11711427,9996,-0.106445,0.378174,0.895142,511
11721439,10012,-0.106323,0.376587,0.894165,511
11731451,10012,-0.104736,0.377563,0.894775,516
11741422,9971,-0.103638,0.380981,0.894897,516
11751455,10033,-0.101318,0.383545,0.895020,515
11761423,9968,-0.101440,0.382690,0.894409,510
11771428,10005,-0.101807,0.380371,0.894653,514
11781430,10002,-0.102173,0.380859,0.894287,514
11791441,10011,-0.102051,0.380249,0.895508,508
11801445,10004,-0.103638,0.380859,0.894897,511
11811444,9999,-0.105103,0.379272,0.895508,512
11821416,9972,-0.106812,0.379272,0.893921,511
11831418,10002,-0.104858,0.379761,0.894043,511
11841441,10023,-0.104492,0.380737,0.894531,511
11851438,9997,-0.101318,0.380493,0.893188,511
11861417,9979,-0.099365,0.381348,0.894043,507
11871436,10019,-0.101318,0.379272,0.892944,510
11881442,10006,-0.102539,0.376831,0.893799,511
11891428,9986,-0.104004,0.378906,0.895142,512
11901424,9996,-0.103638,0.385376,0.895630,512
11911441,10017,-0.102661,0.382813,0.896240,511
11921427,9986,-0.102783,0.378906,0.895142,512
11931429,10002,-0.104858,0.375366,0.894287,500
11941436,10007,-0.104980,0.376953,0.891602,511
11951427,9991,-0.102417,0.382324,0.894653,505
11961424,9997,-0.101074,0.383423,0.896606,512
11971420,9996,-0.100586,0.383423,0.896484,512
11981423,10003,-0.103882,0.380493,0.895630,510
11991433,10010,-0.105225,0.377441,0.893066,505
12001430,9997,-0.105713,0.375977,0.890625,510
12011418,9988,-0.102539,0.380615,0.895386,512
12021424,10006,-0.102051,0.383179,0.897827,512
12031442,10018,-0.102661,0.382690,0.896973,505
12041430,9988,-0.102661,0.379761,0.893799,503
12051438,10008,-0.104004,0.376587,0.892700,510
12061430,9992,-0.103271,0.379639,0.893433,509
12071433,10003,-0.101807,0.382690,0.895020,510
12081449,10016,-0.101685,0.383667,0.897217,510
12091425,9976,-0.102417,0.381226,0.895142,511
12101445,10020,-0.104248,0.378906,0.892822,503
12111440,9995,-0.105347,0.377686,0.892944,510
12121418,9978,-0.103027,0.380005,0.894287,509
12131416,9998,-0.102661,0.380371,0.894409,513
12141430,10014,-0.103027,0.380371,0.894409,510
12151429,9999,-0.103271,0.380249,0.895264,509
12161444,10015,-0.103027,0.380981,0.894287,511
12171441,9997,-0.102295,0.379395,0.893066,509
12181427,9986,-0.104004,0.378784,0.894043,503
12191421,9994,-0.103149,0.380493,0.895020,510
12201429,10008,-0.103271,0.381226,0.895996,508
12211444,10015,-0.102539,0.382690,0.895752,510
12221444,10000,-0.103882,0.380371,0.894409,512
12231425,9981,-0.103516,0.378052,0.894043,505
12241435,10010,-0.102295,0.380127,0.893555,511
12251439,10004,-0.103394,0.379150,0.893799,503
12261436,9997,-0.103638,0.380249,0.893188,505
12271420,9984,-0.104004,0.379883,0.896118,506
12281419,9999,-0.103027,0.381470,0.895508,503
12291434,10015,-0.101807,0.380493,0.895264,509
12301444,10010,-0.102051,0.379150,0.894409,510
12311422,9978,-0.102661,0.379028,0.894287,503
12322416,10994,-0.102051,0.378052,0.895264,507
12331420,9004,-0.102905,0.378540,0.895386,507
12341436,10016,-0.103027,0.379150,0.894531,512
12351418,9982,-0.104248,0.380127,0.894287,507
12361423,10005,-0.104736,0.380127,0.894043,507
12371436,10013,-0.103516,0.380493,0.895508,506
12381439,10003,-0.104004,0.381348,0.895142,514
12391417,9978,-0.102417,0.379028,0.894165,515
12401428,10011,-0.103027,0.378174,0.894287,517
12411437,10009,-0.102905,0.377808,0.894043,511
12421422,9985,-0.103516,0.378662,0.894287,514
12431435,10013,-0.102295,0.379395,0.895264,522
12441439,10004,-0.103638,0.379761,0.895386,521
12451425,9986,-0.103760,0.380249,0.894287,516
12461418,9993,-0.103760,0.379883,0.894043,522
12471421,10003,-0.103271,0.378906,0.894775,514
12481429,10008,-0.103760,0.378296,0.894897,522
12491418,9989,-0.101929,0.378418,0.894043,519
12501417,9999,-0.102173,0.380005,0.895142,519
12511425,10008,-0.102295,0.379883,0.895508,519
12521423,9998,-0.103149,0.380005,0.894165,516
12531423,10000,-0.104736,0.379517,0.893188,516
12541445,10022,-0.104614,0.380005,0.893555,514
12551444,9999,-0.103882,0.380005,0.895264,512
12561422,9978,-0.102783,0.380737,0.895264,515
12571431,10009,-0.101807,0.380859,0.895020,514
12581435,10004,-0.104248,0.379883,0.894409,513
12591441,10006,-0.103149,0.379150,0.893677,512
12601420,9979,-0.102417,0.379272,0.894165,514
12611434,10014,-0.102539,0.380249,0.895142,512
12621423,9989,-0.103760,0.381470,0.895142,508
12631445,10022,-0.103516,0.380127,0.894531,507
12641420,9975,-0.104004,0.380127,0.893799,511
12651441,10021,-0.104736,0.380127,0.894043,509
12661426,9985,-0.102905,0.380005,0.894287,507
12671442,10016,-0.102905,0.380859,0.895264,508
12681419,9977,-0.102905,0.380493,0.895386,508
12691419,10000,-0.102905,0.380127,0.893555,511
12701432,10013,-0.102783,0.380981,0.893921,509
12711439,10007,-0.103394,0.379883,0.894897,510
12721439,10000,-0.103760,0.379761,0.895508,511
12731435,9996,-0.102417,0.380981,0.894653,512
12741423,9988,-0.104248,0.380127,0.894897,510
12751433,10010,-0.103760,0.379517,0.893799,511
12761431,9998,-0.103027,0.377441,0.894531,510
12771445,10014,-0.102783,0.379639,0.894165,511
12781423,9978,-0.103638,0.379761,0.894409,510
12791439,10016,-0.103394,0.380615,0.894531,512
12801430,9991,-0.102783,0.381592,0.895142,511
12811429,9999,-0.103516,0.381104,0.894653,511
12821426,9997,-0.103027,0.380737,0.895264,512
12831465,10039,-0.103760,0.380493,0.895386,512
12841445,9980,-0.104126,0.379639,0.894043,503
12851421,9976,-0.103027,0.379883,0.893311,507
12861427,10006,-0.103149,0.379395,0.893799,508
12871435,10008,-0.103760,0.378662,0.895020,503
12881420,9985,-0.103394,0.382080,0.894165,507
12891422,10002,-0.103638,0.382446,0.893677,508
12901422,10000,-0.103394,0.380005,0.894531,503
12911436,10014,-0.104004,0.379395,0.894775,509
12921443,10007,-0.103638,0.380371,0.895508,511
12931441,9998,-0.102783,0.381714,0.894409,509
12941424,9983,-0.103027,0.380127,0.894653,506
12951417,9993,-0.102783,0.379639,0.895020,507
12961426,10009,-0.103638,0.380493,0.894409,507
12971417,9991,-0.103394,0.380493,0.894653,512
12981435,10018,-0.103638,0.381104,0.894531,509
12991453,10018,-0.102173,0.379639,0.894287,508
13001440,9987,-0.102661,0.380493,0.895020,511
13011453,10013,-0.103149,0.380493,0.893433,509
13021437,9984,-0.102417,0.381104,0.892944,503
13031431,9994,-0.103516,0.380981,0.894531,508
13041436,10005,-0.103027,0.381592,0.895020,505
13051426,9990,-0.102539,0.381592,0.894653,510
13061431,10005,-0.102051,0.380127,0.895752,511
13071419,9988,-0.101929,0.379272,0.895508,510
13081440,10021,-0.102295,0.378540,0.894409,511
13091439,9999,-0.103027,0.379272,0.893555,509
13101439,10000,-0.102417,0.379395,0.894775,511
13111429,9990,-0.102173,0.380249,0.894653,507
13121442,10013,-0.103149,0.381714,0.894287,514
13131435,9993,-0.102905,0.382568,0.894653,515
13141445,10010,-0.103027,0.381836,0.894043,515
13151428,9983,-0.102173,0.381104,0.892822,519
13161434,10006,-0.101318,0.380371,0.894653,518
13171452,10018,-0.102539,0.379517,0.893555,518
13181437,9985,-0.103149,0.378906,0.894043,520
13191418,9981,-0.102783,0.379883,0.895020,520
13201418,10000,-0.104370,0.380127,0.893433,521
13211419,10001,-0.104004,0.380005,0.895264,521
13221426,10007,-0.102661,0.380493,0.894897,521
13231418,9992,-0.102783,0.381226,0.893311,518
13241434,10016,-0.102417,0.381958,0.894409,518
13251963,10529,-0.101440,0.381104,0.895020,522
13261433,9470,-0.103882,0.379639,0.894287,517
13271422,9989,-0.102905,0.379761,0.893799,513
13281444,10022,-0.103394,0.380127,0.894043,515
13291437,9993,-0.103394,0.379761,0.895264,519
13301416,9979,-0.104248,0.380249,0.894409,518
13311438,10022,-0.103271,0.381836,0.893799,514
13321424,9986,-0.102905,0.382202,0.894043,515
13331426,10002,-0.101685,0.380981,0.894287,515
13341431,10005,-0.101563,0.382202,0.893433,515
13351437,10006,-0.102173,0.382813,0.894775,506
13361450,10013,-0.102295,0.381470,0.894531,514
13371420,9970,-0.103516,0.380737,0.892334,510
13381416,9996,-0.104492,0.380249,0.893433,513
13391441,10025,-0.103638,0.380371,0.894043,511
13401434,9993,-0.103271,0.381348,0.893921,511
13411417,9983,-0.103516,0.380981,0.894165,508
13421434,10017,-0.103638,0.382446,0.893677,513
13431446,10012,-0.102905,0.381592,0.894165,512
13441430,9984,-0.102539,0.381836,0.894409,510
13451422,9992,-0.103149,0.381592,0.894653,512
13461428,10006,-0.102295,0.380371,0.895752,503
13471429,10001,-0.103516,0.380005,0.893799,504
13481428,9999,-0.104492,0.380615,0.893799,511
13491433,10005,-0.104492,0.380005,0.894043,510
13501443,10010,-0.103516,0.380615,0.894043,511
13511440,9997,-0.103394,0.381226,0.893311,508
13521416,9976,-0.102661,0.381470,0.893921,504
13531440,10024,-0.102173,0.381470,0.892944,507
13541416,9976,-0.103149,0.380981,0.894043,512
13551460,10044,-0.103394,0.380249,0.894409,504
13561433,9973,-0.103760,0.380737,0.893677,511
13571418,9985,-0.103271,0.381226,0.895020,511
13581465,10047,-0.103760,0.382202,0.894165,512
13591419,9954,-0.102783,0.381836,0.894165,512
13601432,10013,-0.103638,0.380737,0.894653,511
13611419,9987,-0.103149,0.380493,0.895020,511
13621436,10017,-0.102539,0.381470,0.893921,510
13631421,9985,-0.103271,0.382202,0.894287,508
13641437,10016,-0.102661,0.381348,0.895020,510
13651443,10006,-0.104126,0.381104,0.894409,505
13661425,9982,-0.103394,0.381836,0.894775,510
13671417,9992,-0.104736,0.381958,0.894653,510
13681420,10003,-0.103760,0.381470,0.894287,504
13691445,10025,-0.103027,0.381958,0.894531,508
13701421,9976,-0.103882,0.380859,0.894775,506
13711417,9996,-0.102539,0.380737,0.894775,509
13721416,9999,-0.103027,0.381104,0.895508,505
13731422,10006,-0.102661,0.381348,0.894653,507
13741449,10027,-0.102295,0.380737,0.893799,507
13751418,9969,-0.102783,0.379639,0.894043,504
13761472,10054,-0.102905,0.380249,0.893311,503
13771421,9949,-0.101685,0.380493,0.894165,505
13781421,10000,-0.103027,0.379639,0.894775,503
13791420,9999,-0.103516,0.380981,0.894653,502
13801443,10023,-0.103271,0.380859,0.894653,510
13811445,10002,-0.102783,0.381226,0.893311,501
13821445,10000,-0.102783,0.379761,0.894409,507
13831420,9975,-0.102661,0.380249,0.894531,503
13841422,10002,-0.104370,0.380859,0.894409,507
13851419,9997,-0.103271,0.382080,0.894531,493
13861441,10022,-0.103638,0.381958,0.894775,505
13871429,9988,-0.103882,0.381958,0.894897,510
13881445,10016,-0.102905,0.381714,0.894775,510
13891421,9976,-0.102783,0.380737,0.895020,512
13901419,9998,-0.104248,0.380371,0.894287,509
13911434,10015,-0.103271,0.380005,0.894897,511
13921422,9988,-0.102783,0.380005,0.894775,511
13931428,10006,-0.103027,0.380249,0.893066,506
13941424,9996,-0.103516,0.380127,0.893799,509
13951440,10016,-0.102905,0.380859,0.894409,508
13961421,9981,-0.103271,0.382690,0.894043,514
13971436,10015,-0.102905,0.381958,0.893921,515
13981416,9980,-0.103394,0.382446,0.894531,518
13991445,10029,-0.102905,0.380737,0.894897,514
14001426,9981,-0.102905,0.380615,0.894409,519
14011422,9996,-0.104858,0.383301,0.894287,521
14021439,10017,-0.105225,0.381958,0.893677,522
14031433,9994,-0.104736,0.381592,0.894775,521
14041417,9984,-0.103149,0.381958,0.894165,524
14051427,10010,-0.104004,0.381226,0.894409,521
14061430,10003,-0.104736,0.380981,0.895264,522
14071443,10013,-0.103271,0.381470,0.893677,523
14081420,9977,-0.103882,0.381836,0.895386,517
14091436,10016,-0.104370,0.381104,0.893799,521
14101418,9982,-0.105225,0.381958,0.893677,513
14111438,10020,-0.104492,0.381592,0.894043,521
14121445,10007,-0.104492,0.381958,0.893677,519
14131436,9991,-0.105835,0.380249,0.890747,512
14141431,9995,-0.103638,0.378906,0.893311,513
14151431,10000,-0.105713,0.380981,0.897339,513
14161430,9999,-0.104248,0.386353,0.897339,516
14171441,10011,-0.100220,0.385376,0.896362,513
14181435,9994,-0.104858,0.376831,0.889771,509
14191436,10001,-0.106323,0.376465,0.891357,513
14201417,9981,-0.104004,0.382568,0.894165,512
14211441,10024,-0.102905,0.383911,0.895752,513
14221425,9984,-0.103760,0.380859,0.895264,513
14231416,9991,-0.104492,0.379150,0.892822,512
14241430,10014,-0.103027,0.384277,0.894531,511
14251435,10005,-0.101807,0.384766,0.894165,513
14261424,9989,-0.102051,0.383423,0.893311,509
14271420,9996,-0.103516,0.382202,0.893066,512
14281438,10018,-0.104980,0.382446,0.891479,511
14291416,9978,-0.104126,0.383423,0.895142,512
14301420,10004,-0.102783,0.382446,0.894653,509
14311463,10043,-0.103760,0.380249,0.893066,509
14321429,9966,-0.105591,0.380005,0.890991,510
14331431,10002,-0.105225,0.380493,0.893311,512
14341441,10010,-0.103394,0.381836,0.895386,510
14351422,9981,-0.103638,0.383057,0.894897,513
14361431,10009,-0.104004,0.381714,0.893677,512
14371419,9988,-0.102783,0.381714,0.894775,513
14381443,10024,-0.103027,0.380493,0.893921,509
14391416,9973,-0.102051,0.381958,0.893311,510
14401416,10000,-0.105225,0.380737,0.894043,505
14411424,10008,-0.103638,0.380737,0.895020,511
14421430,10006,-0.103882,0.380371,0.896240,511
14431443,10013,-0.102905,0.383301,0.894653,511
14441417,9974,-0.102539,0.382080,0.894531,511
14451443,10026,-0.102783,0.380371,0.893555,510
14461427,9984,-0.101563,0.381470,0.893677,510
14471440,10013,-0.102661,0.381104,0.894165,512
14481444,10004,-0.103271,0.380127,0.893066,509
14491424,9980,-0.103516,0.380249,0.893799,514
14501457,10033,-0.103638,0.380737,0.893555,509
14511445,9988,-0.103149,0.382324,0.894409,509
14521419,9974,-0.102783,0.380493,0.894165,508
14531445,10026,-0.102783,0.381836,0.893188,505
14541436,9991,-0.104004,0.383423,0.894531,510
14551438,10002,-0.102173,0.382813,0.894653,509
14561433,9995,-0.103149,0.382324,0.893799,511
14571436,10003,-0.102783,0.382568,0.894531,510
14581444,10008,-0.102905,0.382690,0.893066,512
14591437,9993,-0.101807,0.382324,0.895020,510
14601442,10005,-0.102783,0.380859,0.894775,510
14611436,9994,-0.102905,0.380859,0.894287,509
14621420,9984,-0.103271,0.380615,0.893433,511
14631441,10021,-0.103394,0.382324,0.894409,509
14641439,9998,-0.103271,0.381958,0.895264,508
14651437,9998,-0.102661,0.383301,0.894531,510
14661450,10013,-0.102783,0.383179,0.894165,509
14671429,9979,-0.103149,0.380615,0.895020,506
14681432,10003,-0.102417,0.379761,0.893188,509
14691425,9993,-0.102051,0.379639,0.893677,512
14701440,10015,-0.102417,0.379639,0.893921,510
14711416,9976,-0.102051,0.379395,0.893921,508
14721438,10022,-0.103027,0.381958,0.892944,505
14731445,10007,-0.103760,0.383179,0.894531,512
14741442,9997,-0.103516,0.383545,0.895386,515
14751424,9982,-0.103516,0.384277,0.894897,512
14761430,10006,-0.101929,0.382935,0.893433,509
14771418,9988,-0.103149,0.381592,0.893555,512
14781442,10024,-0.103271,0.381348,0.894165,518
14791432,9990,-0.102417,0.380859,0.893921,519
14801437,10005,-0.102905,0.380371,0.892578,520
14811441,10004,-0.102539,0.381714,0.893188,521
14821419,9978,-0.104248,0.382446,0.895020,517
14831428,10009,-0.102661,0.384277,0.895142,517
14841423,9995,-0.103027,0.382324,0.893921,521
14851434,10011,-0.103638,0.379761,0.892456,521
14861449,10015,-0.103882,0.379395,0.892456,514
14871440,9991,-0.102905,0.380737,0.893433,521
14881439,9999,-0.102295,0.383057,0.895142,514
14891422,9983,-0.103760,0.383423,0.894165,522
14901426,10004,-0.103516,0.382080,0.894653,519
14911435,10009,-0.103394,0.381348,0.894653,517
14921435,10000,-0.103027,0.381348,0.893433,518
14931435,10000,-0.102051,0.382202,0.894043,518
14941430,9995,-0.101807,0.382080,0.894653,517
14951420,9990,-0.103394,0.382813,0.895264,514
14961432,10012,-0.102539,0.383423,0.895386,517
14971421,9989,-0.103516,0.380981,0.894531,514
14981433,10012,-0.104004,0.379883,0.893799,514
14991426,9993,-0.103516,0.379883,0.893066,512
15001434,10008,-0.102661,0.382568,0.893311,509
15011442,10008,-0.102539,0.383911,0.895142,510
15021418,9976,-0.103271,0.384155,0.894409,509
15031442,10024,-0.103149,0.384277,0.893555,512
15041441,9999,-0.103516,0.381226,0.893799,512
15051455,10014,-0.102417,0.382935,0.893799,507
15061416,9961,-0.102173,0.383911,0.895264,512
15071441,10025,-0.103027,0.382446,0.893921,511
15081431,9990,-0.103638,0.380005,0.895020,512
15091423,9992,-0.103882,0.379517,0.893311,506
15101437,10014,-0.103760,0.380005,0.892456,512
15111427,9990,-0.101563,0.383789,0.894897,512
15121444,10017,-0.102051,0.382690,0.893921,506
15131425,9981,-0.103149,0.381714,0.893921,510
15141444,10019,-0.103394,0.381104,0.895020,511
15151417,9973,-0.104614,0.380615,0.894287,506
15161431,10014,-0.103516,0.380005,0.893921,512
15171440,10009,-0.103516,0.381226,0.894165,509
15181444,10004,-0.102783,0.382568,0.894531,510
15191436,9992,-0.103027,0.383179,0.895020,511
15201421,9985,-0.103516,0.382568,0.894409,510
15211438,10017,-0.102783,0.382202,0.893188,511
15221429,9991,-0.102417,0.382568,0.893555,512
15231452,10023,-0.102417,0.382080,0.894043,506
15241430,9978,-0.102661,0.381348,0.894165,507
15251441,10011,-0.102783,0.380615,0.892944,510
15261445,10004,-0.103149,0.380127,0.893433,501
15271433,9988,-0.102905,0.383057,0.894653,512
15281423,9990,-0.102905,0.383789,0.894287,504
15291433,10010,-0.102661,0.383301,0.892456,510
15301443,10010,-0.103027,0.382935,0.892944,510
15311428,9985,-0.103149,0.382324,0.893311,511
15321435,10007,-0.104004,0.383179,0.893799,511
15331419,9984,-0.101807,0.381836,0.893555,507
15341433,10014,-0.104126,0.380737,0.892456,509
15351443,10010,-0.103149,0.379395,0.892700,504
15361442,9999,-0.103882,0.379883,0.892944,510
15371426,9984,-0.103149,0.380005,0.894043,509
15381433,10007,-0.101929,0.382080,0.897095,507
15391445,10012,-0.086914,0.382202,0.883057,509
15401473,10028,-0.088989,0.380249,0.910156,510
15411446,9973,-0.113037,0.395874,0.926392,502
15421445,9999,-0.110596,0.410156,0.888428,510
15431427,9982,-0.135498,0.361450,0.847656,509
15441442,10015,-0.102905,0.337646,0.871338,512
15451445,10003,-0.087891,0.338745,0.908081,514
15461437,9992,-0.081421,0.388062,0.916138,514
15471442,10005,-0.054443,0.436890,0.899048,514
15481427,9985,-0.092529,0.421387,0.893066,514
15491428,10001,-0.129272,0.353516,0.897339,516
15501419,9991,-0.125244,0.358154,0.898804,527
15511429,10010,-0.098877,0.387939,0.897949,520
15521416,9987,-0.089600,0.397949,0.898193,518
15531445,10029,-0.091064,0.396729,0.881592,520
15541436,9991,-0.110718,0.368164,0.897217,522
15551423,9987,-0.110229,0.379028,0.895630,517
15561425,10002,-0.105347,0.380371,0.890869,516
15571425,10000,-0.116089,0.381348,0.894653,522
15581456,10031,-0.096069,0.397095,0.889771,515
15591421,9965,-0.088379,0.396606,0.894897,524
15601444,10023,-0.057007,0.457153,0.862671,522
15611439,9995,-0.090332,0.376343,0.870728,522
15621438,9999,-0.139526,0.304565,0.910400,519
15631416,9978,-0.141602,0.332642,0.904663,514
15641418,10002,-0.116089,0.373169,0.910278,517
15651445,10027,-0.084839,0.402222,0.914917,518
15661431,9986,-0.086914,0.385864,0.896362,517
15671432,10001,-0.100098,0.373291,0.873901,517
15681424,9992,-0.100464,0.380737,0.867798,511
15691418,9994,-0.108765,0.381592,0.887695,513
15701437,10019,-0.107910,0.395386,0.908081,513
15711429,9992,-0.101074,0.391602,0.902954,512
15721430,10001,-0.107056,0.379639,0.893921,505
15731426,9996,-0.100464,0.376831,0.886108,511
15741416,9990,-0.095337,0.382202,0.880615,510
15751439,10023,-0.098633,0.384277,0.886230,510
15761447,10008,-0.097656,0.396118,0.895752,507
15771438,9991,-0.104858,0.394287,0.900635,508
15781419,9981,-0.104614,0.387207,0.895874,508
15791442,10023,-0.100708,0.386230,0.890015,503
15801430,9988,-0.103271,0.379883,0.889526,505
15811419,9989,-0.095947,0.382568,0.892334,504
15821443,10024,-0.100098,0.387329,0.894409,510
15831424,9981,-0.101929,0.387207,0.896362,504
15841429,10005,-0.102173,0.386353,0.894409,505
15851429,10000,-0.101807,0.390503,0.892944,511
15861433,10004,-0.102661,0.385254,0.890991,511
15871433,10000,-0.096191,0.386353,0.894653,511
15881424,9991,-0.099854,0.384277,0.891602,507
15891420,9996,-0.101563,0.382935,0.891113,510
15901416,9996,-0.104248,0.383301,0.891724,503
15911445,10029,-0.106323,0.381470,0.894409,510
15921442,9997,-0.099609,0.389038,0.893555,511
15931426,9984,-0.097168,0.389404,0.893677,510
15941429,10003,-0.097534,0.386597,0.890381,508
15951430,10001,-0.098877,0.385254,0.889648,508
15961428,9998,-0.100586,0.385010,0.891357,510
15971417,9989,-0.103516,0.383423,0.891724,510
15981445,10028,-0.103516,0.386597,0.894775,508
15991431,9986,-0.103027,0.386108,0.895264,507
16001435,10004,-0.102661,0.386597,0.892944,509
16011443,10008,-0.099365,0.386597,0.890991,508
16021424,9981,-0.100464,0.386841,0.891235,509
16031438,10014,-0.099487,0.388550,0.891724,505
16041444,10006,-0.102417,0.388062,0.893311,508
16051425,9981,-0.103394,0.387817,0.893799,510
16061422,9997,-0.101196,0.385620,0.894165,508
16071432,10010,-0.102051,0.382690,0.892334,510
16081439,10007,-0.103760,0.382690,0.890869,510
16091434,9995,-0.101074,0.386108,0.891113,508
16101417,9983,-0.103882,0.385620,0.891724,509
16111445,10028,-0.102783,0.387207,0.892456,508
16121425,9980,-0.101196,0.389404,0.894409,509
16131439,10014,-0.103638,0.387939,0.892578,502
16141417,9978,-0.101685,0.387817,0.890869,509
16151419,10002,-0.103638,0.387451,0.891113,509
16161439,10020,-0.103638,0.386719,0.891235,510
16171424,9985,-0.103149,0.386353,0.891724,509
16181439,10015,-0.105103,0.385376,0.892212,511
16191427,9988,-0.104858,0.384155,0.892334,506
16201418,9991,-0.101685,0.386108,0.890015,508
16211435,10017,-0.101318,0.385132,0.891479,510
16221428,9993,-0.100098,0.386963,0.891724,506
16231444,10016,-0.102051,0.388672,0.891602,508
16241418,9974,-0.102905,0.388916,0.891602,515
16251445,10027,-0.105103,0.386108,0.892456,515
16261418,9973,-0.104370,0.386353,0.891724,514
16271433,10015,-0.103149,0.384766,0.892822,516
16281419,9986,-0.102295,0.386963,0.891357,515
16291429,10010,-0.101807,0.386108,0.892334,521
16301440,10011,-0.102051,0.386963,0.890381,522
16311441,10001,-0.104980,0.387573,0.891602,521
16321431,9990,-0.104614,0.387817,0.891235,520
16331427,9996,-0.103149,0.390991,0.891113,523
16341429,10002,-0.103027,0.387939,0.893555,523
16351434,10005,-0.103027,0.386353,0.891968,521
16361426,9992,-0.102417,0.385986,0.890991,518
16371435,10009,-0.101440,0.383179,0.892456,521
16381422,9987,-0.103516,0.384766,0.890991,516
16391444,10022,-0.104248,0.386475,0.891479,519
16401416,9972,-0.104004,0.388062,0.891479,518
16411422,10006,-0.103394,0.387939,0.892212,518
16421429,10007,-0.102661,0.387939,0.891357,512
16431430,10001,-0.103394,0.387085,0.891479,517
16441422,9992,-0.103760,0.386963,0.890381,517
16451429,10007,-0.103638,0.386475,0.890991,511
16461445,10016,-0.103516,0.386475,0.891602,514
16471421,9976,-0.103516,0.386353,0.891357,512
16481437,10016,-0.102295,0.386597,0.891479,514
16491443,10006,-0.102539,0.386719,0.891724,511
16501419,9976,-0.103027,0.387695,0.891357,510
16511433,10014,-0.104736,0.387939,0.891479,510
16521471,10038,-0.104126,0.388184,0.891479,508
16531417,9946,-0.103760,0.387695,0.892212,510
16541437,10020,-0.104004,0.387451,0.891113,508
16551441,10004,-0.102539,0.386353,0.891357,504
16561424,9983,-0.102051,0.385376,0.891357,508
16571419,9995,-0.103638,0.385986,0.891724,508
16581421,10002,-0.102661,0.386230,0.890869,508
16591430,10009,-0.104980,0.387695,0.890869,510
16601440,10010,-0.103882,0.387695,0.892456,511
16611442,10002,-0.103394,0.386963,0.892090,511
16621426,9984,-0.102661,0.386475,0.891479,507
16631435,10009,-0.102905,0.385254,0.891357,512
16641444,10009,-0.102173,0.385254,0.890991,512
16651432,9988,-0.102539,0.385986,0.891968,515
16661421,9989,-0.103516,0.387085,0.892334,510
16671419,9998,-0.102905,0.387817,0.892090,506
16681421,10002,-0.101807,0.387695,0.891602,509
16691430,10009,-0.103394,0.386353,0.891602,511
16701431,10001,-0.102783,0.386475,0.891479,511
16711440,10009,-0.102295,0.385864,0.891846,511
16721425,9985,-0.103882,0.385986,0.891479,512
16731444,10019,-0.102539,0.386597,0.891113,510
16741424,9980,-0.101807,0.387451,0.891235,509
16751418,9994,-0.101807,0.386963,0.892700,510
16761434,10016,-0.101807,0.387329,0.891724,508
16771416,9982,-0.103149,0.387939,0.891602,505
16781421,10005,-0.102051,0.387451,0.891968,510
16791423,10002,-0.103394,0.387573,0.892944,510
16801426,10003,-0.103027,0.386597,0.891357,510
16811439,10013,-0.102905,0.386353,0.891602,505
16821445,10006,-0.102295,0.385986,0.891968,510
16831439,9994,-0.102417,0.386963,0.891479,507
16841429,9990,-0.101074,0.385742,0.891479,510
16851421,9992,-0.102539,0.387817,0.893066,509
16861436,10015,-0.103027,0.386597,0.891724,509
16871449,10013,-0.102905,0.386841,0.891235,511
16881434,9985,-0.103271,0.386597,0.891235,506
16891444,10010,-0.103149,0.386963,0.891846,508
16901433,9989,-0.102051,0.385376,0.891113,507
16911418,9985,-0.102905,0.386230,0.890991,508
16921422,10004,-0.102661,0.386963,0.891846,508
16931435,10013,-0.102539,0.387329,0.891968,509
16941440,10005,-0.102783,0.386353,0.891479,508
16951443,10003,-0.103394,0.387817,0.892700,511
16961437,9994,-0.101440,0.388062,0.892578,509
16971441,10004,-0.103149,0.385864,0.893799,504
16981440,9999,-0.102051,0.386597,0.892212,503
16991442,10002,-0.102295,0.385498,0.891724,511
17001431,9989,-0.102783,0.385254,0.891235,507
17011443,10012,-0.102661,0.386230,0.893066,510
17021419,9976,-0.102173,0.386841,0.892456,510
17031420,10001,-0.102295,0.387695,0.891479,506
17041445,10025,-0.103638,0.388062,0.890869,507
17051432,9987,-0.103149,0.387817,0.892090,512
17061424,9992,-0.103516,0.386719,0.890747,513
17071419,9995,-0.102417,0.388306,0.891602,516
17081445,10026,-0.102051,0.387939,0.891113,518
17091429,9984,-0.101807,0.387695,0.891113,519
17101432,10003,-0.102905,0.388306,0.892456,519
17111426,9994,-0.102783,0.389038,0.892456,517
17121423,9997,-0.103638,0.386841,0.891846,516
17131422,9999,-0.103149,0.386841,0.891724,521
17141418,9996,-0.103027,0.385986,0.891846,523
17151416,9998,-0.102051,0.385620,0.891968,518
17161419,10003,-0.102173,0.385742,0.892700,526
17171440,10021,-0.101807,0.385498,0.891968,522
17181422,9982,-0.102417,0.385986,0.890991,514
17191418,9996,-0.103271,0.386108,0.891724,518
17201445,10027,-0.104248,0.387695,0.891846,519
17211718,10273,-0.102783,0.388184,0.891235,514
17221432,9714,-0.103271,0.387939,0.892578,520
17231441,10009,-0.104126,0.388306,0.891968,518
17241458,10017,-0.103027,0.387207,0.891724,516
17251431,9973,-0.104004,0.385376,0.891724,516
17261425,9994,-0.103638,0.384766,0.891602,515
17271430,10005,-0.102661,0.385132,0.890625,515
17281432,10002,-0.102783,0.386475,0.891968,514
17291416,9984,-0.103271,0.386841,0.891235,510
17301436,10020,-0.103516,0.388672,0.891846,512
17311417,9981,-0.104370,0.388184,0.891846,508
17321429,10012,-0.104858,0.388794,0.890991,512
17331439,10010,-0.104370,0.388428,0.891602,511
17341434,9995,-0.103149,0.387817,0.891968,511
17351416,9982,-0.102173,0.386841,0.890991,510
17361421,10005,-0.102295,0.386230,0.890503,512
17371420,9999,-0.101929,0.385498,0.890991,512
17381432,10012,-0.103149,0.385620,0.889771,507
17391442,10010,-0.105347,0.388916,0.891235,511
17401442,10000,-0.104126,0.390137,0.894897,506
17412264,10822,-0.102417,0.389282,0.895386,511
17421424,9160,-0.101807,0.387451,0.891602,510
17431444,10020,-0.102295,0.384399,0.891602,511
17441416,9972,-0.101807,0.383057,0.889404,506
17451421,10005,-0.102905,0.385742,0.890137,511
17461417,9996,-0.104126,0.388184,0.890991,504
17471434,10017,-0.105835,0.391724,0.892334,503
17481418,9984,-0.104980,0.393311,0.893677,506
17491439,10021,-0.104126,0.392212,0.893433,508
17501434,9995,-0.104126,0.386841,0.890381,511
17511418,9984,-0.103638,0.384521,0.889893,504
17521436,10018,-0.101807,0.382202,0.890381,511
17531425,9989,-0.101318,0.382446,0.891357,512
17541433,10008,-0.101318,0.384888,0.892456,510
17551422,9989,-0.101929,0.388428,0.892700,511
17561426,10004,-0.103516,0.387573,0.891479,508
17571423,9997,-0.103882,0.387573,0.891846,508
17581442,10019,-0.103149,0.387207,0.891357,512
17591447,10005,-0.103394,0.387573,0.892090,512
17601418,9971,-0.102295,0.386230,0.891357,511
17611422,10004,-0.102905,0.386475,0.891235,505
17621421,9999,-0.103760,0.387695,0.891113,508
17631436,10015,-0.104004,0.388062,0.892700,501
17641439,10003,-0.103516,0.389038,0.892334,509
17651446,10007,-0.103638,0.388794,0.892944,506
17661442,9996,-0.101807,0.387085,0.892578,505
17671442,10000,-0.102173,0.385986,0.892944,507
17681438,9996,-0.102905,0.384277,0.892212,508
17691434,9996,-0.101440,0.384277,0.890869,509
17701422,9988,-0.101685,0.384644,0.890381,509
17713710,12288,-0.102661,0.385376,0.889893,508
17723626,9916,-0.103638,0.388306,0.891357,503
17731444,7818,-0.103760,0.389526,0.891602,509
17741429,9985,-0.103516,0.388916,0.891846,509
17751434,10005,-0.104614,0.389404,0.892944,508
17761430,9996,-0.104492,0.389160,0.891235,503
17771444,10014,-0.104614,0.388428,0.891357,509
17781421,9977,-0.102539,0.387085,0.891113,509
17791434,10013,-0.103638,0.385498,0.891357,510
17801444,10010,-0.103149,0.385986,0.891235,510
17811422,9978,-0.102783,0.386108,0.891113,503
17821441,10019,-0.103394,0.386841,0.892578,509
17831432,9991,-0.103149,0.387451,0.892822,509
17841438,10006,-0.103760,0.386841,0.891479,506
17851426,9988,-0.103516,0.386963,0.891968,511
17861420,9994,-0.102539,0.386597,0.891235,509
17871417,9997,-0.103271,0.386353,0.891113,507
17881418,10001,-0.102417,0.386475,0.891968,510
17891440,10022,-0.102295,0.386963,0.892090,511
17901420,9980,-0.102173,0.386841,0.893921,518
17911439,10019,-0.102539,0.386230,0.892334,521
17921445,10006,-0.102783,0.386475,0.892456,523
17931429,9984,-0.103760,0.386597,0.891479,514
17941424,9995,-0.103271,0.386597,0.891479,524
17951437,10013,-0.103760,0.386475,0.891602,517
17961433,9996,-0.103271,0.386963,0.892090,521
17971443,10010,-0.103516,0.385986,0.891602,522
17981417,9974,-0.103027,0.386108,0.891357,523
17991434,10017,-0.103027,0.387573,0.891602,520
18001453,10019,-0.102417,0.386475,0.892456,520
18011440,9987,-0.103760,0.386353,0.891357,518
18021425,9985,-0.103638,0.387573,0.890869,519
18031424,9999,-0.103760,0.386475,0.891602,519
18041437,10013,-0.104492,0.387207,0.892456,517
18051422,9985,-0.103271,0.386108,0.891846,517
18061419,9997,-0.102661,0.386841,0.890991,515
18071417,9998,-0.103638,0.386353,0.892212,516
18081416,9999,-0.103638,0.387085,0.890625,508
18091416,10000,-0.104248,0.386963,0.891602,513
18101435,10019,-0.103271,0.386963,0.891846,514
18111441,10006,-0.103149,0.387695,0.891235,514
18121427,9986,-0.103760,0.387695,0.892090,513
18131437,10010,-0.103149,0.388062,0.891357,512
18141434,9997,-0.103760,0.386963,0.891113,512
18151442,10008,-0.104492,0.388062,0.890991,509
18161431,9989,-0.104492,0.388062,0.891357,509
18171443,10012,-0.104004,0.387085,0.891235,505
18181433,9990,-0.103149,0.387329,0.890991,510
18191445,10012,-0.103271,0.387695,0.892334,503
18201436,9991,-0.104248,0.387451,0.890991,511
18211429,9993,-0.103394,0.387451,0.890747,508
18221416,9987,-0.103638,0.387817,0.890869,510
18231432,10016,-0.103271,0.388550,0.891357,510
18241419,9987,-0.103516,0.388794,0.891235,512
18251435,10016,-0.102905,0.387329,0.893311,504
18261445,10010,-0.103394,0.387329,0.890747,511
18271443,9998,-0.103638,0.386719,0.891724,510
18281443,10000,-0.102905,0.385376,0.892090,511
18291435,9992,-0.102905,0.386597,0.892456,509
18301426,9991,-0.102539,0.386719,0.891846,508
18311444,10018,-0.102539,0.388184,0.891357,509
18321436,9992,-0.103027,0.387695,0.892212,510
18331428,9992,-0.103516,0.386719,0.890991,505
18341445,10017,-0.104004,0.387207,0.890015,512
18351433,9988,-0.105225,0.387573,0.890991,510
18361436,10003,-0.103760,0.388916,0.890747,506
18371435,9999,-0.105225,0.388916,0.891235,510
18381433,9998,-0.104492,0.388428,0.893188,507
18391430,9997,-0.101318,0.386475,0.893555,504
18401423,9993,-0.100830,0.385132,0.891846,510
18411433,10010,-0.102539,0.384644,0.891113,507
18421441,10008,-0.102905,0.384521,0.890869,509
18431439,9998,-0.102905,0.387695,0.891724,507
18441430,9991,-0.103882,0.389404,0.891113,503
18451438,10008,-0.103516,0.390015,0.892700,507
18461428,9990,-0.104248,0.388550,0.892700,506
18471441,10013,-0.102783,0.388184,0.891846,510
18481438,9997,-0.104004,0.387573,0.891113,509
18491431,9993,-0.103271,0.386475,0.890869,507
18501444,10013,-0.102783,0.386230,0.890747,504
18511440,9996,-0.103027,0.387451,0.892090,507
18521431,9991,-0.102417,0.388672,0.892090,503
18531432,10001,-0.103149,0.387451,0.891113,508
18541419,9987,-0.104492,0.388550,0.891357,509
18551443,10024,-0.104004,0.386963,0.890503,506
18561420,9977,-0.104004,0.386230,0.890137,508
18571416,9996,-0.103271,0.387085,0.891724,503
18581420,10004,-0.102661,0.388428,0.892456,509
18591426,10006,-0.103027,0.387451,0.891724,507
18601431,10005,-0.103882,0.387451,0.891724,509
18611422,9991,-0.104126,0.385864,0.890869,508
18621423,10001,-0.102783,0.386353,0.891846,509
18631435,10012,-0.102783,0.386963,0.891357,508
18641421,9986,-0.101318,0.388184,0.891968,508
18651440,10019,-0.102661,0.389282,0.892700,509
18661445,10005,-0.102051,0.387695,0.891846,509
18671431,9986,-0.102295,0.386841,0.890991,504
18681432,10001,-0.102783,0.386475,0.891357,503
18691420,9988,-0.103149,0.386719,0.890869,509
18701423,10003,-0.102539,0.387695,0.892944,507
18711427,10004,-0.102417,0.387329,0.892578,512
18721431,10004,-0.103760,0.388184,0.891357,509
18731428,9997,-0.102661,0.387939,0.891357,510
18741441,10013,-0.102539,0.386719,0.891113,513
18751416,9975,-0.102661,0.387573,0.891724,511
18761429,10013,-0.101074,0.387451,0.891846,518
18771416,9987,-0.102173,0.386841,0.892090,515
18781446,10030,-0.102661,0.385742,0.891113,515
18791434,9988,-0.102417,0.386230,0.891235,516
18801420,9986,-0.103027,0.386108,0.891479,520
18811434,10014,-0.103027,0.387207,0.891479,515
18821444,10010,-0.102417,0.387817,0.892700,516
18831422,9978,-0.102417,0.387817,0.890991,521
18841442,10020,-0.102051,0.387817,0.891724,521
18851438,9996,-0.102783,0.386108,0.891235,521
18861416,9978,-0.102539,0.387207,0.891479,520
18871418,10002,-0.102539,0.387085,0.890747,513
18881416,9998,-0.102783,0.387695,0.891724,517
18891436,10020,-0.103638,0.388672,0.892334,517
18901430,9994,-0.102905,0.388428,0.891235,516
18911436,10006,-0.103760,0.388062,0.891235,515
18921440,10004,-0.103516,0.387085,0.891724,508
18931421,9981,-0.101929,0.388550,0.891113,509
18941441,10020,-0.101807,0.387451,0.891724,513
18951437,9996,-0.102051,0.387817,0.891602,505
18961425,9988,-0.103027,0.387451,0.890747,512
18971458,10033,-0.102905,0.388184,0.890625,511
18981462,10004,-0.102417,0.388062,0.891235,510
18991420,9958,-0.102051,0.388306,0.891846,511
19001418,9998,-0.101807,0.387817,0.891724,508
19011425,10007,-0.102051,0.388428,0.891113,510
19021436,10011,-0.102051,0.388306,0.892212,509
19031441,10005,-0.100952,0.388184,0.891113,507
19041436,9995,-0.102539,0.387817,0.891602,511
19051444,10008,-0.101929,0.387817,0.891968,506
19061419,9975,-0.102539,0.386841,0.891846,510
19071419,10000,-0.103027,0.388306,0.891846,511
19081421,10002,-0.103882,0.388184,0.890991,510
19091428,10007,-0.103516,0.387329,0.890747,509
19101430,10002,-0.105225,0.387451,0.890747,507
19111433,10003,-0.105103,0.388672,0.890747,512
19121426,9993,-0.104980,0.388916,0.890259,511
19131429,10003,-0.104614,0.389160,0.890869,507
19141419,9990,-0.104614,0.389282,0.891113,506
19151437,10018,-0.104980,0.388916,0.891113,509
19161424,9987,-0.105347,0.388916,0.891357,509
19171436,10012,-0.104492,0.387939,0.890869,508
19181430,9994,-0.104858,0.388550,0.891846,506
19191427,9997,-0.103760,0.388672,0.891968,506
19201435,10008,-0.101929,0.387695,0.891479,511
19211444,10009,-0.102295,0.386108,0.890991,512
19221437,9993,-0.102661,0.385864,0.889526,500
19231418,9981,-0.103638,0.385376,0.889282,511
19241418,10000,-0.101807,0.386963,0.891846,505
19251441,10023,-0.102539,0.385986,0.892334,511
19261420,9979,-0.103394,0.386963,0.892578,510
19271444,10024,-0.103760,0.385864,0.891968,504
19281416,9972,-0.103638,0.385986,0.890991,509
19291428,10012,-0.104248,0.387329,0.891235,511
19301417,9989,-0.105103,0.386841,0.889771,508
19311418,10001,-0.104248,0.388306,0.891602,503
19321444,10026,-0.104492,0.388306,0.890625,510
19331433,9989,-0.104980,0.388062,0.890991,508
19341444,10011,-0.104248,0.387085,0.891724,508
19351440,9996,-0.104492,0.387451,0.891357,509
19361431,9991,-0.104614,0.388306,0.891357,510
19371447,10016,-0.104248,0.389038,0.891724,508
19381439,9992,-0.104248,0.387451,0.891113,509
19391440,10001,-0.103882,0.386597,0.890869,509
19401432,9992,-0.105103,0.387085,0.890747,503
19411421,9989,-0.104370,0.387329,0.891724,503
19421427,10006,-0.104370,0.389526,0.891724,508
19431425,9998,-0.103638,0.388794,0.891724,508
19441428,10003,-0.104004,0.388184,0.891846,508
19451440,10012,-0.103394,0.389282,0.891846,508
19461429,9989,-0.104370,0.387451,0.891602,512
19471433,10004,-0.104004,0.388062,0.891479,509
19481440,10007,-0.102051,0.387573,0.891479,510
19491430,9990,-0.102051,0.386475,0.891357,511
19501441,10011,-0.101929,0.386475,0.891235,510
19511436,9995,-0.101929,0.385498,0.890747,509
19521438,10002,-0.102783,0.386597,0.890381,510
19531426,9988,-0.102539,0.386841,0.891357,509
19541432,10006,-0.102539,0.387573,0.891479,508
19551427,9995,-0.103271,0.389282,0.891235,510
19561462,10035,-0.103394,0.389404,0.891846,512
19571468,10006,-0.102417,0.387817,0.892090,512
19581443,9975,-0.103516,0.388306,0.890747,508
19591435,9992,-0.103149,0.388550,0.891357,509
19601417,9982,-0.102417,0.387817,0.892456,514
19611417,10000,-0.102417,0.387207,0.891602,517
19621420,10003,-0.102539,0.387329,0.891724,518
19631436,10016,-0.101807,0.386230,0.891968,518
19641430,9994,-0.103271,0.386719,0.891968,520
19651424,9994,-0.102295,0.387573,0.891968,514
19661433,10009,-0.103394,0.387207,0.891602,514
19671423,9990,-0.101563,0.386963,0.891602,520
19681424,10001,-0.102051,0.386597,0.891113,513
19691430,10006,-0.102539,0.385864,0.890991,520
19701437,10007,-0.103638,0.386353,0.891724,515
19711430,9993,-0.103394,0.388062,0.890747,515
19721435,10005,-0.104370,0.388794,0.891479,517
19731422,9987,-0.103882,0.388550,0.891235,516
19741438,10016,-0.102661,0.387451,0.891968,515
19751420,9982,-0.103516,0.387939,0.891235,514
19761485,10065,-0.103271,0.386597,0.891113,514
19771459,9974,-0.102905,0.386597,0.890259,510
19781416,9957,-0.103516,0.386108,0.890625,512
19791429,10013,-0.103638,0.387329,0.891968,508
19801429,10000,-0.102661,0.387817,0.892212,510
19811434,10005,-0.103394,0.387939,0.892456,510
19821439,10005,-0.103394,0.387817,0.891968,508
19831433,9994,-0.102539,0.387817,0.892334,507
19841422,9989,-0.102539,0.385620,0.892334,508
19851431,10009,-0.102783,0.384155,0.891357,504
19861439,10008,-0.102295,0.384399,0.891479,511
19871422,9983,-0.101929,0.383789,0.892090,511
19881418,9996,-0.102905,0.384155,0.892212,511
19891440,10022,-0.102539,0.384277,0.892090,510
19901419,9979,-0.106934,0.385376,0.889648,509
19911432,10013,-0.105591,0.387939,0.892212,504
19921432,10000,-0.104858,0.387085,0.892456,510
19931442,10010,-0.104126,0.388428,0.891968,513
19941425,9983,-0.105469,0.388550,0.891357,508
19951432,10007,-0.104736,0.390259,0.892090,508
19961449,10017,-0.105469,0.390015,0.890991,510
19971421,9972,-0.105347,0.390625,0.891357,507
19981426,10005,-0.104492,0.390259,0.891113,509
19991442,10016,-0.104004,0.390869,0.891235,507
20001416,9974,-0.103638,0.390015,0.892090,510
20011429,10013,-0.103638,0.387573,0.891479,506
20021427,9998,-0.104004,0.386963,0.891968,509
20031445,10018,-0.103638,0.387207,0.891479,509
20041433,9988,-0.102905,0.386841,0.891113,509
20051441,10008,-0.102783,0.387451,0.891235,510
20061426,9985,-0.102417,0.385742,0.892212,509
20071426,10000,-0.104614,0.385498,0.890869,505
20081425,9999,-0.103149,0.386353,0.891724,511
20091431,10006,-0.103638,0.386108,0.891479,511
20101441,10010,-0.103394,0.385986,0.891479,510
20111425,9984,-0.103882,0.388062,0.891235,512
20121437,10012,-0.103394,0.387207,0.892578,511
20131418,9981,-0.104858,0.386841,0.893066,503
20141430,10012,-0.103149,0.386597,0.890259,510
20151451,10021,-0.103882,0.385742,0.891235,510
20161445,9994,-0.103760,0.386230,0.890503,511
20171423,9978,-0.104126,0.386597,0.891724,509
20181430,10007,-0.105225,0.386719,0.891113,502
20191432,10002,-0.104492,0.387085,0.892822,502
20201443,10011,-0.104492,0.386719,0.891968,507
20211435,9992,-0.103271,0.387817,0.891235,508
20221427,9992,-0.104248,0.389648,0.891235,505
20231442,10015,-0.104614,0.388916,0.891724,509
20241429,9987,-0.104492,0.387939,0.890625,509
20251432,10003,-0.105225,0.388184,0.890991,507
20261430,9998,-0.104980,0.388184,0.890869,511
20271438,10008,-0.104492,0.388062,0.891357,511
20281434,9996,-0.104980,0.388794,0.891479,508
20291422,9988,-0.105469,0.387939,0.891235,509
20301436,10014,-0.104126,0.387939,0.891846,514
20311435,9999,-0.103638,0.387817,0.891479,520
20321432,9997,-0.103271,0.387207,0.891602,515
20331441,10009,-0.103027,0.386108,0.891602,519
20341432,9991,-0.102661,0.387451,0.892822,520
20351460,10028,-0.103027,0.387939,0.891357,521
20361448,9988,-0.103760,0.387695,0.891602,520
20371438,9990,-0.103882,0.387451,0.891357,521
20381431,9993,-0.103760,0.386719,0.891968,521
20391431,10000,-0.104126,0.387451,0.891235,516
20401423,9992,-0.103882,0.387207,0.890625,520
20411431,10008,-0.103638,0.387451,0.891968,519
20421429,9998,-0.105591,0.388306,0.891846,511
20431434,10005,-0.105957,0.388550,0.891357,516
20441430,9996,-0.104980,0.390015,0.891357,515
20451423,9993,-0.104492,0.389404,0.892700,515
20461429,10006,-0.105103,0.388672,0.892212,515
20471435,10006,-0.103882,0.388062,0.892090,511
20481419,9984,-0.103027,0.386719,0.892456,513
20491424,10005,-0.103760,0.386963,0.892090,514
20501430,10006,-0.100098,0.385376,0.890137,511
20511427,9997,-0.103149,0.385742,0.891357,511
20521444,10017,-0.104980,0.384888,0.890381,512
20531419,9975,-0.105103,0.386475,0.889526,508
20541439,10020,-0.106567,0.388062,0.888794,511
20551437,9998,-0.108032,0.392456,0.892700,505
20561466,10029,-0.105103,0.390991,0.892822,509
20571423,9957,-0.105713,0.390259,0.892700,506
20581434,10011,-0.104614,0.387817,0.891479,510
20591437,10003,-0.106079,0.386719,0.888672,507
20601440,10003,-0.105957,0.386841,0.891113,511
20611432,9992,-0.104492,0.387573,0.890991,508
20621416,9984,-0.104492,0.387695,0.892700,512
20631428,10012,-0.104858,0.388062,0.892334,510
20641427,9999,-0.104858,0.388794,0.890869,508
20651441,10014,-0.104370,0.387207,0.891968,511
20661427,9986,-0.104370,0.386353,0.890259,506
20671417,9990,-0.104736,0.386841,0.889038,511
20681432,10015,-0.104370,0.388306,0.889893,512
20691431,9999,-0.104492,0.388550,0.890625,509
20701439,10008,-0.105469,0.389038,0.891357,510
20711441,10002,-0.106323,0.389160,0.891968,507
20721424,9983,-0.105469,0.387207,0.892090,513
20731438,10014,-0.105957,0.387939,0.891235,512
20741430,9992,-0.104370,0.393555,0.890259,512
20751447,10017,-0.103882,0.379517,0.895508,511
20761446,9999,-0.101440,0.385864,0.894653,512
20771435,9989,-0.101318,0.382202,0.893799,513
20781432,9997,-0.102539,0.382690,0.892456,512
20791443,10011,-0.102051,0.382446,0.891479,510
20801430,9987,-0.101807,0.381714,0.892212,509
20811432,10002,-0.101196,0.381836,0.893066,505
20821438,10006,-0.102295,0.383301,0.892090,511
20831433,9995,-0.102539,0.383179,0.892334,509
20841416,9983,-0.104248,0.384766,0.891113,521
20851433,10017,-0.102539,0.386719,0.891724,509
20861427,9994,-0.101929,0.386841,0.892578,508
20871422,9995,-0.103271,0.386719,0.892700,507
20881427,10005,-0.103027,0.385620,0.892334,510
20891418,9991,-0.103882,0.385254,0.891602,509
20901428,10010,-0.103760,0.386108,0.891357,507
20911442,10014,-0.103882,0.385864,0.891602,507
20921435,9993,-0.102051,0.387329,0.892090,508
20931474,10039,-0.102051,0.388306,0.891724,504
20941443,9969,-0.102783,0.388184,0.893433,510
20951419,9976,-0.103760,0.387939,0.892212,509
20961444,10025,-0.101440,0.387695,0.890991,509
20971430,9986,-0.102173,0.386475,0.890869,510
20981420,9990,-0.102905,0.386108,0.890747,511
20991418,9998,-0.102539,0.387207,0.891602,514
21001440,10022,-0.102905,0.387695,0.891479,515
21011440,10000,-0.103760,0.387573,0.891602,514
21021443,10003,-0.104858,0.386841,0.891724,513
21031431,9988,-0.105469,0.387817,0.891235,515
21041443,10012,-0.105103,0.388428,0.891846,516
21051421,9978,-0.104248,0.387817,0.891846,519
21061434,10013,-0.103394,0.387573,0.891113,522
21071435,10001,-0.103516,0.387207,0.891357,517
21081419,9984,-0.103394,0.386963,0.891968,522
21091426,10007,-0.103638,0.386230,0.892334,521
21101418,9992,-0.102661,0.386719,0.891968,519
21111418,10000,-0.104126,0.386353,0.891846,521
21121465,10047,-0.104492,0.386475,0.891968,522
21131444,9979,-0.103271,0.386719,0.891968,521
21141417,9973,-0.102539,0.386719,0.893433,519
21151421,10004,-0.102295,0.386353,0.892212,520
21161427,10006,-0.102295,0.386719,0.892212,512
21171442,10015,-0.102905,0.386230,0.891602,511
21181426,9984,-0.103516,0.385620,0.890747,516
21191445,10019,-0.103638,0.385132,0.891968,517
21201441,9996,-0.103271,0.387451,0.891235,510
21211438,9997,-0.104736,0.386963,0.892090,527
21221441,10003,-0.103638,0.385864,0.891968,513
21231419,9978,-0.104126,0.386841,0.891479,510
21241442,10023,-0.104004,0.387329,0.891724,512
21251416,9974,-0.102295,0.386475,0.890991,511
21261446,10030,-0.103271,0.386963,0.891724,512
21271432,9986,-0.105103,0.386963,0.891724,505
21281428,9996,-0.104614,0.388062,0.891602,506
21291420,9992,-0.105103,0.387085,0.891602,511
21301429,10009,-0.105225,0.387207,0.891846,507
21311472,10043,-0.103394,0.388062,0.890991,512
21321444,9972,-0.103394,0.387451,0.890381,511
21331421,9977,-0.104492,0.387329,0.890137,510
21341443,10022,-0.104492,0.387573,0.890991,504
21351441,9998,-0.104858,0.388184,0.891235,511
21361437,9996,-0.104370,0.388916,0.891235,505
21371420,9983,-0.104858,0.389038,0.892090,509
21381428,10008,-0.105103,0.388672,0.891724,514
21391432,10004,-0.104858,0.388062,0.891235,511
21401431,9999,-0.104858,0.387451,0.891235,507
21411422,9991,-0.104614,0.387695,0.890625,506
21421439,10017,-0.103271,0.387817,0.891602,513
21431443,10004,-0.102661,0.387573,0.891846,513
21441422,9979,-0.102905,0.386597,0.891235,511
21451431,10009,-0.103638,0.386963,0.891357,511
21461445,10014,-0.102905,0.386475,0.892334,512
21471428,9983,-0.103027,0.385986,0.892334,513
21481419,9991,-0.103516,0.386230,0.892212,511
21491440,10021,-0.102905,0.384521,0.892456,509
21501461,10021,-0.102661,0.385498,0.890747,505
21511431,9970,-0.103149,0.384888,0.892700,510
21521429,9998,-0.101440,0.385132,0.892822,511
21531436,10007,-0.102295,0.386230,0.891724,512
21541441,10005,-0.101685,0.386230,0.891846,504
21551436,9995,-0.102539,0.385498,0.892090,508
21561436,10000,-0.103638,0.386963,0.892090,507
21571426,9990,-0.103271,0.386230,0.891479,508
21581433,10007,-0.102783,0.385986,0.891357,511
21591431,9998,-0.101685,0.386230,0.891113,511
21601434,10003,-0.101440,0.386841,0.891113,504
21611423,9989,-0.101685,0.386353,0.891113,504
21621441,10018,-0.101807,0.386475,0.892578,505
21631422,9981,-0.101929,0.386719,0.891846,511
21641441,10019,-0.102661,0.386475,0.891968,504
21651438,9997,-0.102051,0.386475,0.891479,505
21661442,10004,-0.102539,0.386108,0.890991,502
21671424,9982,-0.102417,0.387573,0.891724,509
21681428,10004,-0.102539,0.388306,0.891846,508
21691455,10027,-0.102173,0.388672,0.891479,509
21701420,9965,-0.102295,0.387573,0.891479,509
21711423,10003,-0.102417,0.387207,0.890869,510
21721418,9995,-0.100830,0.386597,0.891479,509
21731425,10007,-0.102417,0.386353,0.891357,507
21741445,10020,-0.103882,0.387451,0.890747,506
21751432,9987,-0.102051,0.389648,0.891235,513
21761418,9986,-0.103638,0.390137,0.890869,514
21771416,9998,-0.103271,0.389404,0.891724,514
21781434,10018,-0.103516,0.389648,0.890747,518
21791428,9994,-0.102783,0.388306,0.890137,516
21801423,9995,-0.102661,0.388916,0.891357,514
21811432,10009,-0.103149,0.388062,0.891113,522
21821429,9997,-0.103882,0.388184,0.891113,517
21831427,9998,-0.103394,0.388916,0.890503,522
21841426,9999,-0.103760,0.388794,0.889648,523
21851437,10011,-0.102905,0.388062,0.890381,523
21861427,9990,-0.103638,0.389282,0.891724,524
21871459,10032,-0.102661,0.390747,0.891357,522
21881445,9986,-0.102295,0.389771,0.890625,524
21891430,9985,-0.103271,0.387207,0.890137,524
21901430,10000,-0.103760,0.386353,0.890015,522
21911424,9994,-0.102173,0.388428,0.891724,521
21921419,9995,-0.102661,0.389038,0.891235,519
21931429,10010,-0.102051,0.388672,0.890747,513
21941437,10008,-0.103271,0.389404,0.890747,519
21951427,9990,-0.103760,0.388062,0.891357,518
21961425,9998,-0.102417,0.388062,0.891479,517
21971427,10002,-0.103394,0.388916,0.890381,509
21981418,9991,-0.104004,0.388062,0.890503,515
21991441,10023,-0.103149,0.387207,0.890747,514
22001417,9976,-0.103882,0.387573,0.890991,513
22011436,10019,-0.103394,0.387939,0.891235,515
22021440,10004,-0.103882,0.390137,0.890381,507
22031436,9996,-0.103271,0.390503,0.890381,508
22041424,9988,-0.103638,0.390381,0.889771,506
22051490,10066,-0.103638,0.390137,0.891113,513
22061470,9980,-0.104858,0.390259,0.891113,509
22071419,9949,-0.103638,0.388794,0.890137,511
22081431,10012,-0.103882,0.388672,0.891602,510
22091420,9989,-0.104736,0.389526,0.890259,511
22101429,10009,-0.103027,0.389038,0.891113,509
22111442,10013,-0.103271,0.387329,0.891113,511
22121443,10001,-0.102783,0.387939,0.890747,507
22131426,9983,-0.103149,0.390503,0.890503,511
22141435,10009,-0.103394,0.390259,0.890869,511
22151445,10010,-0.103760,0.390381,0.890991,506
22161425,9980,-0.104614,0.389526,0.890747,512
22171437,10012,-0.103271,0.390015,0.890503,512
22181427,9990,-0.103149,0.387817,0.890137,509
22191437,10010,-0.102539,0.387207,0.890747,512
22201421,9984,-0.103027,0.389038,0.892212,509
22211442,10021,-0.103027,0.388062,0.890991,512
22221441,9999,-0.103149,0.388306,0.891235,511
22231416,9975,-0.103271,0.388428,0.890747,513
22241445,10029,-0.102905,0.389648,0.891479,511
22251437,9992,-0.102295,0.387939,0.891724,511
22261481,10044,-0.101929,0.388794,0.891113,510
22271447,9966,-0.103149,0.388672,0.891357,508
22281441,9994,-0.103760,0.388184,0.890747,503
22291426,9985,-0.103638,0.388916,0.890747,510
22301428,10002,-0.102661,0.387695,0.891113,503
22311427,9999,-0.102905,0.388184,0.890991,510
22321424,9997,-0.102417,0.389893,0.890137,504
22331435,10011,-0.102417,0.390015,0.890869,511
22341421,9986,-0.103149,0.389648,0.890869,510
22351417,9996,-0.102783,0.388916,0.890991,503
22361421,10004,-0.103271,0.389160,0.891113,508
22371438,10017,-0.103394,0.388794,0.891724,510
22381435,9997,-0.103638,0.388428,0.891602,509
22391436,10001,-0.103149,0.387939,0.889404,511
22401438,10002,-0.103882,0.387939,0.889282,515
22411444,10006,-0.103394,0.389404,0.890991,506
22421420,9976,-0.102417,0.390625,0.891235,511
22431422,10002,-0.103638,0.390869,0.891846,512
22441428,10006,-0.104492,0.390747,0.890991,506
22451489,10061,-0.102783,0.389160,0.890137,508
22461427,9938,-0.102661,0.386963,0.890869,509
22471428,10001,-0.102417,0.388306,0.890503,505
22481420,9992,-0.102783,0.387695,0.890991,509
22491420,10000,-0.102783,0.388428,0.889893,514
22501424,10004,-0.102783,0.388916,0.891479,511
22511443,10019,-0.104126,0.390625,0.891357,514
22521439,9996,-0.103149,0.389771,0.890869,511
22531429,9990,-0.102539,0.390747,0.890137,516
22541420,9991,-0.102905,0.388672,0.891235,516
22551421,10001,-0.103516,0.389526,0.891357,518
22561424,10003,-0.101685,0.387207,0.890381,521
22571437,10013,-0.101685,0.386719,0.891602,519
22581441,10004,-0.102295,0.386597,0.891479,520
22591418,9977,-0.101929,0.387085,0.890625,524
22601441,10023,-0.101929,0.388306,0.891724,516
22611421,9980,-0.102173,0.388794,0.892090,525
22621427,10006,-0.102173,0.387939,0.890991,516
22631434,10007,-0.102539,0.387817,0.890869,516
22641478,10044,-0.102173,0.389404,0.890137,522
22651440,9962,-0.103271,0.388672,0.891479,521
22661434,9994,-0.103638,0.389160,0.891479,520
22671436,10002,-0.104492,0.388306,0.890747,520
22681426,9990,-0.104614,0.388550,0.891357,516
22691440,10014,-0.102905,0.389771,0.890503,520
22701442,10002,-0.103027,0.389038,0.890259,518
22711443,10001,-0.103271,0.389160,0.890259,515
22721416,9973,-0.103394,0.389648,0.890991,518
22731439,10023,-0.102661,0.388672,0.889771,514
22741428,9989,-0.102905,0.387939,0.890625,511
22751428,10000,-0.103149,0.387939,0.890991,508
22761421,9993,-0.103882,0.388672,0.891479,513
22771421,10000,-0.103149,0.389771,0.890015,512
22781437,10016,-0.102661,0.389160,0.889648,512
22791427,9990,-0.103882,0.390747,0.891357,527
22801419,9992,-0.102173,0.389160,0.889526,511
22811422,10003,-0.102783,0.389648,0.890869,508
22821436,10014,-0.102417,0.388794,0.890625,510
22831439,10003,-0.103271,0.389526,0.890137,510
22841446,10007,-0.101929,0.389648,0.890503,510
22851434,9988,-0.103027,0.389038,0.890747,512
22861420,9986,-0.102905,0.388916,0.890747,508
22871432,10012,-0.103394,0.390137,0.890381,513
22881435,10003,-0.103027,0.390747,0.889893,512
22891444,10009,-0.103516,0.389160,0.891846,513
22901424,9980,-0.102173,0.390503,0.890869,509
22911431,10007,-0.104004,0.389526,0.889893,512
22921436,10005,-0.102173,0.389160,0.890747,511
22931430,9994,-0.102539,0.389038,0.891479,511
22941442,10012,-0.102051,0.390137,0.891724,511
22951427,9985,-0.102051,0.388306,0.890503,511
22961419,9992,-0.103027,0.387695,0.890991,510
22971443,10024,-0.104004,0.388794,0.891357,509
22981445,10002,-0.101929,0.389404,0.890991,511
22991483,10038,-0.102905,0.389404,0.891113,512
23001445,9962,-0.102783,0.389648,0.889893,508
23011431,9986,-0.103271,0.389282,0.890503,509
23021440,10009,-0.103394,0.388062,0.890991,503
23031436,9996,-0.103638,0.389160,0.890259,510
23041418,9982,-0.103027,0.388672,0.890381,509
23051428,10010,-0.103149,0.388306,0.890503,503
23061423,9995,-0.103394,0.388062,0.889404,502
23071431,10008,-0.103638,0.389160,0.891357,510
23081437,10006,-0.103149,0.390625,0.891113,508
23091435,9998,-0.102661,0.390015,0.891235,510
23101426,9991,-0.102539,0.389526,0.891235,503
23111430,10004,-0.102905,0.389038,0.889771,507
23121433,10003,-0.102783,0.388306,0.889648,509
23131441,10008,-0.102661,0.388794,0.890869,511
23141434,9993,-0.103271,0.390137,0.891479,509
23151433,9999,-0.102661,0.390869,0.891357,508
23161434,10001,-0.103760,0.389648,0.890259,508
23171419,9985,-0.102539,0.388794,0.891602,509
23181429,10010,-0.103149,0.387695,0.891113,507
23191440,10011,-0.102417,0.388062,0.890381,511
23201439,9999,-0.102417,0.388550,0.889526,510
23211433,9994,-0.102295,0.388306,0.890991,508
23221421,9988,-0.101929,0.388550,0.890991,511
23231417,9996,-0.103516,0.389282,0.889526,513
23241431,10014,-0.104248,0.389648,0.889771,515
23251441,10010,-0.103882,0.390503,0.890747,516
23261429,9988,-0.103027,0.390381,0.890381,518
23271428,9999,-0.102783,0.388794,0.889526,515
23281423,9995,-0.104370,0.388428,0.890869,516
23291424,10001,-0.103882,0.388428,0.890747,515
23301433,10009,-0.103271,0.389404,0.890259,524
23311437,10004,-0.103149,0.389282,0.890991,525
23321432,9995,-0.103271,0.390015,0.890869,523
23331423,9991,-0.102661,0.390503,0.890991,521
23341428,10005,-0.102539,0.389038,0.890869,527
23351416,9988,-0.102661,0.388550,0.890747,523
23361434,10018,-0.104004,0.388184,0.890137,524
23371431,9997,-0.101929,0.389038,0.890015,525
23381445,10014,-0.102539,0.388306,0.890991,522
23391431,9986,-0.102539,0.390137,0.891113,520
23401431,10000,-0.102539,0.390259,0.890625,520
23411428,9997,-0.102783,0.390503,0.889404,519
23421443,10015,-0.103760,0.389893,0.891602,519
23431438,9995,-0.103882,0.390747,0.890625,513
23441438,10000,-0.104004,0.389404,0.890869,517
23451432,9994,-0.103271,0.388428,0.890991,512
23461444,10012,-0.102661,0.388550,0.890869,515
23471434,9990,-0.102661,0.389038,0.889526,514
23481445,10011,-0.103760,0.389038,0.889893,510
23491444,9999,-0.103516,0.389893,0.890869,504
23501441,9997,-0.102417,0.390503,0.890869,512
23511419,9978,-0.103638,0.390015,0.891113,510
23521430,10011,-0.102905,0.390381,0.891602,507
23531425,9995,-0.103882,0.389526,0.890625,506
23541416,9991,-0.103394,0.390625,0.891113,511
23551471,10055,-0.104248,0.390381,0.890259,510
23561435,9964,-0.103638,0.390015,0.890015,505
23571441,10006,-0.103516,0.390503,0.891113,512
23581419,9978,-0.103394,0.390259,0.890747,511
23591422,10003,-0.103394,0.390015,0.890137,510
23601428,10006,-0.103638,0.388794,0.890625,504
23611416,9988,-0.104248,0.389648,0.890869,511
23621418,10002,-0.103760,0.389771,0.889893,504
23631423,10005,-0.103271,0.389648,0.889771,512
23641428,10005,-0.103516,0.389038,0.890747,511
23651437,10009,-0.102905,0.389526,0.890381,511
23661418,9981,-0.102661,0.390137,0.890259,506
23671420,10002,-0.103149,0.390747,0.890991,511
23681431,10011,-0.103027,0.390259,0.890869,510
23691427,9996,-0.103882,0.390625,0.890625,510
23701428,10001,-0.103638,0.390137,0.890625,510
23711441,10013,-0.104004,0.390259,0.890747,510
23721440,9999,-0.103394,0.389038,0.890747,507
23731425,9985,-0.103638,0.390015,0.891602,503
23741462,10037,-0.102905,0.388916,0.891235,506
23751434,9972,-0.102905,0.389648,0.890625,507
23761430,9996,-0.103149,0.390015,0.889526,507
23771435,10005,-0.103638,0.390259,0.890625,505
23781416,9981,-0.103149,0.389404,0.890747,509
23791437,10021,-0.102417,0.389282,0.890503,503
23801445,10008,-0.102783,0.388916,0.890381,504
23811416,9971,-0.104126,0.389160,0.890869,508
23821432,10016,-0.103027,0.389404,0.890259,509
23831436,10004,-0.103882,0.390259,0.890869,509
23841431,9995,-0.103027,0.390503,0.890991,506
23851417,9986,-0.103149,0.390259,0.890747,502
23861423,10006,-0.103027,0.390503,0.890137,506
23871421,9998,-0.102295,0.390747,0.890503,509
23881440,10019,-0.103760,0.389526,0.890991,506
23891432,9992,-0.103760,0.389038,0.891357,507
23901445,10013,-0.103882,0.389038,0.889648,512
23911428,9983,-0.104004,0.388550,0.890015,506
23921420,9992,-0.103516,0.389648,0.890625,502
23931472,10052,-0.102539,0.390869,0.891357,505
23941445,9973,-0.102905,0.390747,0.891357,505
23951441,9996,-0.102905,0.390991,0.892212,510
23961439,9998,-0.102173,0.390625,0.891357,508
23971423,9984,-0.103882,0.388916,0.890381,511
23981430,10007,-0.103271,0.387207,0.890503,508
23991423,9993,-0.102173,0.387939,0.890015,511
24001431,10008,-0.102417,0.388306,0.890015,509
24011438,10007,-0.103027,0.389893,0.890015,504
24021419,9981,-0.103149,0.391602,0.890747,505
24031442,10023,-0.103882,0.390381,0.890991,512
24041444,10002,-0.103027,0.390991,0.890747,514
24051445,10001,-0.102783,0.390503,0.890503,511
24061445,10000,-0.102783,0.389648,0.890747,518
24071426,9981,-0.103149,0.390503,0.890747,518
24081436,10010,-0.103394,0.390137,0.891113,520
24091423,9987,-0.103149,0.389282,0.890625,522
24101425,10002,-0.102539,0.389771,0.890747,519
24111431,10006,-0.103760,0.390259,0.889893,517
24121476,10045,-0.102661,0.390015,0.890137,528
24131452,9976,-0.103271,0.389648,0.890747,532
24141424,9972,-0.102295,0.390747,0.890015,520
24151422,9998,-0.103271,0.389771,0.889038,524
24161417,9995,-0.103149,0.388672,0.890259,523
24171435,10018,-0.102783,0.389038,0.890625,524
24181418,9983,-0.102783,0.389038,0.890991,518
24191429,10011,-0.103149,0.389893,0.890503,520
24201421,9992,-0.103516,0.390381,0.890503,516
24211439,10018,-0.103149,0.390625,0.889282,517
24221442,10003,-0.103271,0.390503,0.890503,516
24231428,9986,-0.103027,0.390625,0.891113,516
24241417,9989,-0.103760,0.390503,0.890259,510
24251443,10026,-0.103149,0.389771,0.890503,515
24261444,10001,-0.101807,0.389648,0.891113,507
24271430,9986,-0.103149,0.389648,0.890625,514
24281436,10006,-0.103394,0.390625,0.890747,513
24291440,10004,-0.103271,0.389648,0.890137,511
24301421,9981,-0.104004,0.390381,0.890625,507
24311437,10016,-0.104370,0.390503,0.890625,510
24321416,9979,-0.103516,0.390747,0.889771,505
24331420,10004,-0.103638,0.389282,0.889282,510
24341433,10013,-0.104248,0.388184,0.890015,506
24351443,10010,-0.104248,0.389771,0.890869,509
24361436,9993,-0.103516,0.390869,0.890747,510
24371432,9996,-0.103516,0.390381,0.890381,509
24381443,10011,-0.103516,0.389526,0.891479,509
24391445,10002,-0.103149,0.390991,0.889648,505
24401427,9982,-0.103149,0.390015,0.890137,512
24411423,9996,-0.104126,0.389160,0.890503,504
24421438,10015,-0.103271,0.389648,0.890991,510
24431435,9997,-0.102661,0.389038,0.890381,510
24441445,10010,-0.103516,0.390015,0.890991,509
24451441,9996,-0.103638,0.390747,0.890991,511
24461436,9995,-0.103271,0.390381,0.890503,509
24471441,10005,-0.102783,0.389526,0.890747,509
24481417,9976,-0.104492,0.389160,0.891479,510
24491430,10013,-0.102783,0.389282,0.891235,509
24501439,10009,-0.104126,0.389526,0.890869,506
24511483,10044,-0.103760,0.389160,0.889648,509
24521437,9954,-0.102783,0.389160,0.890747,510
24531445,10008,-0.103760,0.389648,0.891235,506
24541427,9982,-0.103271,0.390015,0.890869,506
24551437,10010,-0.103760,0.390015,0.890625,502
24561434,9997,-0.103760,0.389771,0.890869,506
24571420,9986,-0.103638,0.389038,0.891846,507
24581444,10024,-0.103027,0.389160,0.891602,504
24591427,9983,-0.103394,0.389282,0.891113,509
24601441,10014,-0.103394,0.388916,0.890503,506
24611422,9981,-0.103394,0.389648,0.889404,508
24621424,10002,-0.103516,0.390381,0.890503,509
24631417,9993,-0.104492,0.390747,0.891235,505
24641437,10020,-0.102417,0.390625,0.890991,503
24651428,9991,-0.103516,0.390625,0.889648,503
24661439,10011,-0.104492,0.390381,0.889648,509
24671427,9988,-0.102783,0.390259,0.890137,510
24681445,10018,-0.103394,0.390259,0.891724,509
24691447,10002,-0.104126,0.390137,0.891724,503
24701430,9983,-0.103149,0.389526,0.891235,509
24711420,9990,-0.102783,0.389648,0.891235,509
24721440,10020,-0.104126,0.389038,0.890137,510
24731443,10003,-0.102539,0.388916,0.890625,510
24741421,9978,-0.104126,0.390503,0.889404,511
24751439,10018,-0.103271,0.391113,0.890381,501
24761437,9998,-0.103027,0.390381,0.890381,502
24771420,9983,-0.103027,0.390869,0.890747,510
24781444,10024,-0.102173,0.390991,0.890747,502
24791427,9983,-0.102661,0.389160,0.890259,510
24801437,10010,-0.104492,0.388306,0.890625,509
24811445,10008,-0.104004,0.389038,0.889893,510
24821425,9980,-0.103516,0.389160,0.890259,509
24831436,10011,-0.103882,0.389771,0.891113,508
24841435,9999,-0.103638,0.391479,0.891235,508
24851431,9996,-0.103760,0.390747,0.889648,508
24861441,10010,-0.102173,0.389771,0.890381,509
24871481,10040,-0.103149,0.388062,0.891602,506
24881425,9944,-0.101440,0.389160,0.889771,507
24891438,10013,-0.103027,0.389282,0.889526,510
24901429,9991,-0.103882,0.389160,0.891602,509
24911439,10010,-0.104980,0.390015,0.890991,512
24921444,10005,-0.103882,0.390503,0.890625,512
24931440,9996,-0.103271,0.391235,0.890869,513
24941445,10005,-0.103516,0.391724,0.890381,516
24951435,9990,-0.103149,0.390503,0.890747,513
24961443,10008,-0.103027,0.389526,0.889771,521
24971423,9980,-0.103027,0.388794,0.890259,521
24981417,9994,-0.103882,0.388794,0.889648,523
24991435,10018,-0.104248,0.388184,0.890869,524
25001421,9986,-0.104004,0.389771,0.890503,525
25011418,9997,-0.103394,0.390381,0.891479,523
25021444,10026,-0.102661,0.390381,0.890625,525
25031439,9995,-0.102417,0.389771,0.889648,525
25041444,10005,-0.103027,0.389282,0.890747,520
25051482,10038,-0.102783,0.390259,0.890381,518
25061430,9948,-0.103027,0.390747,0.890747,516
25071427,9997,-0.104126,0.389526,0.890259,524
25081432,10005,-0.104614,0.388916,0.889648,521
25091420,9988,-0.104614,0.389771,0.890259,516
25101444,10024,-0.104858,0.389893,0.890625,514
25111443,9999,-0.104004,0.390259,0.890625,512
25121428,9985,-0.103760,0.390503,0.890747,512
25131416,9988,-0.103516,0.390259,0.891113,515
25141443,10027,-0.104980,0.389771,0.890259,520
25151434,9991,-0.103027,0.390381,0.890381,510
25161444,10010,-0.104248,0.389771,0.890259,511
25171427,9983,-0.104370,0.390137,0.889771,512
25181421,9994,-0.103760,0.390015,0.890259,505
25191417,9996,-0.104614,0.389771,0.890137,511
25201416,9999,-0.104370,0.390259,0.888672,505
25211424,10008,-0.104614,0.391113,0.890015,510
25221429,10005,-0.104126,0.390625,0.890869,502
25231422,9993,-0.103271,0.389160,0.889038,503
25241445,10023,-0.104370,0.390381,0.889893,508
25251440,9995,-0.104004,0.390747,0.890869,510
25261417,9977,-0.103760,0.389771,0.890015,507
25271426,10009,-0.103027,0.389404,0.890015,511
25281429,10003,-0.104614,0.389771,0.889893,511
25291446,10017,-0.105225,0.390503,0.891235,507
25301427,9981,-0.104248,0.389038,0.890503,512
25311417,9990,-0.104004,0.389648,0.889893,532
25321444,10027,-0.102905,0.389893,0.889893,511
25331418,9974,-0.104614,0.390137,0.889771,511
25341434,10016,-0.104858,0.390137,0.891968,511
25351417,9983,-0.102783,0.389771,0.891113,512
25361443,10026,-0.104492,0.389648,0.890503,510
25371423,9980,-0.103149,0.388916,0.890137,503
25381442,10019,-0.103516,0.390503,0.890991,505
25391441,9999,-0.103149,0.389160,0.890869,509
25401442,10001,-0.103882,0.389038,0.890991,504
25411417,9975,-0.104248,0.389160,0.890503,503
25421455,10038,-0.104614,0.389893,0.891113,508
25431417,9962,-0.104492,0.389282,0.890869,508
25441443,10026,-0.104492,0.389648,0.890747,508
25451417,9974,-0.104492,0.389893,0.890869,503
25461437,10020,-0.103882,0.390137,0.890747,510
25471427,9990,-0.103638,0.389282,0.890625,509
25481437,10010,-0.104248,0.390259,0.891479,505
25491441,10004,-0.104492,0.390869,0.890381,502
25501424,9983,-0.104614,0.390503,0.891113,507
25511429,10005,-0.104126,0.389526,0.890869,510
25521425,9996,-0.103638,0.388428,0.890991,502
25531421,9996,-0.104614,0.390137,0.890381,507
25541429,10008,-0.103516,0.389526,0.889893,509
25551421,9992,-0.103394,0.389893,0.889404,501
25561421,10000,-0.104370,0.389893,0.890991,503
25571443,10022,-0.103027,0.390381,0.890381,508
25581419,9976,-0.103760,0.390137,0.890259,501
25591439,10020,-0.104736,0.389282,0.890259,505
25601426,9987,-0.103882,0.388916,0.890259,507
25611423,9997,-0.104004,0.389893,0.890625,502
25621443,10020,-0.104248,0.388672,0.889404,510
25631418,9975,-0.103882,0.389282,0.889893,509
25641439,10021,-0.104370,0.389526,0.890381,509
25651436,9997,-0.103394,0.390381,0.891235,510
25661442,10006,-0.103516,0.389893,0.890381,509
25671434,9992,-0.104370,0.388184,0.890503,508
25681433,9999,-0.104126,0.388306,0.890625,506
25691433,10000,-0.104248,0.389160,0.889282,509
25701432,9999,-0.105225,0.389282,0.890503,505
25711419,9987,-0.104370,0.390869,0.891113,510
25721420,10001,-0.104248,0.390259,0.890869,505
25731435,10015,-0.104126,0.390381,0.891113,507
25741434,9999,-0.103882,0.390991,0.890259,510
25751433,9999,-0.104248,0.388550,0.891357,509
25761416,9983,-0.103271,0.386841,0.891602,508
25771436,10020,-0.104126,0.387207,0.889404,502
25781430,9994,-0.103394,0.388672,0.890503,509
25791418,9988,-0.103882,0.390381,0.891113,505
25801440,10022,-0.104004,0.390869,0.890869,510
25811417,9977,-0.105347,0.390625,0.891357,505
25821428,10011,-0.104370,0.390381,0.890869,508
25831424,9996,-0.105347,0.389893,0.891357,514
25841435,10011,-0.102295,0.389526,0.890869,513
25851428,9993,-0.103760,0.387451,0.890015,518
25861440,10012,-0.103271,0.387573,0.890869,520
25871426,9986,-0.104736,0.387207,0.890747,519
25881430,10004,-0.104248,0.389893,0.890991,517
25891432,10002,-0.106323,0.390015,0.891113,524
25901438,10006,-0.105347,0.390259,0.890869,525
25911417,9979,-0.105591,0.390137,0.890381,523
25921422,10005,-0.105225,0.390381,0.890015,519
25931441,10019,-0.103638,0.389893,0.891113,522
25941426,9985,-0.105103,0.389771,0.890503,523
25951427,10001,-0.104370,0.390137,0.890747,519
25961434,10007,-0.103638,0.389648,0.889771,514
25971422,9988,-0.106079,0.390259,0.889771,520
25981442,10020,-0.105103,0.389526,0.890015,517
25991425,9983,-0.104126,0.389160,0.890869,517
26001445,10020,-0.104492,0.387329,0.891602,513
26011418,9973,-0.103638,0.390137,0.890869,516
26021420,10002,-0.105225,0.392578,0.889771,514
26031440,10020,-0.104370,0.390625,0.890259,513
26041433,9993,-0.105225,0.389282,0.889893,510
26051418,9985,-0.104980,0.388672,0.890015,513
26061416,9998,-0.104736,0.389771,0.889282,509
26071428,10012,-0.104980,0.390015,0.890137,513
26081425,9997,-0.104980,0.389893,0.891235,504
26091429,10004,-0.105957,0.390259,0.889160,504
26101443,10014,-0.105469,0.392090,0.890015,512
26111439,9996,-0.104004,0.390381,0.890625,489
26121416,9977,-0.104614,0.390503,0.889160,511
26131422,10006,-0.103882,0.390503,0.890381,512
26141429,10007,-0.105469,0.389771,0.890991,504
26151441,10012,-0.104614,0.388672,0.890015,510
26161442,10001,-0.105103,0.388428,0.889771,511
26171428,9986,-0.104126,0.390259,0.889771,503
26181420,9992,-0.103760,0.390381,0.890503,513
26191438,10018,-0.104004,0.390991,0.890747,510
26201444,10006,-0.104980,0.390625,0.890747,511
26211426,9982,-0.105713,0.390137,0.890259,506
26221482,10056,-0.105347,0.389526,0.891235,504
26231445,9963,-0.104614,0.390625,0.890991,509
26241428,9983,-0.104858,0.390503,0.891113,511
26251437,10009,-0.104858,0.390259,0.890259,510
26261424,9987,-0.103760,0.389038,0.890015,508
26271439,10015,-0.103638,0.389526,0.890625,509
26281420,9981,-0.103882,0.390381,0.890747,511
26291429,10009,-0.103149,0.390503,0.890381,509
26301431,10002,-0.105347,0.389893,0.891357,510
26311427,9996,-0.104248,0.389160,0.890991,505
26321428,10001,-0.104980,0.389038,0.890869,509
26331433,10005,-0.105225,0.389160,0.889404,510
26341436,10003,-0.104736,0.389648,0.890259,510
26351428,9992,-0.104736,0.390381,0.890259,510
26361427,9999,-0.104614,0.390747,0.891235,508
26371423,9996,-0.104492,0.390747,0.890991,504
26381431,10008,-0.105103,0.390625,0.890259,508
26391436,10005,-0.104248,0.389160,0.888916,509
26401438,10002,-0.104736,0.388550,0.890625,508
26411428,9990,-0.104858,0.389038,0.890747,509
26421425,9997,-0.104614,0.389160,0.890259,509
26431485,10060,-0.104492,0.390015,0.889404,508
26441442,9957,-0.105835,0.389160,0.890869,510
26451417,9975,-0.103760,0.390137,0.890869,509
26461425,10008,-0.103882,0.390381,0.890137,509
26471423,9998,-0.103394,0.390137,0.890381,510
26481436,10013,-0.103760,0.387817,0.889893,508
26491430,9994,-0.104004,0.388062,0.889404,510
26501436,10006,-0.104370,0.388428,0.890747,508
26511425,9989,-0.104370,0.389282,0.891724,508
26521445,10020,-0.103760,0.390259,0.890869,510
26531427,9982,-0.103882,0.390625,0.891602,505
26541443,10016,-0.104126,0.388916,0.890137,510
26551427,9984,-0.104004,0.388916,0.890137,509
26561436,10009,-0.103638,0.389160,0.889893,509
26571431,9995,-0.104126,0.389648,0.890137,508
26581431,10000,-0.103271,0.389038,0.891235,510
26591421,9990,-0.103882,0.390137,0.891357,506
26601427,10006,-0.103516,0.388428,0.891602,504
26611434,10007,-0.103638,0.389526,0.890747,509
26621445,10011,-0.103271,0.389526,0.890381,510
26631422,9977,-0.103149,0.390259,0.890015,510
26641423,10001,-0.104370,0.388672,0.890503,506
26651424,10001,-0.103882,0.390259,0.891357,503
26661418,9994,-0.104004,0.389282,0.890747,511
26671427,10009,-0.104126,0.390625,0.891235,508
26681424,9997,-0.104858,0.391113,0.890991,512
26691423,9999,-0.105713,0.390381,0.891235,517
26701423,10000,-0.103271,0.390015,0.890381,520
26711426,10003,-0.104248,0.390625,0.889893,514
26721443,10017,-0.103271,0.390625,0.890625,522
26731444,10001,-0.104126,0.390625,0.890625,526
26741425,9981,-0.104736,0.391235,0.889893,518
26751420,9995,-0.105103,0.390991,0.890259,524
26761440,10020,-0.104858,0.390015,0.890015,524
26771428,9988,-0.104614,0.390137,0.890869,526
26781417,9989,-0.106323,0.389160,0.890381,525
26791422,10005,-0.103516,0.390381,0.891479,524
26801416,9994,-0.103760,0.389526,0.890991,523
26811422,10006,-0.104614,0.389038,0.890625,523
26821432,10010,-0.104248,0.388916,0.891235,521
26831444,10012,-0.102905,0.390015,0.890381,517
26841423,9979,-0.103882,0.390503,0.889648,519
26851423,10000,-0.103516,0.390503,0.891357,519
26861443,10020,-0.104736,0.389771,0.890503,519
26871437,9994,-0.104492,0.389648,0.890625,516
26881441,10004,-0.104614,0.390503,0.890747,512
26891440,9999,-0.104736,0.389038,0.890381,507
26901445,10005,-0.104492,0.389038,0.891235,514
26911431,9986,-0.104004,0.390259,0.891113,512
26921430,9999,-0.104248,0.390259,0.891357,513
26931429,9999,-0.104248,0.389282,0.890259,514
26941436,10007,-0.104980,0.389893,0.890625,512
26951427,9991,-0.104492,0.389771,0.890137,507
26961419,9992,-0.104736,0.390015,0.890747,505
26971432,10013,-0.104736,0.389893,0.890625,511
26981446,10014,-0.104248,0.390015,0.891113,510
26991443,9997,-0.104980,0.390015,0.890625,511
27001442,9999,-0.104126,0.389160,0.891235,510
27011419,9977,-0.104736,0.389404,0.890747,510
27021445,10026,-0.104736,0.390137,0.890259,512
27031416,9971,-0.104858,0.389038,0.890015,513
27041435,10019,-0.105103,0.389404,0.890137,512
27051444,10009,-0.104858,0.389893,0.889893,511
27061445,10001,-0.105103,0.389282,0.890503,511
27071435,9990,-0.105225,0.390137,0.891113,510
27081434,9999,-0.104858,0.390259,0.890259,512
27091424,9990,-0.103516,0.389282,0.890991,513
27101421,9997,-0.103149,0.388916,0.890869,510
27111445,10024,-0.104614,0.388672,0.890991,508
27121418,9973,-0.105957,0.389893,0.890259,510
27131444,10026,-0.105835,0.390625,0.890747,505
27141416,9972,-0.105469,0.390137,0.890503,510
27151450,10034,-0.104492,0.389282,0.889893,508
27161425,9975,-0.104614,0.389771,0.889526,508
27171430,10005,-0.103149,0.390137,0.889648,509
27181427,9997,-0.103027,0.388428,0.890503,505
27191439,10012,-0.104370,0.390137,0.890625,508
27201741,10302,-0.105103,0.390869,0.890869,509
27211419,9678,-0.105103,0.390747,0.890747,510
27221416,9997,-0.106079,0.389404,0.889648,510
27231417,10001,-0.106201,0.389282,0.889648,509
27241420,10003,-0.105347,0.388550,0.890747,503
27251432,10012,-0.104736,0.389648,0.890015,508
27261426,9994,-0.105225,0.390137,0.890503,509
27271436,10010,-0.104980,0.391113,0.890015,510
27281436,10000,-0.104736,0.389648,0.891357,508
27291434,9998,-0.104248,0.390259,0.890991,510
27301443,10009,-0.104614,0.388794,0.890259,509
27311444,10001,-0.104492,0.387329,0.890747,510
27321445,10001,-0.103882,0.388672,0.891846,510
27331478,10033,-0.104614,0.390503,0.889893,508
27341421,9943,-0.104736,0.390991,0.890503,510
27351426,10005,-0.105347,0.389893,0.890015,503
27361440,10014,-0.105347,0.389648,0.890747,510
27371431,9991,-0.104370,0.389648,0.890625,510
27381432,10001,-0.105225,0.390625,0.890869,512
27391425,9993,-0.104614,0.388428,0.890381,511
27401440,10015,-0.104980,0.387695,0.889648,511
27411427,9987,-0.103394,0.388916,0.890625,511
27421425,9998,-0.103882,0.390137,0.890747,510
27431417,9992,-0.104858,0.390625,0.890381,510
27441438,10021,-0.104126,0.391479,0.891235,506
27451437,9999,-0.105103,0.390869,0.891602,509
27461438,10001,-0.104248,0.387939,0.890503,511
27471446,10008,-0.105469,0.389160,0.890259,508
27481436,9990,-0.104980,0.388550,0.890991,507
27491434,9998,-0.104492,0.388794,0.891479,506
27501467,10033,-0.104614,0.390137,0.890991,511
27511465,9998,-0.104370,0.390137,0.890991,512
27521443,9978,-0.104492,0.391479,0.890869,514
27531443,10000,-0.105103,0.390381,0.889648,512
27541445,10002,-0.104370,0.390015,0.890625,514
27551440,9995,-0.104858,0.389526,0.890869,512
27561438,9998,-0.104126,0.389526,0.890137,519
27571433,9995,-0.104614,0.388428,0.890991,523
27581440,10007,-0.104126,0.389526,0.889771,522
27591437,9997,-0.104492,0.389526,0.890747,523
27601418,9981,-0.104614,0.389526,0.890869,522
27611433,10015,-0.104858,0.390503,0.890259,525
27621442,10009,-0.103516,0.389771,0.890625,525
27631428,9986,-0.104858,0.388794,0.891235,523
27641422,9994,-0.104126,0.388916,0.890991,524
27651430,10008,-0.104980,0.389038,0.889526,523
27661442,10012,-0.104004,0.387695,0.890259,523
27671441,9999,-0.104858,0.388672,0.890869,516
27681478,10037,-0.104980,0.389771,0.891357,516
27691437,9959,-0.103760,0.389160,0.890991,519
27701429,9992,-0.104004,0.390015,0.890747,520
27711441,10012,-0.104736,0.389893,0.890869,518
27721426,9985,-0.105225,0.389404,0.890381,518
27731432,10006,-0.105469,0.389648,0.891113,516
27741444,10012,-0.105347,0.390015,0.890747,510
27751424,9980,-0.105347,0.389160,0.891235,514
27761430,10006,-0.104126,0.388794,0.891235,511
27771436,10006,-0.104980,0.389526,0.890747,512
27781442,10006,-0.105103,0.389404,0.890869,507
27791427,9985,-0.104736,0.388672,0.889282,512
27801427,10000,-0.104614,0.389282,0.890015,511
27811420,9993,-0.105591,0.390015,0.890381,511
27821440,10020,-0.105347,0.390015,0.889648,503
27831425,9985,-0.105713,0.390625,0.890503,509
27841440,10015,-0.105591,0.388916,0.889771,511
27851425,9985,-0.105225,0.389648,0.890625,511
27861430,10005,-0.103760,0.391235,0.890503,512
27871474,10044,-0.104126,0.390381,0.890747,506
27881444,9970,-0.105347,0.389771,0.889038,511
27891437,9993,-0.105347,0.388428,0.890869,512
27901439,10002,-0.104736,0.390381,0.891235,507
27911444,10005,-0.103760,0.390747,0.891235,509
27921437,9993,-0.104126,0.389404,0.890015,506
27931434,9997,-0.105103,0.390381,0.890869,511
27941420,9986,-0.104004,0.390381,0.890747,512
27951444,10024,-0.105347,0.390991,0.890503,511
27961421,9977,-0.104858,0.389648,0.889648,510
27971441,10020,-0.105347,0.389282,0.889404,509
27981440,9999,-0.106201,0.389038,0.890015,512
27991422,9982,-0.104614,0.390137,0.890869,510
28001445,10023,-0.104858,0.391113,0.890503,514
28011438,9993,-0.104126,0.390869,0.890503,508
28021429,9991,-0.105469,0.391357,0.889160,505
28031436,10007,-0.104980,0.390869,0.889648,509
28041443,10007,-0.105103,0.389648,0.890381,510
28051417,9974,-0.105225,0.389648,0.889038,509
28061433,10016,-0.105835,0.390381,0.889771,510
28071432,9999,-0.105713,0.390625,0.889404,510
28081439,10007,-0.106079,0.391479,0.888428,509
28091422,9983,-0.104858,0.391602,0.890625,510
28101425,10003,-0.105713,0.390747,0.889893,509
28111430,10005,-0.105225,0.390259,0.888672,519
28121443,10013,-0.105957,0.389893,0.891235,508
28131424,9981,-0.105591,0.390381,0.891235,503
28141428,10004,-0.106445,0.390137,0.889893,504
28151445,10017,-0.106079,0.389771,0.890381,510
28161441,9996,-0.105713,0.389893,0.888672,510
28171439,9998,-0.105225,0.390015,0.888916,502
28181417,9978,-0.104858,0.390747,0.891113,503
28191417,10000,-0.105225,0.390381,0.889771,508
28201427,10010,-0.105713,0.389893,0.890259,506
28211440,10013,-0.104858,0.390137,0.890625,509
28221421,9981,-0.103760,0.390625,0.890137,509
28231442,10021,-0.106079,0.390137,0.890259,510
28241424,9982,-0.105103,0.390015,0.890503,507
28251424,10000,-0.105103,0.390869,0.890625,508
28261428,10004,-0.105591,0.390747,0.890869,508
28271418,9990,-0.104126,0.390015,0.890869,509
28281420,10002,-0.105469,0.388916,0.889893,510
28291434,10014,-0.104736,0.389160,0.889404,507
28301429,9995,-0.105225,0.390381,0.890503,511
28311433,10004,-0.105591,0.390137,0.889771,512
28321423,9990,-0.106079,0.390625,0.890625,513
28331427,10004,-0.105225,0.393433,0.890747,514
28341436,10009,-0.104370,0.392090,0.890625,514
28351436,10000,-0.105225,0.390625,0.890259,496
28361433,9997,-0.103394,0.389771,0.889526,512
28371418,9985,-0.104980,0.389404,0.890503,520
28381427,10009,-0.104370,0.388672,0.889038,521
28391439,10012,-0.104370,0.388916,0.890869,523
28401429,9990,-0.105103,0.390625,0.889893,524
28411421,9992,-0.105347,0.390747,0.889771,521
28421437,10016,-0.105713,0.390137,0.890625,525
28431442,10005,-0.106445,0.390381,0.889526,526
28441420,9978,-0.105225,0.390381,0.891113,521
28451442,10022,-0.104736,0.389893,0.891724,523
28461463,10021,-0.104858,0.390015,0.889404,521
28471433,9970,-0.104370,0.388794,0.889771,516
28481433,10000,-0.104980,0.390381,0.890137,521
28491432,9999,-0.105591,0.389893,0.889160,514
28501437,10005,-0.106201,0.390503,0.889771,519
28511424,9987,-0.104858,0.390747,0.890137,518
28521421,9997,-0.105103,0.390625,0.890015,516
28531438,10017,-0.104980,0.390015,0.890869,515
28541439,10001,-0.104736,0.389404,0.890503,514
28551435,9996,-0.105347,0.389526,0.890869,512
28561435,10000,-0.105103,0.390869,0.891235,510
28571437,10002,-0.105591,0.389404,0.890747,508
28581445,10008,-0.105225,0.389526,0.891479,511
28591432,9987,-0.104858,0.388306,0.890503,511
28601417,9985,-0.104980,0.390991,0.890137,510
28611419,10002,-0.105103,0.391968,0.890625,510
28621420,10001,-0.104980,0.391846,0.890747,511
28631416,9996,-0.105591,0.390869,0.890625,503
28641468,10052,-0.105957,0.391357,0.891479,511
28651424,9956,-0.104736,0.390869,0.890503,511
28661445,10021,-0.104858,0.389526,0.890747,514
28671442,9997,-0.104980,0.390869,0.889648,512
28681418,9976,-0.105469,0.390503,0.890137,513
28691420,10002,-0.104980,0.390137,0.890015,509
28701417,9997,-0.104858,0.389648,0.890747,511
28711426,10009,-0.104614,0.390747,0.889282,505
28721439,10013,-0.105347,0.390747,0.890381,512
28731417,9978,-0.103882,0.390381,0.890015,511
28741444,10027,-0.104248,0.390625,0.890015,512
28751422,9978,-0.105225,0.390259,0.890625,510
28761420,9998,-0.104980,0.390015,0.890869,510
28771427,10007,-0.103882,0.389648,0.890259,505
28781436,10009,-0.104614,0.390625,0.890503,510
28791421,9985,-0.105225,0.391113,0.890015,504
28801424,10003,-0.105103,0.390625,0.889771,506
28811431,10007,-0.104736,0.389404,0.890747,510
28821434,10003,-0.105103,0.389282,0.891113,509
28831433,9999,-0.103882,0.390747,0.889526,510
28841471,10038,-0.105103,0.389893,0.890991,509
28851431,9960,-0.104370,0.389404,0.890259,502
28861423,9992,-0.104614,0.389282,0.887695,506
28871417,9994,-0.105469,0.389648,0.889038,509
28881424,10007,-0.104858,0.390503,0.890869,507
28891440,10016,-0.104614,0.392334,0.891357,506
28901434,9994,-0.104858,0.391479,0.891357,515
28911426,9992,-0.105591,0.391113,0.890381,508
28921436,10010,-0.104736,0.390015,0.889893,509
28931431,9995,-0.104004,0.389038,0.889648,510
28941439,10008,-0.104858,0.390503,0.890381,504
28951438,9999,-0.104614,0.391357,0.891235,504
28961431,9993,-0.104736,0.390991,0.890015,509
28971426,9995,-0.104736,0.390869,0.890015,510
28981440,10014,-0.104492,0.389526,0.890503,509
28991420,9980,-0.103394,0.389160,0.890259,509
29001445,10025,-0.103760,0.389893,0.888916,503
29011438,9993,-0.104248,0.389648,0.890625,510
29021430,9992,-0.104370,0.389893,0.890015,507
29031457,10027,-0.104614,0.388672,0.890137,511
29041449,9992,-0.104614,0.390747,0.889893,511
29051445,9996,-0.106079,0.390503,0.891357,508
29061439,9994,-0.105347,0.391846,0.890503,512
29071421,9982,-0.103882,0.391479,0.890503,514
29081443,10022,-0.104126,0.391113,0.890015,519
29091419,9976,-0.104370,0.388306,0.889404,521
29101426,10007,-0.104736,0.389771,0.890259,518
29111428,10002,-0.104736,0.390625,0.890381,524
29121437,10009,-0.104858,0.390991,0.890869,528
29131431,9994,-0.105591,0.390869,0.890747,526
29141436,10005,-0.105225,0.390625,0.889893,527
29151418,9982,-0.103882,0.390015,0.890747,528
29161422,10004,-0.105103,0.389404,0.890137,521
29171427,10005,-0.104248,0.390625,0.890015,526
29181420,9993,-0.104004,0.389648,0.890869,525
29191422,10002,-0.104126,0.391113,0.890503,518
29201440,10018,-0.106323,0.390259,0.889771,519
29211439,9999,-0.105225,0.391113,0.890503,516
29221436,9997,-0.106201,0.391602,0.890381,520
29231421,9985,-0.106323,0.390381,0.891113,519
29241437,10016,-0.105347,0.390991,0.890259,520
29251426,9989,-0.105591,0.390503,0.890991,519
29261422,9996,-0.105103,0.390625,0.890137,517
29271422,10000,-0.105835,0.390869,0.889404,513
29281417,9995,-0.104858,0.390259,0.890991,509
29291432,10015,-0.104980,0.390625,0.890259,514
29301420,9988,-0.105835,0.390625,0.889038,511
29311441,10021,-0.105469,0.390625,0.889648,513
29321426,9985,-0.105225,0.391357,0.889648,508
29331441,10015,-0.105957,0.390869,0.889771,511
29341435,9994,-0.105957,0.390015,0.890503,509
29351436,10001,-0.105103,0.390625,0.890503,506
29361419,9983,-0.104004,0.391235,0.889526,507
29371416,9997,-0.104980,0.389771,0.888916,510
29381434,10018,-0.105591,0.390625,0.890015,502
29391439,10005,-0.106445,0.391602,0.890015,511
29401430,9991,-0.104980,0.391479,0.890137,505
29411418,9988,-0.105591,0.390503,0.890137,510
29421431,10013,-0.105103,0.390869,0.890137,512
29431428,9997,-0.104858,0.390137,0.890137,508
29441444,10016,-0.103882,0.389893,0.889038,513
29451438,9994,-0.104736,0.390625,0.890625,504
29461440,10002,-0.105225,0.390503,0.889648,510
29471416,9976,-0.105591,0.391235,0.889893,506
29481416,10000,-0.105957,0.389893,0.890747,508
29491428,10012,-0.104980,0.390015,0.889648,511
29501419,9991,-0.105225,0.389771,0.890381,510
29511423,10004,-0.103882,0.389038,0.890137,511
29521420,9997,-0.105347,0.390747,0.889771,510
29531441,10021,-0.106079,0.390503,0.890015,505
29541441,10000,-0.105347,0.391602,0.890869,506
29551440,9999,-0.105103,0.392822,0.891235,505
29561437,9997,-0.105347,0.391357,0.891235,510
29571437,10000,-0.105225,0.390259,0.890137,509
29581442,10005,-0.104126,0.389648,0.890747,510
29591442,10000,-0.105103,0.389893,0.889771,509
29601421,9979,-0.104126,0.390137,0.890015,508
29611433,10012,-0.104858,0.390869,0.890747,505
29621444,10011,-0.104492,0.390503,0.889648,510
29631430,9986,-0.104736,0.390869,0.890869,506
29641445,10015,-0.105225,0.390869,0.888794,512
29651429,9984,-0.104614,0.390137,0.891724,507
29661441,10012,-0.104980,0.390381,0.890259,511
29671435,9994,-0.105225,0.389648,0.889771,506
29681423,9988,-0.104980,0.389771,0.890747,510
29691442,10019,-0.104614,0.389893,0.890381,511
29701428,9986,-0.104980,0.390991,0.890381,512
29711444,10016,-0.105469,0.391602,0.890991,505
29721442,9998,-0.104614,0.390869,0.890015,507
29731437,9995,-0.104004,0.390625,0.890259,511
29741424,9987,-0.105225,0.390381,0.890137,506
29751421,9997,-0.104370,0.389038,0.890381,509
29761439,10018,-0.105103,0.389282,0.890747,510
29771416,9977,-0.105103,0.389038,0.890503,508
29781417,10001,-0.105591,0.390015,0.889282,510
29791442,10025,-0.105713,0.390625,0.889771,514
29801420,9978,-0.106201,0.390869,0.890259,514
29811421,10001,-0.105835,0.391113,0.890137,516
29821420,9999,-0.104248,0.392090,0.889893,516
29831419,9999,-0.104126,0.391479,0.889771,520
29841417,9998,-0.104370,0.390991,0.890625,518
29851445,10028,-0.105469,0.390503,0.889893,521
29861439,9994,-0.106445,0.389526,0.890503,523
29871436,9997,-0.105713,0.389771,0.891235,516
29881429,9993,-0.106323,0.391235,0.889771,519
29891420,9991,-0.105347,0.392578,0.890503,524
29901440,10020,-0.105347,0.391846,0.890503,522
29911443,10003,-0.104614,0.390869,0.889038,524
29921430,9987,-0.104614,0.390625,0.889893,524
29931422,9992,-0.104614,0.390625,0.890015,522
29941440,10018,-0.105713,0.389282,0.890747,523
29951427,9987,-0.105103,0.390381,0.890991,521
29961420,9993,-0.104736,0.391235,0.890137,519
29971470,10050,-0.105103,0.390381,0.890259,521
29981417,9947,-0.105347,0.390747,0.890991,520
29991416,9999,-0.105591,0.390991,0.890869,517
30001429,10013,-0.104858,0.391968,0.890503,512
30011416,9987,-0.105225,0.391113,0.891235,518
30021418,10002,-0.105957,0.390381,0.889771,507
30031416,9998,-0.103394,0.389404,0.890381,513
30041419,10003,-0.104614,0.389893,0.888916,509
30051416,9997,-0.104736,0.390503,0.890625,507
30061444,10028,-0.104858,0.390381,0.890747,509
30071432,9988,-0.105835,0.390625,0.891235,503
30081439,10007,-0.106323,0.390625,0.890381,509
30091428,9989,-0.105835,0.390503,0.888916,510
30101440,10012,-0.104248,0.390747,0.890137,513
30111431,9991,-0.104736,0.390991,0.889282,503
30121423,9992,-0.104492,0.391113,0.891113,508
30131439,10016,-0.105103,0.390381,0.889526,510
30141425,9986,-0.106323,0.389648,0.890259,510
30151438,10013,-0.104370,0.390137,0.891357,513
30161427,9989,-0.104492,0.390747,0.890625,512
30171416,9989,-0.104980,0.390991,0.890625,511
30181442,10026,-0.104736,0.390869,0.890625,511
30191423,9981,-0.105591,0.389648,0.890625,511
30201430,10007,-0.104858,0.389648,0.891724,511
30211427,9997,-0.105957,0.389771,0.890991,510
30221422,9995,-0.105225,0.389648,0.890869,512
30231427,10005,-0.104736,0.390625,0.891113,510
30241766,10339,-0.103882,0.389893,0.889282,511
30251442,9676,-0.104248,0.389893,0.889893,508
30261435,9993,-0.105347,0.389160,0.890381,507
30271443,10008,-0.105225,0.390259,0.891479,509
30281420,9977,-0.104614,0.390381,0.890015,511
30291416,9996,-0.104492,0.390137,0.890381,511
30301422,10006,-0.104980,0.388306,0.890381,510
30311420,9998,-0.105347,0.389648,0.890625,508
30321417,9997,-0.104858,0.388550,0.891113,510
30331425,10008,-0.103638,0.389771,0.890503,510
30341418,9993,-0.104126,0.391357,0.890991,509
30351453,10035,-0.104858,0.390015,0.890259,510
30361421,9968,-0.105713,0.388916,0.889526,508
30371431,10010,-0.105225,0.390259,0.889771,503
30381434,10003,-0.104614,0.391602,0.890503,507
30391416,9982,-0.104980,0.391235,0.891113,501
30401417,10001,-0.104736,0.390869,0.890503,510
30411421,10004,-0.104370,0.390015,0.889648,508
30421442,10021,-0.104980,0.389038,0.889038,506
30431429,9987,-0.105591,0.390503,0.890137,509
30441431,10002,-0.104370,0.390747,0.890747,508
30451422,9991,-0.105225,0.391846,0.890991,506
30461420,9998,-0.104980,0.391479,0.890625,510
30471429,10009,-0.104492,0.389771,0.890991,503
30481439,10010,-0.105347,0.389160,0.889404,510
30491443,10004,-0.104370,0.388184,0.889404,511
30501422,9979,-0.103882,0.388428,0.889893,507
30511423,10001,-0.103394,0.390747,0.891479,507
30521436,10013,-0.105103,0.390625,0.890259,510
30531433,9997,-0.104980,0.390747,0.889526,511
30541461,10028,-0.105469,0.391724,0.890137,512
30551441,9980,-0.105103,0.392090,0.890869,516
30561435,9994,-0.104614,0.390503,0.890503,512
30571442,10007,-0.104736,0.390015,0.890381,519
30581433,9991,-0.103760,0.388916,0.889160,523
30591437,10004,-0.104248,0.388062,0.889282,524
30601423,9986,-0.104248,0.389038,0.890381,525
30611437,10014,-0.104004,0.390015,0.891479,521
30621423,9986,-0.105103,0.391357,0.891479,526
30631430,10007,-0.105713,0.390503,0.890869,527
30641436,10006,-0.105713,0.389893,0.890747,525
30651445,10009,-0.104492,0.389038,0.890137,528
30661435,9990,-0.104492,0.390015,0.891357,521
30671441,10006,-0.104370,0.391357,0.890991,527
30681434,9993,-0.104492,0.391602,0.889893,521
30691432,9998,-0.105225,0.390381,0.889893,522
30701445,10013,-0.105225,0.390137,0.889404,522
30711436,9991,-0.105103,0.389404,0.889526,522
30721434,9998,-0.105225,0.390381,0.890015,520
30731441,10007,-0.104248,0.391968,0.890991,514
30741428,9987,-0.104736,0.391357,0.890503,519
30751441,10013,-0.105347,0.389648,0.890137,519
30761434,9993,-0.104980,0.389771,0.889160,512
30771419,9985,-0.104736,0.388306,0.890381,512
30781423,10004,-0.103027,0.390503,0.890869,513
30791420,9997,-0.104858,0.390625,0.890137,510
30801430,10010,-0.104370,0.390015,0.890137,506
30811445,10015,-0.105225,0.388672,0.890747,509
30821423,9978,-0.105835,0.389404,0.889404,512
30831437,10014,-0.106445,0.390381,0.891357,509
30841438,10001,-0.104614,0.392212,0.891602,505
30851437,9999,-0.105347,0.391968,0.891357,510
30861429,9992,-0.104980,0.389771,0.889404,510
30871444,10015,-0.104370,0.389038,0.888550,510
30881421,9977,-0.104126,0.388306,0.889160,510
30891428,10007,-0.104980,0.391113,0.891724,511
30901416,9988,-0.104126,0.391602,0.890991,510
30911445,10029,-0.104248,0.390747,0.890503,503
30921424,9979,-0.104858,0.390015,0.890869,505
30931448,10024,-0.105225,0.388062,0.890015,506
30941462,10014,-0.105225,0.390137,0.890137,509
30951441,9979,-0.103516,0.390747,0.891235,507
30961424,9983,-0.104980,0.390991,0.890625,510
30971419,9995,-0.105103,0.390991,0.891968,508
30981427,10008,-0.106079,0.389893,0.889771,512
30991417,9990,-0.105591,0.390503,0.890747,506
31001443,10026,-0.104004,0.389893,0.890259,510
31011432,9989,-0.104736,0.390991,0.890869,506
31021419,9987,-0.104614,0.391113,0.890259,508
31031434,10015,-0.105103,0.390259,0.889282,504
31041424,9990,-0.105469,0.389282,0.889893,506
31051416,9992,-0.104370,0.390137,0.890503,511
31061419,10003,-0.104614,0.390869,0.890503,511
31071445,10026,-0.103760,0.391479,0.890381,509
31081445,10000,-0.105347,0.390991,0.890869,506
31091445,10000,-0.104614,0.390869,0.888916,504
31101420,9975,-0.105347,0.390869,0.889893,506
31111461,10041,-0.104736,0.390259,0.891357,508
31121441,9980,-0.103882,0.390625,0.890991,508
31131422,9981,-0.104248,0.390381,0.889893,508
31141430,10008,-0.105103,0.388916,0.889160,507
31151436,10006,-0.103516,0.389160,0.890503,510
31161444,10008,-0.105103,0.390869,0.890381,508
31171424,9980,-0.104370,0.391235,0.890625,509
31181418,9994,-0.104370,0.391357,0.891846,507
31191428,10010,-0.104980,0.390625,0.891357,507
31201422,9994,-0.103271,0.390259,0.891357,505
31211438,10016,-0.103516,0.389526,0.890747,503
31221435,9997,-0.103516,0.389526,0.890991,505
31231430,9995,-0.104736,0.389648,0.890747,503
31241440,10010,-0.104370,0.389038,0.890259,512
31251433,9993,-0.104614,0.389282,0.889893,505
31261428,9995,-0.106201,0.390015,0.890625,513
31271416,9988,-0.105591,0.391602,0.890381,518
31281434,10018,-0.104614,0.390991,0.890869,520
31291441,10007,-0.105713,0.389771,0.890625,520
31301451,10010,-0.104858,0.389282,0.889893,522
31311445,9994,-0.104614,0.390015,0.889893,526
31321445,10000,-0.104614,0.389038,0.890747,525
31331433,9988,-0.105225,0.390747,0.889771,519
31341416,9983,-0.104980,0.391968,0.889893,529
31351431,10015,-0.105957,0.390991,0.890991,528
31361427,9996,-0.104248,0.390381,0.890869,527
31371439,10012,-0.104492,0.388550,0.890869,527
31381445,10006,-0.103027,0.389526,0.890625,527
31391431,9986,-0.103760,0.390381,0.891113,525
31401440,10009,-0.104126,0.390625,0.890747,521
31411425,9985,-0.104004,0.390869,0.890869,521
31421419,9994,-0.105103,0.389893,0.888794,516
31431439,10020,-0.105469,0.390869,0.890625,517
31441426,9987,-0.105713,0.391113,0.890137,514
31451419,9993,-0.104248,0.390869,0.890625,516
31461444,10025,-0.105103,0.391724,0.890259,517
31471430,9986,-0.104614,0.391479,0.890747,511
31481440,10010,-0.105591,0.390625,0.889282,516
31491418,9978,-0.104370,0.389893,0.891479,513
31501458,10040,-0.104492,0.390381,0.891235,507
31511437,9979,-0.104126,0.390869,0.889526,509
31521420,9983,-0.105347,0.391357,0.890259,507
31531433,10013,-0.105835,0.390625,0.889771,506
31541444,10011,-0.105713,0.390259,0.890869,509
31551430,9986,-0.106201,0.390503,0.889771,497
31561440,10010,-0.103882,0.392212,0.890015,505
31571431,9991,-0.104980,0.391968,0.891113,508
31581444,10013,-0.104126,0.391357,0.890015,507
31591431,9987,-0.104614,0.390869,0.890015,508
31601424,9993,-0.106079,0.389771,0.889404,508
31611428,10004,-0.105835,0.390259,0.891357,505
31621433,10005,-0.104248,0.389771,0.890747,508
31631427,9994,-0.105469,0.390991,0.890137,510
31641423,9996,-0.106323,0.389404,0.889526,510
31651444,10021,-0.105835,0.389526,0.890747,505
31661435,9991,-0.104370,0.390015,0.890991,511
31671421,9986,-0.103760,0.390015,0.890869,511
31681457,10036,-0.105591,0.390625,0.891235,512
31691433,9976,-0.105103,0.390747,0.890503,508
31701418,9985,-0.104980,0.390869,0.889893,511
31711422,10004,-0.105713,0.389771,0.890381,506
31721416,9994,-0.104736,0.390137,0.890137,506
31731430,10014,-0.104614,0.390137,0.890625,507
31741426,9996,-0.104858,0.390137,0.889404,508
31751428,10002,-0.105347,0.390747,0.889771,501
31761417,9989,-0.105347,0.390625,0.890259,509
31771441,10024,-0.104614,0.390747,0.889526,508
31781434,9993,-0.104370,0.390503,0.890259,508
31791430,9996,-0.104736,0.390625,0.889893,507
31801437,10007,-0.105957,0.390137,0.890747,507
31811421,9984,-0.104126,0.389526,0.890381,508
31821436,10015,-0.105591,0.390137,0.890503,505
31831419,9983,-0.105591,0.389893,0.890503,507
31841436,10017,-0.105713,0.391235,0.891113,507
31851429,9993,-0.106079,0.391968,0.890381,507
31861440,10011,-0.105103,0.390747,0.890259,508
31871427,9987,-0.104126,0.389282,0.889648,506
31881419,9992,-0.104004,0.390381,0.889404,507
31891440,10021,-0.104126,0.389282,0.890137,508
31901419,9979,-0.105469,0.390869,0.890259,507
31911421,10002,-0.105347,0.391724,0.889648,508
31921425,10004,-0.105713,0.390625,0.890869,509
31931420,9995,-0.105103,0.390137,0.889893,504
31941425,10005,-0.103760,0.390503,0.890259,506
31951430,10005,-0.104004,0.390503,0.891113,505
31961431,10001,-0.104004,0.390747,0.890259,508
31971436,10005,-0.104980,0.389893,0.889893,506
31981431,9995,-0.105591,0.390381,0.889282,507
31991443,10012,-0.104980,0.390381,0.890137,508
32001427,9984,-0.105713,0.390747,0.890381,509
32011437,10010,-0.105103,0.392212,0.890747,503
32021445,10008,-0.104248,0.392456,0.891113,508
32031428,9983,-0.104736,0.389160,0.890747,508
32041440,10012,-0.104248,0.388916,0.890625,508
32051444,10004,-0.104858,0.389404,0.889893,507
32061426,9982,-0.104492,0.390137,0.889404,507
32071429,10003,-0.105347,0.390869,0.889893,510
32081435,10006,-0.105347,0.391113,0.890015,512
32091446,10011,-0.106445,0.391357,0.889526,511
32101419,9973,-0.106079,0.391846,0.888916,515
32111428,10009,-0.105469,0.390625,0.889648,518
32121433,10005,-0.104614,0.390869,0.888672,517
32131441,10008,-0.105103,0.390869,0.889648,521
32141423,9982,-0.104858,0.390869,0.889648,519
32151439,10016,-0.105347,0.390259,0.889404,525
32161445,10006,-0.105469,0.389893,0.890747,527
32171444,9999,-0.105469,0.390259,0.891235,523
32181445,10001,-0.105347,0.392090,0.890747,523
32191437,9992,-0.104736,0.390991,0.890991,526
32201422,9985,-0.104736,0.390381,0.890137,527
32211439,10017,-0.104614,0.389771,0.889526,528
32221439,10000,-0.104126,0.390503,0.889038,527
32231429,9990,-0.103882,0.390503,0.890503,526
32241459,10030,-0.105103,0.390259,0.889893,522
32251440,9981,-0.105835,0.391602,0.889282,524
32261452,10012,-0.106079,0.391602,0.890137,519
32271422,9970,-0.106934,0.390503,0.890991,521
32281435,10013,-0.107056,0.390259,0.889526,520
32291420,9985,-0.105347,0.391113,0.890747,514
32301417,9997,-0.104858,0.390991,0.890259,517
32311434,10017,-0.105347,0.389404,0.890015,510
32321430,9996,-0.104614,0.390137,0.890381,512
32331439,10009,-0.105225,0.390869,0.889526,514
32341416,9977,-0.105713,0.390503,0.890259,511
32351428,10012,-0.105103,0.391602,0.889526,513
32361425,9997,-0.105225,0.392090,0.888672,512
32371445,10020,-0.105469,0.390869,0.890015,505
32381436,9991,-0.105713,0.390259,0.890625,512
32391444,10008,-0.106079,0.390869,0.890991,506
32401427,9983,-0.104736,0.391479,0.891113,511
32411424,9997,-0.104492,0.392090,0.890747,506
32421436,10012,-0.104126,0.391602,0.890259,505
32431435,9999,-0.105591,0.391113,0.890503,510
32441434,9999,-0.105835,0.390625,0.889771,508
32451434,10000,-0.106201,0.390259,0.888672,510
32461424,9990,-0.104980,0.390259,0.890747,510
32471431,10007,-0.105103,0.390381,0.890991,510
32481425,9994,-0.104980,0.390259,0.890625,509
32491428,10003,-0.104980,0.390869,0.889526,510
32501445,10017,-0.105957,0.390869,0.889893,509
32511445,10000,-0.104980,0.390503,0.891113,510
32521442,9997,-0.104004,0.390869,0.890015,510
32531437,9995,-0.104980,0.390503,0.889648,506
32541437,10000,-0.104248,0.390015,0.890015,504
32551439,10002,-0.105469,0.390503,0.889526,510
32561428,9989,-0.105713,0.390869,0.890381,506
32571419,9991,-0.105225,0.390381,0.890259,507
32581431,10012,-0.105103,0.391357,0.890015,507
32591417,9986,-0.105469,0.391602,0.890015,509
32601436,10019,-0.105225,0.391235,0.890625,506
32611420,9984,-0.104980,0.390869,0.889404,504
32621438,10018,-0.105591,0.391357,0.889160,507
32631457,10019,-0.104248,0.390137,0.889771,501
32641436,9979,-0.104980,0.390625,0.891113,507
32651425,9989,-0.105225,0.390991,0.889771,500
32661439,10014,-0.105225,0.391235,0.890259,508
32671433,9994,-0.105225,0.390259,0.890259,503
32681437,10004,-0.106323,0.390015,0.890381,507
32691417,9980,-0.104492,0.391602,0.889038,508
32701421,10004,-0.104614,0.392456,0.890259,508
32711417,9996,-0.104980,0.391113,0.890259,507
32721436,10019,-0.104614,0.391235,0.890259,506
32731445,10009,-0.105103,0.391724,0.889648,507
32741419,9974,-0.104492,0.390869,0.890015,503
32751427,10008,-0.103760,0.391113,0.889404,507
32761440,10013,-0.105835,0.390259,0.889404,504
32771425,9985,-0.105957,0.390625,0.889771,507
32781421,9996,-0.106445,0.390015,0.889893,507
32791437,10016,-0.107300,0.392090,0.890503,504
32801463,10026,-0.105225,0.390869,0.889404,503
32811438,9975,-0.104858,0.388916,0.888428,508
32821446,10008,-0.103882,0.388916,0.890015,507
32831422,9976,-0.104492,0.390747,0.890015,503
32841425,10003,-0.104126,0.390625,0.889404,507
32851420,9995,-0.105835,0.390625,0.888550,507
32861418,9998,-0.106079,0.391357,0.889404,503
32871424,10006,-0.105469,0.392944,0.890015,503
32881434,10010,-0.104248,0.391357,0.891357,509
32891421,9987,-0.104614,0.389771,0.890991,502
32901425,10004,-0.106323,0.390259,0.889160,509
32911430,10005,-0.105591,0.390869,0.889160,507
32921428,9998,-0.104736,0.391235,0.890259,505
32931423,9995,-0.104004,0.391235,0.889771,507
32941436,10013,-0.104492,0.391479,0.890869,508
32951441,10005,-0.105591,0.391357,0.890625,503
32961445,10004,-0.105469,0.390625,0.890503,502
32971435,9990,-0.105347,0.390625,0.889282,505
32981442,10007,-0.104126,0.388794,0.889282,509
32991427,9985,-0.104614,0.390137,0.890015,503
33001422,9995,-0.105103,0.390259,0.890747,510
33011445,10023,-0.106323,0.391846,0.889648,508
33021444,9999,-0.105957,0.391479,0.890137,510
33031423,9979,-0.106689,0.391235,0.889404,512
33041438,10015,-0.106445,0.391479,0.889526,512
33051444,10006,-0.105591,0.391235,0.890015,520
33061428,9984,-0.104736,0.391235,0.890625,522
33071435,10007,-0.105225,0.390259,0.890137,523
33081425,9990,-0.105225,0.390503,0.888672,524
33091425,10000,-0.105347,0.389771,0.888916,525
33101440,10015,-0.105103,0.390747,0.890137,522
33111433,9993,-0.105713,0.391113,0.890259,521
33121425,9992,-0.105469,0.391113,0.890381,527
33131442,10017,-0.104370,0.391235,0.890869,527
33141437,9995,-0.105835,0.390503,0.889648,523
33151427,9990,-0.105469,0.390625,0.889893,528
33161441,10014,-0.104370,0.390015,0.889282,528
33171452,10011,-0.104980,0.390747,0.890259,521
33181432,9980,-0.104980,0.391357,0.889893,517
33191427,9995,-0.105103,0.391357,0.888916,517
33201442,10015,-0.105469,0.390747,0.889526,514
33211440,9998,-0.105957,0.391113,0.890381,520
33221431,9991,-0.105347,0.390991,0.891113,517
33231419,9988,-0.105347,0.390991,0.889893,517
33241443,10024,-0.105835,0.390625,0.889282,518
33251424,9981,-0.105103,0.391479,0.890259,515
33261426,10002,-0.105469,0.391602,0.890625,514
33271439,10013,-0.105225,0.390503,0.888916,514
33281416,9977,-0.105713,0.390259,0.889526,510
33291445,10029,-0.105225,0.390137,0.890381,512
33301437,9992,-0.104736,0.390381,0.891357,505
33311433,9996,-0.105713,0.391602,0.890503,506
33321429,9996,-0.105347,0.390015,0.890137,509
33331431,10002,-0.104248,0.390259,0.889648,510
33341419,9988,-0.105469,0.391968,0.890259,509
33351417,9998,-0.105469,0.391846,0.890259,503
33361431,10014,-0.106201,0.390991,0.890869,510
33371442,10011,-0.106323,0.390747,0.891357,508
33381430,9988,-0.105957,0.390503,0.889893,503
33391444,10014,-0.104370,0.389771,0.890991,508
33401416,9972,-0.104614,0.390259,0.889160,502
33411427,10011,-0.104614,0.389526,0.890503,508
33421442,10015,-0.104004,0.390747,0.890625,506
33431418,9976,-0.105713,0.391235,0.890991,503
33441433,10015,-0.105347,0.391602,0.890869,509
33451424,9991,-0.106201,0.390015,0.890137,502
33461418,9994,-0.106079,0.388916,0.889526,509
33471434,10016,-0.105957,0.389648,0.890625,511
33481430,9996,-0.104492,0.388916,0.890625,504
33491441,10011,-0.105469,0.390869,0.890381,511
33501416,9975,-0.104248,0.391113,0.890137,502
33511431,10015,-0.104980,0.390625,0.890015,510
33521429,9998,-0.104858,0.390015,0.890991,503
33531427,9998,-0.105225,0.390137,0.889282,502
33541440,10013,-0.104858,0.390381,0.890625,504
33551439,9999,-0.105957,0.390625,0.888672,508
33561456,10017,-0.105469,0.390381,0.889893,507
33571444,9988,-0.104004,0.390503,0.890381,507
33581440,9996,-0.104736,0.390625,0.889282,507
33592337,10897,-0.104736,0.390625,0.890869,508
33608567,16230,-0.105835,0.390991,0.890503,508
33615798,7231,-0.104614,0.391113,0.890015,506
33622302,6504,-0.105225,0.390259,0.889648,503
33631429,9127,-0.105713,0.389893,0.889893,506
33641436,10007,-0.105103,0.390625,0.890137,500
33651437,10001,-0.105591,0.390747,0.890381,505
33661423,9986,-0.105591,0.390991,0.890503,504
33671445,10022,-0.105225,0.390137,0.890015,507
33681432,9987,-0.104858,0.390503,0.888916,500
33691440,10008,-0.105347,0.390503,0.889648,503
33701434,9994,-0.105469,0.390625,0.889526,508
33714385,12951,-0.105347,0.390869,0.891235,504
33721444,7059,-0.104370,0.391113,0.891357,509
33731457,10013,-0.104248,0.389282,0.889893,502
33741419,9962,-0.105713,0.389038,0.888916,505
33751430,10011,-0.104736,0.388306,0.888916,508
33761421,9991,-0.104980,0.389771,0.890503,506
33771431,10010,-0.105957,0.390747,0.890137,505
33781420,9989,-0.106323,0.390259,0.890625,502
33791433,10013,-0.104980,0.390503,0.890503,507
33801418,9985,-0.105103,0.390503,0.890747,507
33811439,10021,-0.105103,0.390015,0.891235,504
33821421,9982,-0.104370,0.389771,0.889160,506
33831425,10004,-0.105103,0.391113,0.889282,500
33841434,10009,-0.105591,0.390991,0.891113,508
33851432,9998,-0.105591,0.391724,0.890503,508
33861428,9996,-0.104858,0.391479,0.890381,507
33871430,10002,-0.105103,0.391357,0.890991,505
33881425,9995,-0.104858,0.389404,0.890625,507
33891426,10001,-0.104004,0.389038,0.889404,503
33901440,10014,-0.103760,0.389893,0.890015,505
33911435,9995,-0.104858,0.389038,0.889648,504
33921452,10017,-0.105469,0.389038,0.891113,509
33931419,9967,-0.105347,0.390869,0.890259,509
33941438,10019,-0.104614,0.392578,0.890869,511
33951440,10002,-0.104736,0.391235,0.890625,510
33961418,9978,-0.103882,0.390381,0.888672,516
33971429,10011,-0.104736,0.390137,0.888550,516
33981431,10002,-0.104614,0.390259,0.890015,520
33991419,9988,-0.103882,0.390015,0.889404,514
34001423,10004,-0.105225,0.390747,0.889771,524
34011433,10010,-0.104858,0.390869,0.890503,521
34021442,10009,-0.105469,0.390259,0.890991,519
34031442,10000,-0.105225,0.390381,0.890015,525
34041426,9984,-0.105591,0.389038,0.890991,527
34051428,10002,-0.105103,0.389404,0.890869,524
34061436,10008,-0.105347,0.389160,0.890869,524
34071428,9992,-0.103882,0.390381,0.889404,523
34081430,10002,-0.104370,0.389648,0.890503,524
34091435,10005,-0.103394,0.390137,0.889893,520
34101429,9994,-0.104736,0.391357,0.890015,520
34111418,9989,-0.104126,0.390381,0.889771,519
34121448,10030,-0.105225,0.389282,0.892212,519
34131445,9997,-0.104980,0.390503,0.891235,516
34141427,9982,-0.104858,0.391357,0.890869,517
34151434,10007,-0.105103,0.390381,0.889526,510
34161423,9989,-0.104004,0.389526,0.890869,511
34171441,10018,-0.104614,0.390259,0.890137,513
34181431,9990,-0.104736,0.391357,0.890625,509
34191416,9985,-0.105103,0.390869,0.889282,503
34201425,10009,-0.105347,0.388794,0.888062,509
34211437,10012,-0.104858,0.389282,0.890503,510
34221433,9996,-0.104492,0.392578,0.891113,509
34231418,9985,-0.104004,0.392822,0.891357,507
34241434,10016,-0.103271,0.391235,0.891724,509
34251440,10006,-0.104004,0.390015,0.890381,506
34261423,9983,-0.104980,0.389526,0.890503,506
34271427,10004,-0.103882,0.390259,0.890625,508
34281440,10013,-0.104614,0.390137,0.889038,507
34291424,9984,-0.105347,0.390381,0.889526,510
34301427,10003,-0.105347,0.389648,0.891235,504
34311440,10013,-0.104736,0.390625,0.889404,511
34321417,9977,-0.103271,0.389282,0.889648,511
34331465,10048,-0.104370,0.388794,0.889282,510
34341434,9969,-0.104736,0.390259,0.890869,504
34351438,10004,-0.104370,0.391846,0.890625,510
34361441,10003,-0.104248,0.391235,0.890259,511
34371424,9983,-0.103882,0.388062,0.889893,512
34381433,10009,-0.106079,0.388062,0.888306,510
34391436,10003,-0.105347,0.387939,0.890625,509
34401421,9985,-0.105591,0.389404,0.890869,509
34411437,10016,-0.105225,0.389648,0.891235,508
34421442,10005,-0.104370,0.390259,0.890869,508
34431421,9979,-0.103149,0.391357,0.890137,506
34441444,10023,-0.101807,0.390991,0.890381,510
34451437,9993,-0.103027,0.390991,0.889893,506
34461423,9986,-0.103271,0.390747,0.890503,501
34471424,10001,-0.104492,0.389771,0.890869,508
34481428,10004,-0.106201,0.388184,0.890991,505
34491444,10016,-0.105591,0.388916,0.890991,509
34501422,9978,-0.105835,0.390259,0.890015,506
34511416,9994,-0.105835,0.390625,0.890259,510
34521441,10025,-0.104004,0.390015,0.890503,509
34531461,10020,-0.103516,0.389282,0.889404,505
34541425,9964,-0.103271,0.391968,0.889893,504
34551427,10002,-0.104004,0.390747,0.889648,505
34561425,9998,-0.103394,0.389648,0.890015,505
34571427,10002,-0.105347,0.388672,0.890259,504
34581416,9989,-0.105591,0.388306,0.890503,503
34591426,10010,-0.105347,0.390137,0.890381,501
34601427,10001,-0.105469,0.390503,0.889282,503
34611419,9992,-0.105347,0.388550,0.890503,508
34621436,10017,-0.104370,0.389648,0.889404,507
34631433,9997,-0.104492,0.391235,0.889160,503
34641416,9983,-0.103882,0.391235,0.891113,509
34651443,10027,-0.104004,0.392212,0.890503,507
34661442,9999,-0.104614,0.391479,0.890991,504
34671444,10002,-0.104370,0.390381,0.890747,507
34681420,9976,-0.105591,0.389404,0.891235,506
34691418,9998,-0.105957,0.388550,0.890015,502
34701431,10013,-0.104126,0.388672,0.888794,508
34711425,9994,-0.103516,0.389404,0.890869,510
34721420,9995,-0.104492,0.390381,0.891113,510
34731584,10164,-0.102905,0.391357,0.890625,512
34741425,9841,-0.105103,0.390869,0.890503,514
34751441,10016,-0.105103,0.390991,0.889404,512
34761422,9981,-0.104126,0.390625,0.890503,518
34771421,9999,-0.104614,0.390137,0.889893,520
34781423,10002,-0.104736,0.391113,0.890869,516
34791444,10021,-0.105103,0.390015,0.890869,533
34801425,9981,-0.105469,0.388428,0.890259,519
34811436,10011,-0.104004,0.390381,0.890137,524
34821418,9982,-0.103271,0.390625,0.890015,524
34831431,10013,-0.104980,0.389404,0.890991,524
34841440,10009,-0.103882,0.389526,0.891113,519
34851417,9977,-0.104492,0.391113,0.890625,522
34861429,10012,-0.104126,0.390259,0.890625,521
34871437,10008,-0.104736,0.390503,0.890869,518
34881444,10007,-0.105103,0.390137,0.889771,521
34891434,9990,-0.105347,0.389893,0.889648,521
34901430,9996,-0.105957,0.390625,0.889404,519
34911430,10000,-0.104980,0.389038,0.890015,517
34921435,10005,-0.105225,0.390869,0.890991,518
34931440,10005,-0.105347,0.390625,0.891479,513
34941420,9980,-0.104126,0.390503,0.890137,510
34951435,10015,-0.104248,0.390381,0.890015,514
34961443,10008,-0.104004,0.389526,0.889404,516
34971428,9985,-0.104980,0.390015,0.890625,509
34981429,10001,-0.105469,0.389771,0.889648,511
34991428,9999,-0.105591,0.389893,0.889771,512
35001436,10008,-0.105957,0.390503,0.889893,511
35011429,9993,-0.106079,0.389893,0.889648,503
35021423,9994,-0.106079,0.390625,0.890259,508
35031427,10004,-0.104370,0.391724,0.890503,510
