t_us,dt_us,ax,ay,az,ppg
10235327,10001,0.796509,-0.051636,0.526855,520
10245340,10013,0.901611,-0.080933,0.525635,520
10255344,10004,0.945312,-0.094604,0.533936,523
10265332,9988,0.981445,-0.106445,0.538940,525
10275327,9995,1.000366,-0.112549,0.543701,520
10285345,10018,1.007324,-0.114014,0.545898,521
10295328,9983,1.000488,-0.096924,0.536621,520
10305341,10013,0.984741,-0.082886,0.532104,527
10315332,9991,0.969727,-0.063843,0.524536,525
10325336,10004,0.952026,-0.041870,0.517578,526
10335328,9992,0.937988,-0.022827,0.510132,521
10345346,10018,0.925659,-0.005737,0.504517,509
10355349,10003,0.900513,0.023071,0.495605,523
10365337,9988,0.894165,0.034546,0.489014,522
10375337,10000,0.887573,0.044800,0.484497,519
10385373,10036,0.883911,0.052124,0.481201,514
10395328,9955,0.881714,0.057007,0.480347,517
10405332,10004,0.872803,0.067871,0.484375,517
10415336,10004,0.873047,0.075562,0.478149,515
10425355,10019,0.879028,0.072998,0.492920,514
10435345,9990,0.871948,0.060669,0.485718,513
10445348,10003,0.864868,0.047974,0.484375,513
10455333,9985,0.862915,0.043579,0.442139,512
10465332,9999,0.868164,0.043457,0.468384,505
10475348,10016,0.872559,0.049438,0.475464,514
10485353,10005,0.868652,0.057129,0.483643,510
10495337,9984,0.864868,0.061890,0.490356,504
10505328,9991,0.863525,0.064575,0.496826,512
10515326,9998,0.860352,0.071533,0.500854,507
10525353,10027,0.854492,0.078613,0.502563,513
10535452,10099,0.848755,0.088623,0.505615,513
10545343,9891,0.841309,0.100830,0.506592,512
10555350,10007,0.835327,0.109619,0.508423,514
10565326,9976,0.826294,0.114380,0.508667,514
10575352,10026,0.809448,0.124268,0.508911,512
10585343,9991,0.804932,0.126709,0.507202,513
10595342,9999,0.799561,0.126099,0.504761,511
10605335,9993,0.795654,0.124146,0.501221,513
10615342,10007,0.792236,0.120117,0.499634,510
10625368,10026,0.786377,0.107056,0.491211,512
10635339,9971,0.783691,0.100952,0.487671,508
10645334,9995,0.781128,0.096191,0.485229,510
10655336,10002,0.783813,0.091675,0.482788,506
10665330,9994,0.788574,0.086670,0.478149,511
10675330,10000,0.799927,0.078979,0.473877,511
10685354,10024,0.828369,0.071899,0.475952,512
10695343,9989,0.836670,0.073486,0.479126,505
10705327,9984,0.845581,0.071411,0.483521,512
10715341,10014,0.855347,0.066162,0.485474,509
10725353,10012,0.866333,0.057373,0.485229,508
10735355,10002,0.884766,0.038818,0.478271,509
10745330,9975,0.888184,0.032593,0.475342,509
10755350,10020,0.884033,0.031250,0.472290,510
10765350,10000,0.873901,0.030762,0.470459,509
10775343,9993,0.862915,0.030640,0.468872,510
10785329,9986,0.853516,0.030151,0.462402,509
10795346,10017,0.829224,0.031128,0.459595,512
10805328,9982,0.820801,0.027832,0.452271,512
10815337,10009,0.810547,0.023804,0.445801,510
10825346,10009,0.804199,0.017212,0.440918,514
10835343,9997,0.793457,0.011719,0.435181,514
10845343,10000,0.764893,0.009399,0.429199,516
10855338,9995,0.753662,0.006470,0.423706,514
10865340,10002,0.744629,-0.000244,0.415771,521
10875335,9995,0.745483,-0.012817,0.406982,522
10885356,10021,0.755981,-0.023437,0.398926,523
10895328,9972,0.770142,-0.034912,0.392090,523
10905350,10022,0.825806,-0.052246,0.392456,526
10915349,9999,0.857544,-0.058228,0.397339,544
10925331,9982,0.892700,-0.063477,0.404297,525
10935645,10314,0.922852,-0.067383,0.412354,524
10945343,9698,0.948486,-0.070679,0.422485,525
10955329,9986,0.987549,-0.071167,0.442383,518
10965344,10015,0.994385,-0.070923,0.450195,524
10975349,10005,0.999390,-0.072388,0.455322,521
10985343,9994,0.999512,-0.073364,0.457153,523
10995333,9990,0.997314,-0.071655,0.457275,522
11005329,9996,0.994385,-0.075562,0.458862,522
11015352,10023,0.985840,-0.075806,0.459717,518
11025347,9995,0.985229,-0.072144,0.462524,512
11035352,10005,0.984131,-0.073486,0.465576,516
11045338,9986,0.982300,-0.075806,0.467041,516
11055353,10015,0.980713,-0.079956,0.468140,516
11065334,9981,0.974731,-0.085327,0.471069,516
11075327,9993,0.969604,-0.086548,0.472900,516
11085339,10012,0.964233,-0.086792,0.471802,513
11095349,10010,0.950806,-0.096436,0.473633,508
11105355,10006,0.946533,-0.094482,0.468018,513
11115343,9988,0.931274,-0.104858,0.463745,513
11125353,10010,0.928711,-0.105957,0.464355,516
11135340,9987,0.926025,-0.110352,0.468750,511
11145331,9991,0.922363,-0.100342,0.470337,514
11155347,10016,0.920654,-0.087769,0.478027,516
11165333,9986,0.918335,-0.080322,0.480957,512
11175331,9998,0.904907,-0.082031,0.490967,512
11185353,10022,0.913574,-0.075684,0.491333,512
11195328,9975,0.917480,-0.085083,0.500000,513
11205336,10008,0.907471,-0.078735,0.497925,512
11215334,9998,0.902100,-0.072510,0.497681,513
11225351,10017,0.896484,-0.057617,0.489624,513
11235347,9996,0.891602,-0.067749,0.483398,514
11245350,10003,0.890747,-0.077271,0.478027,510
11255344,9994,0.892456,-0.078125,0.475342,514
11265350,10006,0.887573,-0.084351,0.472778,509
11275336,9986,0.890381,-0.088257,0.471436,513
11285350,10014,0.892212,-0.099121,0.467407,510
11295326,9976,0.891846,-0.104858,0.465576,511
11305326,10000,0.890381,-0.107056,0.464111,513
11315329,10003,0.889526,-0.106201,0.463257,513
11325332,10003,0.886841,-0.106079,0.461548,513
11335328,9996,0.884888,-0.106079,0.459229,508
11345348,10020,0.882935,-0.100098,0.458984,506
11356867,11519,0.883667,-0.093628,0.461914,509
11365347,8480,0.888428,-0.087891,0.463135,510
11375333,9986,0.898926,-0.083984,0.466553,510
11385344,10011,0.907471,-0.082520,0.469238,510
11395352,10008,0.916626,-0.078491,0.471802,511
11405339,9987,0.917847,-0.074829,0.472168,512
11415335,9996,0.917236,-0.070312,0.472168,503
11425349,10014,0.917969,-0.068115,0.471802,510
11435346,9997,0.921021,-0.066895,0.468750,508
11445339,9993,0.934814,-0.069824,0.469360,512
11455333,9994,0.939575,-0.068848,0.470459,513
11465334,10001,0.941528,-0.066895,0.471191,516
11475353,10019,0.938354,-0.063477,0.473755,517
11485362,10009,0.931274,-0.059692,0.475098,511
11495338,9976,0.916260,-0.054565,0.476929,521
11505345,10007,0.865723,-0.039673,0.475830,524
11515377,10032,0.834473,-0.031860,0.475220,523
11525342,9965,0.801880,-0.022827,0.470459,523
11535350,10008,0.774780,-0.015259,0.463501,529
11545348,9998,0.755615,-0.012329,0.454834,530
11555340,9992,0.736938,-0.002563,0.442627,530
11565344,10004,0.773437,-0.000977,0.436890,528
11575330,9986,0.798584,0.004639,0.435303,521
11585328,9998,0.833252,0.002319,0.438110,524
11595351,10023,0.876343,-0.004150,0.448486,518
11605342,9991,0.922119,0.001709,0.468262,524
11615339,9997,1.003784,0.030518,0.482178,522
11625354,10015,1.029175,0.041870,0.490967,518
11635347,9993,1.043213,0.047363,0.499146,513
11645349,10002,1.052246,0.048950,0.500122,515
11655351,10002,1.050903,0.045410,0.497314,516
11665333,9982,1.019043,0.030151,0.482178,513
11675343,10010,1.007568,0.027344,0.471069,513
11685354,10011,1.000122,0.032959,0.462036,512
11695330,9976,0.990967,0.042847,0.454468,513
11705365,10035,0.980103,0.056396,0.447754,516
11715355,9990,0.963013,0.067505,0.442261,512
11725337,9982,0.938354,0.086548,0.441162,515
11735336,9999,0.928589,0.093262,0.436401,518
11745330,9994,0.918945,0.094360,0.432373,514
11755326,9996,0.908936,0.098022,0.428955,512
11765337,10011,0.895752,0.102661,0.426392,506
11775352,10015,0.863892,0.103027,0.419312,512
11785330,9978,0.848145,0.102417,0.414673,512
11795330,10000,0.835815,0.099121,0.411377,511
11805355,10025,0.821777,0.098877,0.407715,513
11815355,10000,0.809570,0.096558,0.401245,512
11825354,9999,0.798462,0.094971,0.394043,511
11835329,9975,0.786865,0.094238,0.391357,510
11845353,10024,0.783203,0.095581,0.391357,509
11855352,9999,0.781616,0.097656,0.394775,509
11865338,9986,0.778931,0.101074,0.399048,503
11875332,9994,0.778320,0.107178,0.403809,509
11885353,10021,0.780884,0.114258,0.421021,508
11895342,9989,0.783936,0.115234,0.428589,513
11905343,10001,0.785889,0.115967,0.436279,506
11915362,10019,0.787354,0.115967,0.446045,505
11925347,9985,0.792847,0.117432,0.450439,506
11935339,9992,0.797974,0.112427,0.450073,504
11945337,9998,0.796997,0.105347,0.446533,508
11955335,9998,0.798950,0.097046,0.441772,500
11965338,10003,0.801514,0.086670,0.437500,507
11975344,10006,0.807373,0.076660,0.437866,504
11985344,10000,0.814209,0.069214,0.438232,506
11995335,9991,0.831665,0.058472,0.447998,506
12005329,9994,0.842896,0.055664,0.456543,506
12015333,10004,0.852783,0.052856,0.464722,502
12025344,10011,0.865112,0.049194,0.467041,502
12035349,10005,0.884033,0.038330,0.471802,508
12045330,9981,0.923462,0.036011,0.481689,507
12055343,10013,0.941284,0.041626,0.488892,501
12065333,9990,0.946777,0.045898,0.497192,509
12075355,10022,0.954956,0.039307,0.505005,502
12085333,9978,0.961914,0.035034,0.514282,510
12095328,9995,0.961792,0.038086,0.519653,506
12105332,10004,0.948242,0.043823,0.525757,510
12115342,10010,0.943359,0.043213,0.526611,513
12125335,9993,0.936890,0.032715,0.526245,511
12135368,10033,0.934937,0.023804,0.521851,515
12145345,9977,0.931519,0.024780,0.519897,520
12155356,10011,0.918457,0.029785,0.507446,520
12165379,10023,0.901489,0.031372,0.502197,521
12175332,9953,0.880981,0.023926,0.500122,525
12185351,10019,0.847168,0.016479,0.492676,524
12195326,9975,0.811401,0.000488,0.480103,522
12205343,10017,0.779297,-0.007080,0.464111,528
12215333,9990,0.722778,-0.021973,0.425415,528
12225347,10014,0.708374,-0.026855,0.408813,528
12235333,9986,0.706055,-0.036011,0.395874,529
12245351,10018,0.718750,-0.048340,0.391479,526
12255350,9999,0.744629,-0.058838,0.386108,524
12265336,9986,0.818115,-0.050903,0.387817,523
12275354,10018,0.860718,-0.047852,0.392578,521
12285342,9988,0.908447,-0.050293,0.401733,520
12295332,9990,0.945923,-0.058716,0.413696,509
12305345,10013,0.975464,-0.068726,0.431030,513
12315332,9987,0.998291,-0.073120,0.452393,509
12325351,10019,1.025146,-0.076538,0.475464,510
12335333,9982,1.024658,-0.086914,0.474854,508
12345366,10033,1.019897,-0.098389,0.469604,506
12355346,9980,1.010132,-0.114136,0.459106,512
12365327,9981,1.003296,-0.128052,0.454346,508
12375329,10002,0.999023,-0.136963,0.452881,506
12385331,10002,0.989990,-0.133545,0.454224,512
12395329,9998,0.982300,-0.123413,0.457275,512
12405344,10015,0.974731,-0.115356,0.459351,514
12415344,10000,0.965698,-0.109009,0.463135,511
12425332,9988,0.956543,-0.104004,0.461548,515
12435340,10008,0.930054,-0.101440,0.458252,514
12445335,9995,0.915405,-0.096069,0.453857,508
12455352,10017,0.900513,-0.090820,0.448364,515
12465353,10001,0.885132,-0.087158,0.444702,515
12475332,9979,0.870728,-0.085815,0.441162,510
12485343,10011,0.850708,-0.084106,0.443237,510
12495344,10001,0.844727,-0.076416,0.447876,514
12505329,9985,0.840820,-0.065186,0.456177,515
12515327,9998,0.841431,-0.050049,0.463867,514
12525340,10013,0.843994,-0.034912,0.469849,514
12535335,9995,0.851929,-0.021484,0.483521,509
12545333,9998,0.864990,-0.009766,0.486572,512
12555340,10007,0.869507,-0.007080,0.488159,508
12565337,9997,0.873413,-0.005127,0.487793,510
12575347,10010,0.877808,-0.002563,0.485229,511
12585351,10004,0.883423,-0.001221,0.481567,511
12595342,9991,0.889893,-0.006836,0.467285,506
12605334,9992,0.890991,-0.013916,0.460571,511
12615326,9992,0.893188,-0.020020,0.458740,505
12625332,10006,0.896606,-0.024658,0.459351,506
12635350,10018,0.897095,-0.030884,0.462280,510
12645342,9992,0.898071,-0.039185,0.466797,509
12655332,9990,0.901245,-0.042603,0.464233,505
12665348,10016,0.903076,-0.046021,0.460937,490
12675334,9986,0.904907,-0.043213,0.456787,504
12685351,10017,0.901245,-0.039673,0.455078,503
12695349,9998,0.900024,-0.036133,0.458008,509
12705340,9991,0.909058,-0.025146,0.443970,510
12715336,9996,0.931396,-0.021973,0.446777,506
12725330,9994,0.935547,-0.033447,0.448730,505
12735335,10005,0.930542,-0.040161,0.446289,512
12745345,10010,0.941284,-0.034302,0.447021,533
12755352,10007,0.942383,-0.018921,0.445435,514
12765333,9981,0.934326,-0.022339,0.442383,517
12775351,10018,0.931763,-0.026123,0.439941,518
12785334,9983,0.930054,-0.025146,0.436890,521
12795348,10014,0.925537,-0.024170,0.434692,521
12805337,9989,0.917969,-0.026367,0.431396,523
12815331,9994,0.894287,-0.023437,0.427246,525
12825379,10048,0.873779,-0.017090,0.426147,523
12835335,9956,0.853027,-0.010376,0.425171,529
12845351,10016,0.828247,-0.004150,0.420044,528
12855334,9983,0.800171,-0.002563,0.411621,519
12865355,10021,0.753052,-0.004517,0.390381,519
12875345,9990,0.744995,-0.007935,0.377441,525
12885353,10008,0.752563,-0.009644,0.367188,522
12895340,9987,0.778564,-0.008301,0.362427,521
12905349,10009,0.819214,-0.002563,0.364380,520
12915355,10006,0.868164,0.004150,0.375000,515
12925352,9997,0.952881,0.025513,0.408081,511
12935328,9976,0.980225,0.035767,0.420532,510
12945353,10025,0.994751,0.039429,0.431885,505
12955351,9998,1.000366,0.033447,0.436890,510
12965345,9994,0.996582,0.023315,0.436279,507
12975351,10006,0.982666,0.011108,0.426025,510
12985343,9992,0.968506,0.014893,0.419067,502
12995353,10010,0.954834,0.025757,0.415405,510
13005326,9973,0.943359,0.043091,0.417725,505
13015368,10042,0.933350,0.059448,0.418335,512
13025332,9964,0.922119,0.070190,0.419312,509
13035353,10021,0.908447,0.082275,0.425659,508
13045354,10001,0.903442,0.092285,0.430054,513
13055337,9983,0.895508,0.103882,0.438599,511
13065334,9997,0.885742,0.114990,0.446289,514
13075354,10020,0.875732,0.124023,0.453613,510
13085346,9992,0.854126,0.132080,0.463501,512
13095355,10009,0.841309,0.129639,0.464233,511
13105334,9979,0.831665,0.122925,0.463501,517
13115327,9993,0.823730,0.112915,0.459717,508
13125340,10013,0.814697,0.102051,0.455566,514
13135339,9999,0.808350,0.088867,0.449341,513
13145339,10000,0.806885,0.069580,0.444702,509
13155340,10001,0.811157,0.063232,0.444092,514
13165336,9996,0.817627,0.059204,0.449829,512
13175327,9991,0.828369,0.054077,0.453979,509
13185346,10019,0.840698,0.038818,0.465698,511
13195338,9992,0.860229,0.025635,0.476807,504
13205338,10000,0.871216,0.032104,0.481201,510
13215345,10007,0.877319,0.039917,0.484009,502
13225326,9981,0.885376,0.039917,0.487183,507
13235351,10025,0.892334,0.033447,0.489624,511
13245337,9986,0.891357,0.018188,0.487183,509
13255364,10027,0.899780,-0.008301,0.484497,510
13265342,9978,0.901978,-0.009399,0.487183,509
13275355,10013,0.895264,-0.017334,0.489990,505
13285371,10016,0.895020,-0.026489,0.494751,506
13295341,9970,0.896729,-0.028809,0.500732,502
13305335,9994,0.894287,-0.036499,0.507935,511
13315351,10016,0.889893,-0.040527,0.510498,503
13325326,9975,0.888062,-0.043579,0.513672,507
13335333,10007,0.881592,-0.045654,0.517456,511
13345334,10001,0.878296,-0.049316,0.520752,512
13355339,10005,0.873779,-0.047607,0.523560,511
13365331,9992,0.864624,-0.040894,0.527954,513
13375329,9998,0.859253,-0.039551,0.528198,516
13385329,10000,0.856934,-0.039795,0.528687,509
13395348,10019,0.862061,-0.040771,0.531006,516
13405337,9989,0.869263,-0.041504,0.533691,517
13415339,10002,0.887329,-0.033691,0.546875,520
13425339,10000,0.893188,-0.029785,0.551514,524
13435349,10010,0.900024,-0.025635,0.556519,525
13445331,9982,0.909058,-0.020752,0.560181,521
13455350,10019,0.913452,-0.015259,0.565063,520
13465343,9993,0.915405,-0.012573,0.569824,520
13475339,9996,0.911987,0.000366,0.562744,527
13485342,10003,0.908936,-0.018799,0.556152,528
13495339,9997,0.884277,-0.011597,0.543457,527
13505340,10001,0.869995,0.010498,0.532593,525
13515333,9993,0.854736,0.042480,0.521484,526
13525363,10030,0.780273,0.009888,0.492065,526
13535335,9972,0.767578,-0.004883,0.481079,517
13545350,10015,0.759399,-0.008545,0.471436,504
13555335,9985,0.742310,-0.014038,0.458130,522
13565342,10007,0.740845,-0.026855,0.447876,514
13575342,10000,0.752563,-0.060669,0.431763,520
13585343,10001,0.781616,-0.036865,0.420532,510
13595341,9998,0.808716,-0.040161,0.418091,512
13605329,9988,0.838623,-0.039795,0.416626,507
13615354,10025,0.869385,-0.037109,0.416748,511
13625342,9988,0.906006,-0.036743,0.421631,511
13635335,9993,0.965698,-0.050659,0.437256,508
13645335,10000,0.990723,-0.056274,0.444824,507
13655341,10006,1.004272,-0.058350,0.451294,505
13665334,9993,1.008423,-0.058838,0.455078,507
13675333,9999,1.012451,-0.060059,0.452271,507
13685328,9995,1.008667,-0.092041,0.447998,510
13695332,10004,0.979370,-0.061523,0.439331,508
13705345,10013,0.972778,-0.065186,0.427368,512
13715336,9991,0.984009,-0.068237,0.426636,512
13725327,9991,0.981812,-0.078735,0.419678,512
13735327,10000,0.968506,-0.086670,0.414673,512
13745335,10008,0.971313,-0.083496,0.403809,514
13755331,9996,0.976685,-0.070435,0.402710,513
13765352,10021,0.966919,-0.060913,0.403442,508
13775344,9992,0.957397,-0.057251,0.401489,514
13785341,9997,0.945679,-0.058350,0.396606,514
13795328,9987,0.935669,-0.059204,0.385620,514
13805329,10001,0.905762,-0.059326,0.378662,514
13815345,10016,0.889771,-0.059204,0.373413,510
13825345,10000,0.877075,-0.058105,0.369629,514
13835350,10005,0.865234,-0.056763,0.367554,514
13845341,9991,0.855225,-0.052856,0.364136,513
13855342,10001,0.841919,-0.039551,0.362305,511
13865330,9988,0.837036,-0.029419,0.365601,511
13875344,10014,0.841064,-0.021118,0.365479,510
13885337,9993,0.842896,-0.015015,0.367188,508
13895349,10012,0.845825,-0.011353,0.370850,508
13908566,13217,0.849609,-0.005493,0.386353,507
13915326,6760,0.848389,-0.003662,0.391846,507
13925353,10027,0.847534,-0.005859,0.397827,507
13935328,9975,0.847656,-0.011841,0.396973,506
13945339,10011,0.848511,-0.021362,0.399414,505
13955331,9992,0.851196,-0.030273,0.397827,506
13965353,10022,0.850708,-0.037354,0.397583,506
13975355,10002,0.851562,-0.037109,0.396484,504
13985345,9990,0.853516,-0.034424,0.397705,507
13995327,9982,0.859375,-0.031372,0.402588,510
14005326,9999,0.862549,-0.027954,0.408325,510
14015345,10019,0.861450,-0.022583,0.422974,512
14025352,10007,0.859985,-0.020752,0.426880,514
14035335,9983,0.862793,-0.021484,0.429199,511
14045353,10018,0.869873,-0.023437,0.430176,520
14055335,9982,0.880249,-0.022827,0.429687,517
14065345,10010,0.890991,-0.019897,0.431641,526
14075354,10009,0.913452,-0.014526,0.437500,528
14085337,9983,0.922363,-0.014404,0.439941,527
14095350,10013,0.927734,-0.018188,0.443970,532
14105332,9982,0.931274,-0.024292,0.445190,527
14115355,10023,0.934326,-0.030396,0.446289,530
14125345,9990,0.931274,-0.033569,0.450928,533
14135335,9990,0.929932,-0.033325,0.453857,532
14145337,10002,0.920532,-0.029053,0.458496,524
14155342,10005,0.905518,-0.025269,0.461060,530
14165338,9996,0.882324,-0.020508,0.465088,530
14175350,10012,0.850342,-0.017944,0.466187,522
14185354,10004,0.784912,-0.011108,0.464600,524
14195331,9977,0.763184,-0.009521,0.461182,523
14205335,10004,0.757080,-0.007935,0.456909,523
14215338,10003,0.767334,-0.005859,0.454590,513
14225341,10003,0.794556,-0.001709,0.452393,514
14235347,10006,0.863037,0.011841,0.463501,512
14245334,9987,0.895386,0.021362,0.473755,508
14255352,10018,0.921143,0.026489,0.488037,514
14265355,10003,0.939697,0.028076,0.500854,513
14275344,9989,0.955566,0.025146,0.506104,504
14285331,9987,0.981689,0.011475,0.469604,506
14295340,10009,1.051147,-0.026245,0.483887,512
14305330,9990,1.047363,-0.028564,0.499146,511
14315354,10024,1.006104,-0.007935,0.524902,514
14325354,10000,0.976685,0.014160,0.553711,512
14335332,9978,0.946899,0.024292,0.581421,514
14345353,10021,0.891357,0.053467,0.600586,514
14355372,10019,0.848145,0.065186,0.591919,509
14365350,9978,0.801270,0.075562,0.578369,511
14375351,10001,0.771973,0.090454,0.567505,508
14385375,10024,0.758301,0.107666,0.555298,515
14395351,9976,0.755615,0.110962,0.526123,514
14405346,9995,0.779297,0.067993,0.513062,514
14415327,9981,0.792969,0.047852,0.503174,511
14425345,10018,0.810669,0.017700,0.492432,508
14435337,9992,0.826904,-0.002441,0.481812,517
14445351,10014,0.833130,-0.022949,0.471680,514
14455350,9999,0.854492,-0.073608,0.451416,515
14465348,9998,0.867798,-0.093140,0.443604,512
14475355,10007,0.877075,-0.095093,0.444336,512
14485355,10000,0.875977,-0.077881,0.453491,510
14495355,10000,0.869751,-0.048096,0.460449,509
14505330,9975,0.869873,-0.000244,0.474121,512
14515339,10009,0.865967,-0.004883,0.479370,510
14525344,10005,0.868530,0.000122,0.483643,507
14535330,9986,0.854858,0.025146,0.486572,512
14545353,10023,0.856079,0.030273,0.478882,510
14555334,9981,0.870850,0.039063,0.461670,511
14565337,10003,0.908325,0.013306,0.434937,510
14575369,10032,0.893311,0.015259,0.442871,509
14585344,9975,0.868652,0.029053,0.451538,509
14595340,9996,0.851196,0.035400,0.460327,512
14605337,9997,0.838013,0.033447,0.466553,510
14615359,10022,0.831909,-0.001709,0.454956,505
14625351,9992,0.836060,-0.013794,0.445312,510
14635352,10001,0.838257,-0.012695,0.435547,510
14645326,9974,0.840576,-0.001709,0.432129,511
14655352,10026,0.837646,0.013794,0.436035,518
14665335,9983,0.834839,0.028564,0.442505,520
14675348,10013,0.857910,0.030151,0.436157,521
14685340,9992,0.889404,0.013672,0.424438,516
14695341,10001,0.916626,0.000000,0.419800,522
14705331,9990,0.929199,-0.000488,0.423218,526
14715349,10018,0.938965,0.001709,0.429077,522
14725344,9995,0.959351,0.009399,0.451660,525
14735345,10001,0.962524,0.009521,0.459473,531
14745344,9999,0.961060,0.001709,0.457153,532
14755326,9982,0.953369,-0.005615,0.446167,531
14765330,10004,0.939819,-0.009766,0.435059,531
14775334,10004,0.916870,-0.010864,0.420166,531
14785346,10012,0.869751,-0.002197,0.399414,524
14795363,10017,0.852417,0.000488,0.387085,526
14805345,9982,0.849731,-0.001831,0.370850,527
14815345,10000,0.858276,-0.011475,0.359131,524
14825363,10018,0.862671,-0.015625,0.356445,524
14835349,9986,0.864014,-0.020264,0.363770,523
14845338,9989,0.872803,-0.025391,0.372192,522
14855347,10009,0.880981,-0.032227,0.380859,520
14865352,10005,0.883911,-0.039673,0.385498,510
14875338,9986,0.887939,-0.043457,0.388062,519
14885334,9996,0.890381,-0.044189,0.387573,512
14895353,10019,0.897949,-0.045654,0.387817,512
14905332,9979,0.900024,-0.043945,0.385376,509
14915354,10022,0.897583,-0.040894,0.384033,509
14925353,9999,0.892822,-0.035889,0.383057,513
14935347,9994,0.892578,-0.030151,0.378540,510
14945329,9982,0.903564,-0.033447,0.374023,509
14955348,10019,0.913940,-0.041626,0.376221,506
14965348,10000,0.929565,-0.051880,0.377930,511
14975326,9978,0.948364,-0.063110,0.381836,507
14985340,10014,0.969238,-0.072998,0.388306,513
14995354,10014,0.985718,-0.081421,0.392578,514
15005371,10017,0.993408,-0.084595,0.399536,507
15015356,9985,0.983521,-0.082764,0.401733,508
15025338,9982,0.966675,-0.081177,0.400146,513
15035327,9989,0.949097,-0.080933,0.396362,511
15045355,10028,0.934570,-0.082153,0.391968,509
15055335,9980,0.913574,-0.084717,0.381958,514
15065349,10014,0.904297,-0.084351,0.377808,512
15075354,10005,0.898437,-0.084595,0.372314,507
15085339,9985,0.896240,-0.082642,0.367432,508
15095342,10003,0.897583,-0.082642,0.358765,512
15105327,9985,0.895752,-0.084595,0.351440,509
15115329,10002,0.887695,-0.074463,0.355225,509
15125336,10007,0.882324,-0.056152,0.366333,510
15135335,9999,0.878296,-0.034668,0.380249,509
15145353,10018,0.875000,-0.016357,0.392944,503
15155339,9986,0.872437,-0.005615,0.403931,503
15165350,10011,0.869385,0.014526,0.418701,508
15175328,9978,0.871338,0.024536,0.422241,500
15185331,10003,0.870605,0.027954,0.421631,503
15195350,10019,0.868530,0.025513,0.419312,499
15205326,9976,0.866943,0.021240,0.415527,505
15215372,10046,0.868530,0.015747,0.406372,504
15225331,9959,0.872681,0.000244,0.402832,498
15235345,10014,0.874878,-0.009399,0.401733,504
15245358,10013,0.882568,-0.020264,0.401123,505
15255345,9987,0.900757,-0.033569,0.401978,506
15265337,9992,0.925781,-0.046509,0.403198,501
15275340,10003,0.969238,-0.062622,0.412842,505
15285343,10003,0.978027,-0.067383,0.422852,511
15295351,10008,0.981323,-0.066528,0.434570,513
15305334,9983,0.972656,-0.067017,0.446899,517
15315355,10021,0.960327,-0.066895,0.452271,517
15325333,9978,0.945435,-0.064575,0.440430,524
15335337,10004,0.911011,-0.062378,0.432251,524
15345332,9995,0.897949,-0.057861,0.426636,528
15355347,10015,0.887207,-0.046509,0.425903,527
15365334,9987,0.872437,-0.033813,0.429199,530
15375341,10007,0.853394,-0.021729,0.432495,526
15385335,9994,0.806152,-0.015503,0.439209,526
15395349,10014,0.782959,-0.017822,0.438477,527
15405330,9981,0.767944,-0.022583,0.433960,520
15415330,10000,0.764282,-0.027466,0.430176,523
15425337,10007,0.766724,-0.030151,0.427002,513
15436264,10927,0.803711,-0.037476,0.422729,511
15445342,9078,0.828979,-0.040039,0.431274,514
15455345,10003,0.852539,-0.038086,0.444214,511
15465329,9984,0.875854,-0.033691,0.456787,505
15475349,10020,0.897095,-0.033569,0.466309,508
15485333,9984,0.914307,-0.036743,0.476440,508
15495344,10011,0.935547,-0.038696,0.493652,505
15505326,9982,0.943359,-0.036743,0.501831,506
15515340,10014,0.946289,-0.031494,0.510864,504
15525350,10010,0.946045,-0.023315,0.518677,504
15535332,9982,0.948608,-0.013062,0.522095,506
15545334,10002,0.945190,-0.000732,0.536133,507
15555348,10014,0.942383,0.003174,0.543701,509
15565352,10004,0.940918,0.008179,0.552979,509
15575328,9976,0.934082,0.009644,0.565918,510
15585344,10016,0.922119,0.012207,0.576782,512
15595327,9983,0.905762,0.013550,0.585327,512
15605339,10012,0.863525,0.015503,0.583008,512
15615347,10008,0.843140,0.011597,0.575195,509
15625334,9987,0.821167,-0.000610,0.566162,514
15635335,10001,0.800659,0.004761,0.551392,515
15645338,10003,0.795654,0.010132,0.534668,516
15655343,10005,0.787109,-0.014282,0.514160,516
15665350,10007,0.791138,-0.017944,0.517700,518
15675366,10016,0.805664,-0.022095,0.523315,513
15685329,9963,0.821777,-0.026855,0.525269,510
15695329,10000,0.826538,-0.034058,0.532349,515
15705364,10035,0.841431,-0.029541,0.536011,506
15715341,9977,0.863525,-0.014771,0.548462,504
15728751,13410,0.867554,-0.017456,0.549316,512
15735340,6589,0.871582,-0.025024,0.555786,505
15745349,10009,0.871338,-0.029053,0.559692,509
15755346,9997,0.867676,-0.030884,0.559204,504
15765352,10006,0.863647,-0.017578,0.556152,508
15775355,10003,0.856201,-0.011108,0.552246,502
15785348,9993,0.849731,-0.008667,0.546753,502
15795347,9999,0.846313,-0.010742,0.542114,508
15805337,9990,0.841797,-0.014526,0.537720,502
15815330,9993,0.838379,-0.017822,0.533569,510
15825339,10009,0.840942,-0.023437,0.526123,509
15835331,9992,0.852661,-0.027954,0.516968,508
15845336,10005,0.872559,-0.033936,0.510254,507
15855344,10008,0.892578,-0.035889,0.508545,511
15865351,10007,0.909302,-0.033325,0.509155,511
15875352,10001,0.928223,-0.026489,0.510498,511
15885366,10014,0.930908,-0.028564,0.511230,513
15895332,9966,0.925171,-0.032227,0.511353,514
15905327,9995,0.913452,-0.036255,0.508179,515
15915347,10020,0.898560,-0.041504,0.500732,520
15925335,9988,0.883057,-0.045898,0.487549,522
15939555,14220,0.868164,-0.053711,0.457397,522
15945330,5775,0.864624,-0.053345,0.444824,528
15955333,10003,0.857788,-0.048706,0.439575,528
15965331,9998,0.841431,-0.038696,0.438965,524
15975351,10020,0.812744,-0.030640,0.437134,529
15985340,9989,0.753540,-0.028076,0.418579,529
15995355,10015,0.734497,-0.034302,0.403076,523
16005347,9992,0.724487,-0.041260,0.384888,522
16015348,10001,0.729980,-0.049683,0.368530,516
16025332,9984,0.746094,-0.056030,0.356812,519
16035341,10009,0.769531,-0.060303,0.351563,514
16045341,10000,0.815918,-0.062622,0.354126,512
16055338,9997,0.831177,-0.060913,0.358521,508
16065332,9994,0.842651,-0.064575,0.366699,503
16075352,10020,0.858154,-0.068726,0.376099,501
16085336,9984,0.869507,-0.075317,0.385254,490
16095364,10028,0.888184,-0.090820,0.407104,494
16105330,9966,0.900513,-0.094849,0.415527,494
16115344,10014,0.912964,-0.097534,0.418091,496
16125362,10018,0.923828,-0.095703,0.419434,496
16135353,9991,0.934326,-0.090698,0.418945,494
16145340,9987,0.944580,-0.084961,0.419800,494
16156872,11532,0.944214,-0.076172,0.423218,500
16165333,8461,0.939697,-0.075195,0.429077,505
16175326,9993,0.930664,-0.073853,0.435303,501
16185342,10016,0.916626,-0.072876,0.443359,508
16195353,10011,0.901367,-0.069946,0.449341,502
16205351,9998,0.872070,-0.059937,0.455688,506
16215330,9979,0.862305,-0.056274,0.455811,512
16225351,10021,0.856567,-0.057007,0.455933,510
16235352,10001,0.855957,-0.058716,0.452881,509
16245401,10049,0.854492,-0.061890,0.448853,510
16255339,9938,0.854492,-0.071777,0.439819,517
16265332,9993,0.853271,-0.076294,0.437500,514
16275340,10008,0.856079,-0.077881,0.436279,515
16285332,9992,0.863770,-0.077759,0.436523,509
16295334,10002,0.873291,-0.077759,0.442871,514
16305340,10006,0.881470,-0.070679,0.450806,512
16315329,9989,0.900513,-0.056152,0.468750,510
16325368,10039,0.910400,-0.050903,0.474854,499
16335347,9979,0.919556,-0.048706,0.480469,512
16345347,10000,0.927734,-0.047485,0.483398,507
16355353,10006,0.935059,-0.046265,0.486694,512
16365332,9979,0.938354,-0.036621,0.492065,510
16375343,10011,0.934326,-0.035645,0.490967,511
16385330,9987,0.926636,-0.042603,0.486572,511
16395350,10020,0.920044,-0.053101,0.482910,504
16405349,9999,0.913452,-0.063965,0.479492,505
16415332,9983,0.900024,-0.072144,0.481689,511
16425341,10009,0.886963,-0.090088,0.478638,511
16435331,9990,0.891602,-0.104492,0.472168,510
16445351,10020,0.906494,-0.119995,0.466431,512
16455837,10486,0.925781,-0.129639,0.463623,513
16465331,9494,0.941772,-0.129883,0.464355,507
16475338,10007,0.958984,-0.120605,0.484253,515
16485327,9989,0.972046,-0.121582,0.495850,512
16495330,10003,0.969849,-0.105225,0.500122,518
16505346,10016,0.979004,-0.093994,0.504517,520
16515340,9994,0.970581,-0.081421,0.511841,519
16525335,9995,0.947632,-0.075684,0.512207,526
16535346,10011,0.881714,-0.068970,0.512695,528
16545353,10007,0.836670,-0.067383,0.507446,529
16555802,10449,0.796509,-0.055176,0.500977,522
16565332,9530,0.763306,-0.045166,0.494507,529
16575349,10017,0.736206,-0.043457,0.487305,527
16585335,9986,0.718872,-0.036011,0.479248,527
16595331,9996,0.732788,-0.030518,0.485352,524
16605341,10010,0.756348,-0.023560,0.498535,524
16615332,9991,0.789185,-0.018799,0.513672,516
16625326,9994,0.830200,-0.019653,0.528687,520
16635350,10024,0.870117,-0.025146,0.537231,519
16645327,9977,0.926514,-0.034912,0.552612,508
16655355,10028,0.935669,-0.035400,0.556152,514
16665328,9973,0.936035,-0.036743,0.554321,515
16675347,10019,0.934326,-0.040039,0.550781,513
16685327,9980,0.934814,-0.041016,0.544922,512
16695355,10028,0.938599,-0.041992,0.536011,512
16705345,9990,0.939697,-0.038330,0.536743,512
16715352,10007,0.939453,-0.032471,0.536011,512
16725341,9989,0.940918,-0.023682,0.538330,508
16735328,9987,0.939941,-0.018066,0.539429,511
16745358,10030,0.933105,-0.009277,0.538330,512
16755351,9993,0.909546,0.005371,0.529053,513
16765349,9998,0.891968,0.010620,0.521484,512
16775348,9999,0.875366,0.077271,0.515747,511
16785336,9988,0.865479,0.067749,0.505371,512
16795334,9998,0.849365,0.052979,0.496948,513
16805342,10008,0.841309,0.038330,0.487305,513
16815348,10006,0.836914,0.045288,0.481323,513
16825326,9978,0.832397,0.031250,0.473267,511
16835333,10007,0.853882,0.023315,0.475464,514
16845338,10005,0.854614,0.011475,0.473511,513
16855589,10251,0.862183,-0.015381,0.477783,511
16865346,9757,0.889526,0.004028,0.481323,513
16875348,10002,0.904053,0.025635,0.482910,510
16885337,9989,0.899170,0.042847,0.480469,512
16895353,10016,0.897583,0.040649,0.476562,505
16905326,9973,0.910889,0.015503,0.478516,509
16915334,10008,0.902466,-0.014526,0.487183,512
16925327,9993,0.891479,-0.019043,0.485352,507
16935339,10012,0.892578,-0.024536,0.479980,507
16945335,9996,0.866455,-0.031250,0.479004,513
16955381,10046,0.869507,0.009521,0.474609,512
16965368,9987,0.875488,0.082031,0.457886,510
16975342,9974,0.830933,0.066162,0.444336,512
16985340,9998,0.834717,0.024902,0.445312,505
16995331,9991,0.847656,-0.001831,0.446167,511
17005327,9996,0.856567,-0.012451,0.445557,512
17015335,10008,0.866455,-0.000366,0.444336,511
17025333,9998,0.891479,0.036377,0.450562,509
17035331,9998,0.894287,0.041992,0.448120,508
17045354,10023,0.898315,0.028687,0.450073,508
17055334,9980,0.898682,0.009033,0.452515,509
17065341,10007,0.896606,-0.003662,0.450684,509
17075350,10009,0.900635,-0.002563,0.443848,511
17085352,10002,0.899414,-0.002686,0.440308,504
17095339,9987,0.893921,-0.002930,0.441406,516
17105336,9997,0.880005,-0.003784,0.441528,517
17115350,10014,0.856079,-0.002441,0.439453,520
17125352,10002,0.824341,-0.003052,0.431641,522
17135348,9996,0.764038,-0.016846,0.400391,525
17145347,9999,0.745117,-0.030762,0.381836,525
17155340,9993,0.742676,-0.045288,0.364380,524
17165343,10003,0.754639,-0.057373,0.348389,525
17175340,9997,0.780396,-0.063354,0.339111,525
17185352,10012,0.851562,-0.069214,0.348877,524
17195351,9999,0.885986,-0.071655,0.362061,519
17205334,9983,0.915039,-0.072266,0.376343,515
17215337,10003,0.937378,-0.075195,0.389893,514
17225342,10005,0.950684,-0.080322,0.402710,511
17235339,9997,0.957275,-0.087891,0.409302,509
17245346,10007,0.960327,-0.103271,0.407837,503
17255354,10008,0.958374,-0.106323,0.402710,503
17265328,9974,0.963867,-0.108398,0.394531,508
17275338,10010,0.969238,-0.108643,0.385498,508
17285333,9995,0.972290,-0.107422,0.381470,509
17295326,9993,0.974121,-0.092773,0.387817,508
17305344,10018,0.969604,-0.085083,0.396973,504
17315336,9992,0.961304,-0.076050,0.406860,509
17325352,10016,0.946777,-0.067871,0.416138,509
17335351,9999,0.930908,-0.062256,0.419434,511
17345342,9991,0.916626,-0.058716,0.419556,513
17355346,10004,0.890625,-0.056274,0.413940,513
17365345,9999,0.881958,-0.054810,0.411255,512
17375331,9986,0.872803,-0.054565,0.407471,514
17385331,10000,0.865967,-0.056274,0.407349,511
17395327,9996,0.863037,-0.057617,0.407715,507
17405329,10002,0.861694,-0.058228,0.412964,513
17415339,10010,0.865356,-0.057251,0.419067,512
17425348,10009,0.868286,-0.053467,0.424927,511
17435335,9987,0.875732,-0.049316,0.431641,509
17445328,9993,0.882812,-0.042480,0.439697,510
17455326,9998,0.890259,-0.036255,0.447021,507
17465354,10028,0.902832,-0.027832,0.462891,509
17475329,9975,0.905884,-0.025269,0.470337,505
17485345,10016,0.907837,-0.023315,0.475830,512
17495352,10007,0.909790,-0.025757,0.479736,505
17505354,10002,0.911011,-0.029053,0.483887,512
17515354,10000,0.908203,-0.038574,0.489014,506
17525326,9972,0.905762,-0.046631,0.491821,512
17535334,10008,0.903442,-0.053223,0.489624,512
17545341,10007,0.899780,-0.057495,0.487549,511
17555340,9999,0.898560,-0.062012,0.484253,508
17565346,10006,0.894775,-0.066650,0.476440,511
17575330,9984,0.897095,-0.084839,0.468872,513
17585350,10020,0.913452,-0.096069,0.463745,511
17595337,9987,0.932739,-0.102905,0.462280,513
17605353,10016,0.947632,-0.101074,0.466553,514
17615330,9977,0.956665,-0.095703,0.473755,512
17625348,10018,0.964355,-0.085937,0.489258,514
17635346,9998,0.967285,-0.086548,0.490234,514
17645343,9997,0.968994,-0.090088,0.488647,513
17655355,10012,0.968994,-0.093750,0.482788,510
17665348,9993,0.961670,-0.091431,0.479492,512
17675331,9983,0.947510,-0.074707,0.477905,517
17685337,10006,0.888550,-0.062622,0.477539,512
17695346,10009,0.844971,-0.048828,0.473511,517
17705354,10008,0.799072,-0.037842,0.467041,521
17715337,9983,0.753906,-0.034302,0.457397,523
17725353,10016,0.715454,-0.032104,0.445190,521
17735352,9999,0.677368,-0.023682,0.427002,519
17745333,9981,0.689331,-0.016724,0.422852,524
17755336,10003,0.725952,-0.006836,0.425415,523
17765330,9994,0.771851,0.002563,0.432617,520
17775348,10018,0.820190,0.013184,0.445190,514
17786841,11493,0.913330,0.020386,0.478394,518
17795369,8528,0.948730,0.020508,0.493774,514
17805352,9983,0.970581,0.013428,0.502686,513
17815330,9978,0.980957,0.006592,0.510254,512
17825337,10007,0.979858,0.000610,0.510498,508
17835343,10006,0.971680,-0.002319,0.507690,505
17845348,10005,0.953369,-0.003052,0.499146,513
17855346,9998,0.943970,-0.000366,0.496826,510
17865338,9992,0.936401,0.007080,0.498291,511
17875332,9994,0.934570,0.013672,0.500854,511
17885331,9999,0.935547,0.020630,0.505127,507
17895353,10022,0.923706,0.036377,0.515503,512
17905347,9994,0.917114,0.040649,0.514526,511
17915337,9990,0.908203,0.044800,0.513672,513
17925327,9990,0.884277,0.066406,0.502563,511
17935326,9999,0.876831,0.074097,0.503784,514
17945327,10001,0.865845,0.073364,0.494385,512
17955327,10000,0.832397,0.052856,0.477783,515
17965331,10004,0.836670,0.045654,0.473389,514
17975333,10002,0.837524,0.040283,0.467651,514
17985349,10016,0.835205,0.047729,0.464600,515
17995327,9978,0.833374,0.052979,0.459717,511
18005346,10019,0.848755,0.049194,0.462280,515
18015351,10005,0.853027,0.047852,0.459351,513
18025354,10003,0.853760,0.054565,0.458984,511
18035353,9999,0.865356,0.061646,0.458130,506
18045348,9995,0.876709,0.068481,0.458252,510
18055345,9997,0.879150,0.063965,0.456787,510
18066449,11104,0.890381,0.013428,0.457642,505
18075342,8893,0.868530,0.006836,0.455688,507
18085345,10003,0.882080,0.031860,0.458740,503
18095352,10007,0.895996,0.088013,0.456299,509
18105354,10002,0.876465,0.115967,0.441772,510
18115328,9974,0.854004,0.058838,0.428833,510
18125351,10023,0.852539,0.031738,0.430664,509
18135350,9999,0.836426,0.021729,0.424683,509
18145338,9988,0.831543,0.029785,0.421875,502
18155355,10017,0.833374,0.047119,0.421753,507
18165353,9998,0.830200,0.061401,0.419312,500
18175342,9989,0.836914,0.046265,0.412231,507
18185339,9997,0.847778,0.029541,0.411621,504
18196031,10692,0.864624,0.021851,0.412842,505
18205337,9306,0.883545,0.027710,0.416138,506
18215364,10027,0.897461,0.036621,0.418579,503
18225328,9964,0.923950,0.036133,0.424805,507
18235338,10010,0.940796,0.031006,0.427124,500
18245341,10003,0.958618,0.029297,0.431396,501
18255347,10006,0.970459,0.033081,0.438354,509
18265333,9986,0.969849,0.040649,0.444092,509
18275339,10006,0.950684,0.045898,0.449707,511
18285345,10006,0.875732,0.043457,0.442139,507
18296456,11111,0.831909,0.038696,0.428223,523
18307289,10833,0.793579,0.032959,0.410278,517
18315341,8052,0.762939,0.025513,0.390991,521
18325349,10008,0.747192,0.016846,0.368286,516
18335326,9977,0.755127,0.003906,0.335693,523
18345345,10019,0.778076,0.000366,0.331909,523
18355348,10003,0.812378,-0.001709,0.334717,526
18365354,10006,0.847778,-0.006104,0.345947,525
18375326,9972,0.884766,-0.010376,0.360840,522
18385350,10024,0.917480,-0.012085,0.384033,521
18395351,10001,0.962524,-0.019165,0.395386,518
18405335,9984,0.974731,-0.023560,0.399902,509
18415340,10005,0.980591,-0.027954,0.403809,509
18425352,10012,0.981567,-0.030396,0.405029,508
18435362,10010,0.978149,-0.031494,0.407715,509
18445346,9984,0.972168,-0.034790,0.405029,512
18455379,10033,0.964966,-0.035889,0.400879,514
18465345,9966,0.958008,-0.033691,0.396362,512
18475332,9987,0.953003,-0.030762,0.397461,514
18485341,10009,0.946411,-0.024902,0.401855,510
18495332,9991,0.943237,-0.019165,0.417114,513
18505331,9999,0.942505,-0.020630,0.423096,510
18515349,10018,0.943115,-0.028198,0.428711,514
18525338,9989,0.940186,-0.035400,0.429932,513
18535343,10005,0.935059,-0.043579,0.429687,514
18545334,9991,0.927979,-0.049561,0.428833,516
18555334,10000,0.912231,-0.059570,0.424561,515
18565333,9999,0.900635,-0.061890,0.422485,512
18575337,10004,0.893921,-0.065918,0.420898,515
18585335,9998,0.892944,-0.069214,0.422485,515
18595352,10017,0.889648,-0.070435,0.427368,514
18605328,9976,0.884033,-0.062622,0.441650,513
18615354,10026,0.888062,-0.060913,0.456787,512
18625331,9977,0.884155,-0.052368,0.464355,513
18635364,10033,0.887329,-0.038940,0.471558,513
18645348,9984,0.887207,-0.032959,0.481445,513
18655383,10035,0.884277,-0.027466,0.484741,513
18665344,9961,0.888184,-0.029053,0.495117,513
18675350,10006,0.882080,-0.029785,0.492676,512
18685335,9985,0.886719,-0.030640,0.495972,513
18695326,9991,0.882324,-0.034790,0.495117,507
18705331,10005,0.881470,-0.041992,0.491943,511
18715348,10017,0.877197,-0.052856,0.488037,510
18725348,10000,0.872803,-0.071777,0.497681,507
18735353,10005,0.874756,-0.085693,0.494263,513
18745353,10000,0.881348,-0.084106,0.497192,511
18755335,9982,0.877319,-0.090942,0.493896,504
18765326,9991,0.872437,-0.104492,0.493530,511
18775337,10011,0.874390,-0.111572,0.502319,509
18785351,10014,0.877441,-0.112793,0.502930,507
18795333,9982,0.883789,-0.114258,0.507935,510
18805337,10004,0.897461,-0.109985,0.520386,510
18815353,10016,0.905151,-0.106201,0.532227,509
18825331,9978,0.924072,-0.105347,0.544556,512
18835336,10005,0.926147,-0.090576,0.546021,512
18845340,10004,0.928589,-0.075439,0.552490,509
18855368,10028,0.934326,-0.073853,0.564819,510
18865347,9979,0.947388,-0.084229,0.582520,512
18875338,9991,0.957642,-0.094727,0.600220,512
18885353,10015,0.952637,-0.088379,0.627319,514
18895338,9985,0.939575,-0.069946,0.641235,517
18905354,10016,0.909302,-0.083374,0.654785,519
18915349,9995,0.847778,-0.050293,0.672607,514
18925335,9986,0.797729,-0.001831,0.684204,521
18935340,10005,0.711426,0.043701,0.695801,524
18945333,9993,0.682617,0.036621,0.687500,517
18955353,10020,0.683960,0.027832,0.680054,522
18965342,9989,0.692627,0.019409,0.671509,524
18975340,9998,0.713013,0.012695,0.663574,522
18985350,10010,0.755859,0.013916,0.657471,517
18995334,9984,0.861328,0.017578,0.648682,512
19005335,10001,0.910767,0.013184,0.641602,515
19015353,10018,0.961182,-0.000366,0.636108,514
19025341,9988,1.000610,-0.012939,0.629150,511
19035354,10013,1.035156,-0.029053,0.615112,504
19045345,9991,1.068726,-0.041870,0.613892,504
19055332,9987,1.052246,-0.042480,0.612549,507
19065348,10016,1.032593,-0.040649,0.601562,502
19075360,10012,1.020630,-0.032959,0.591797,503
19085331,9971,1.006592,-0.024536,0.575439,504
19095361,10030,0.992920,-0.023193,0.555786,506
19105352,9991,0.955444,-0.022705,0.515747,507
19115348,9996,0.935059,-0.018921,0.498901,509
19125336,9988,0.916626,-0.015137,0.481445,510
19135341,10005,0.898804,-0.012329,0.467407,504
19145339,9998,0.878296,-0.003784,0.460327,510
19155349,10010,0.832642,0.029541,0.453125,509
19165339,9990,0.815674,0.039185,0.444702,506
19175332,9993,0.801147,0.045410,0.439331,508
19185352,10020,0.789307,0.047852,0.432373,508
19195334,9982,0.778687,0.045288,0.423584,504
19205347,10013,0.765259,0.045288,0.407471,504
19215337,9990,0.747314,0.042725,0.403320,501
19225327,9990,0.741455,0.040283,0.397461,499
19235338,10011,0.731079,0.037720,0.394165,496
19245349,10011,0.722412,0.030640,0.392944,494
19255333,9984,0.713501,0.021729,0.394409,488
19265333,10000,0.706421,0.005981,0.402710,494
19275335,10002,0.701660,0.004150,0.408936,484
19285339,10004,0.697754,0.004883,0.417236,484
19295335,9996,0.693359,0.008057,0.424927,486
19305346,10011,0.687744,0.016235,0.430420,488
19315326,9980,0.679687,0.058350,0.443848,489
19325330,10004,0.671021,0.045044,0.453857,489
19335326,9996,0.669678,0.048706,0.463501,492
19345351,10025,0.669556,0.050903,0.477173,490
19355352,10001,0.672241,0.049072,0.489990,493
19365329,9977,0.677490,0.045532,0.503052,492
19375339,10010,0.693481,0.045410,0.525269,499
19385330,9991,0.703247,0.044067,0.533936,493
19395353,10023,0.716431,0.041626,0.542236,498
19405331,9978,0.728027,0.038208,0.549194,491
19416136,10805,0.740234,0.031494,0.556763,500
19425352,9216,0.752686,0.020508,0.561279,501
19435343,9991,0.785767,0.014038,0.562866,500
19445333,9990,0.813477,0.011597,0.565063,494
19455332,9999,0.844849,0.013062,0.574219,504
19465345,10013,0.869141,0.017334,0.586304,502
19475349,10004,0.888184,0.020386,0.594482,505
19485352,10003,0.921631,0.012939,0.599121,498
19495335,9983,0.942139,0.002930,0.596436,506
19505346,10011,0.959229,-0.006470,0.593994,506
19515335,9989,0.971313,-0.014526,0.591064,508
19525339,10004,0.983765,-0.019409,0.589966,511
19535326,9987,0.968872,-0.007935,0.599976,511
19545350,10024,0.938721,0.005493,0.606567,512
19555344,9994,0.894897,0.022949,0.609497,520
19565342,9998,0.861694,0.036011,0.607056,519
19575335,9993,0.828369,0.042480,0.594604,517
19585350,10015,0.784912,0.039185,0.572021,515
19595330,9980,0.742554,0.026001,0.523315,524
19605343,10013,0.753052,0.024414,0.505493,523
19615353,10010,0.779053,0.022827,0.494507,524
19625331,9978,0.812378,0.020752,0.492432,518
19635345,10014,0.851807,0.015259,0.497559,524
19645341,9996,0.920532,-0.012451,0.523682,521
19655351,10010,0.957031,-0.021118,0.538208,520
19665350,9999,0.991577,-0.015747,0.545288,520
19675335,9985,1.012207,-0.008057,0.544556,517
19685350,10015,1.035522,-0.020386,0.546509,513
19695346,9996,1.037964,-0.051270,0.547119,513
19708027,12681,1.029907,-0.068481,0.540405,512
19715351,7324,1.034912,-0.061523,0.545288,509
19725355,10004,1.031494,-0.053345,0.542725,508
19735360,10005,1.031128,-0.060547,0.545166,509
19745326,9966,1.015991,-0.048950,0.551025,512
19755351,10025,0.987061,-0.052734,0.561157,512
19765340,9989,0.970825,-0.048462,0.555908,507
19775352,10012,0.944824,-0.033813,0.552246,512
19785351,9999,0.917358,-0.027344,0.545166,511
19795342,9991,0.891724,-0.031250,0.530640,510
19808766,13424,0.844238,-0.054932,0.502808,511
19815344,6578,0.820801,-0.056763,0.495483,513
19827510,12166,0.818726,-0.056274,0.484497,507
19835334,7824,0.807495,-0.048706,0.472656,513
19845337,10003,0.807007,-0.079224,0.476318,512
19855352,10015,0.798950,-0.052246,0.462158,514
19865327,9975,0.807007,-0.039795,0.458984,511
19875338,10011,0.821777,-0.052979,0.457520,512
19885352,10014,0.820679,-0.064209,0.460693,511
19895334,9982,0.826294,-0.069336,0.456909,512
19906906,11572,0.840820,-0.067261,0.458374,509
19915343,8437,0.000000,0.000000,0.000000,513
19925341,9998,0.849487,-0.050659,0.462402,505
19935349,10008,0.852173,-0.050903,0.463013,508
19945346,9997,0.851074,-0.055420,0.465210,503
19955332,9986,0.851318,-0.065796,0.462158,504
19965342,10010,0.851685,-0.075439,0.458252,509
19975354,10012,0.855225,-0.088745,0.447021,510
19985351,9997,0.857544,-0.085571,0.442871,508
19995349,9998,0.859253,-0.077393,0.441528,509
20005347,9998,0.858276,-0.070679,0.439941,504
20015343,9996,0.864502,-0.070923,0.435913,509
20025341,9998,0.882446,-0.075562,0.436157,505
20035351,10010,0.931763,-0.082642,0.440796,506
20045339,9988,0.954712,-0.078613,0.445923,510
20055338,9999,0.970459,-0.069702,0.453613,512
20065328,9990,0.982056,-0.056274,0.462891,513
20075351,10023,0.986938,-0.039673,0.469360,510
20085342,9991,0.985840,-0.015869,0.477783,510
20095346,10004,0.988892,-0.018921,0.475342,511
20105354,10008,0.970337,-0.015381,0.470093,506
20115344,9990,0.963379,-0.011597,0.483521,510
20125330,9986,0.950317,-0.009033,0.484619,513
20135351,10021,0.887695,0.004150,0.489990,510
20145366,10015,0.845581,0.019043,0.483398,504
20155340,9974,0.828735,0.010376,0.480103,508
20165352,10012,0.784302,0.020752,0.477051,513
20175348,9996,0.749634,0.021240,0.468872,514
20185349,10001,0.736328,0.012451,0.468384,516
20195342,9993,0.740967,-0.080688,0.468384,517
20205336,9994,0.760986,-0.046143,0.478638,517
20215347,10011,0.834717,0.008179,0.486816,517
20225335,9988,0.879028,0.043335,0.490601,521
20235335,10000,0.894287,0.049561,0.493896,517
20245341,10006,0.949829,-0.000732,0.532959,522
20255342,10001,0.957886,-0.019287,0.538818,524
20265349,10007,0.960205,-0.034912,0.535645,525
20275355,10006,0.969849,-0.038574,0.535889,526
20285329,9974,0.973145,-0.032349,0.533569,524
20295327,9998,0.966553,-0.021240,0.530396,520
20305339,10012,0.957520,-0.023071,0.526367,521
20315332,9993,0.947998,-0.027588,0.526489,524
20326022,10690,0.942505,-0.020142,0.528442,524
20335371,9349,0.931274,-0.003906,0.525391,515
20345351,9980,0.912476,0.012451,0.523804,524
20355351,10000,0.870239,0.034668,0.518188,522
20365350,9999,0.848267,0.046021,0.515015,520
20375335,9985,0.828125,0.057861,0.512451,517
20385354,10019,0.808105,0.070557,0.507080,515
20395329,9975,0.790894,0.078247,0.501465,518
20405353,10024,0.775879,0.080933,0.495483,516
20415353,10000,0.756226,0.072388,0.484253,517
20425352,9999,0.749512,0.065552,0.478516,514
20435353,10001,0.747559,0.056641,0.470093,511
20445328,9975,0.750488,0.048096,0.461182,507
20455331,10003,0.757446,0.038940,0.455200,513
20465334,10003,0.773804,0.028442,0.449829,512
20475354,10020,0.782471,0.031250,0.450317,512
20485327,9973,0.789185,0.034790,0.449829,510
20495340,10013,0.791626,0.036011,0.449829,510
20505334,9994,0.792480,0.037231,0.450317,510
20515333,9999,0.793579,0.036255,0.449829,511
20525326,9993,0.802856,0.035278,0.461548,511
20535328,10002,0.807495,0.033936,0.461426,510
20545354,10026,0.810669,0.036743,0.462769,501
20555332,9978,0.810547,0.039673,0.461670,510
20565342,10010,0.808716,0.038696,0.462891,508
20575343,10001,0.801392,0.032471,0.458740,508
20585345,10002,0.801147,0.025146,0.456665,502
20595350,10005,0.803955,0.020752,0.456177,508
20605337,9987,0.807861,0.016235,0.453735,502
20615345,10008,0.814697,0.013916,0.453613,508
20625331,9986,0.824707,0.010864,0.461670,506
20635339,10008,0.848267,0.011353,0.465210,508
20645353,10014,0.866577,0.008423,0.466553,509
20655347,9994,0.894775,0.002197,0.469482,502
20665333,9986,0.926636,-0.008423,0.477905,507
20675331,9998,0.949219,-0.013550,0.487427,524
20685344,10013,0.991455,-0.017700,0.503174,507
20695347,10003,1.001831,-0.014160,0.511108,508
20705327,9980,1.015137,-0.016357,0.517212,508
20715343,10016,1.011475,-0.010986,0.524414,503
20725350,10007,1.011963,-0.012085,0.528320,510
20735326,9976,1.010254,-0.015381,0.529785,510
20745331,10005,0.970337,-0.014648,0.528564,511
20755342,10011,0.935303,-0.019897,0.524536,513
20765326,9984,0.894165,-0.034180,0.514282,509
20775341,10015,0.843506,-0.033691,0.504639,510
20785337,9996,0.791504,-0.034180,0.492554,511
20795339,10002,0.718018,-0.058716,0.449829,512
20805355,10016,0.707031,-0.063721,0.427856,507
20815352,9997,0.718628,-0.070679,0.412964,512
20825337,9985,0.744751,-0.069702,0.402344,507
20840012,14675,0.825684,-0.066895,0.410034,514
20847140,7128,0.871094,-0.074463,0.426758,517
20855347,8207,0.911377,-0.079956,0.440674,516
20865339,9992,0.957520,-0.073975,0.454956,518
20875345,10006,0.991821,-0.072510,0.472778,515
20885346,10001,1.009766,-0.072266,0.485596,514
20895354,10008,1.024170,-0.072266,0.498657,519
20905333,9979,1.022339,-0.084595,0.511841,523
20915327,9994,1.013916,-0.081299,0.506470,524
20925353,10026,1.010376,-0.090942,0.504639,521
20935355,10002,1.010132,-0.090698,0.494019,523
20945326,9971,1.010742,-0.092896,0.492432,520
20955350,10024,0.989502,-0.084717,0.477905,518
20965340,9990,0.972046,-0.088013,0.471191,521
20975360,10020,0.948242,-0.094727,0.465698,518
20985338,9978,0.924927,-0.097168,0.461914,521
20995352,10014,0.902954,-0.094482,0.456177,522
21005338,9986,0.884033,-0.093628,0.448364,517
21015356,10018,0.855225,-0.099121,0.431763,519
21029762,14406,0.850464,-0.102661,0.425903,514
21036397,6635,0.845825,-0.103638,0.423218,518
21045936,9539,0.844482,-0.094482,0.423340,516
21055333,9397,0.846069,-0.086304,0.426880,514
21065342,10009,0.856323,-0.072388,0.445068,513
21075338,9996,0.869385,-0.093994,0.454712,513
21085332,9994,0.863037,-0.078613,0.463257,504
21095356,10024,0.870850,-0.057861,0.466187,510
21105326,9970,0.882568,-0.046387,0.476440,511
21115345,10019,0.879395,-0.041870,0.480469,510
21125343,9998,0.887085,-0.042725,0.487183,506
21135353,10010,0.887085,-0.041138,0.487061,503
21145337,9984,0.884644,-0.040405,0.485962,510
21155351,10014,0.884644,-0.042358,0.482056,510
21165339,9988,0.887085,-0.047241,0.476929,511
21175344,10005,0.897705,-0.065674,0.464111,511
21185329,9985,0.893677,-0.065552,0.452026,512
21195340,10011,0.903442,-0.070801,0.453735,512
21205337,9997,0.913940,-0.073486,0.450439,513
21215332,9995,0.908447,-0.079590,0.448486,515
21225341,10009,0.910767,-0.083496,0.446411,513
21235342,10001,0.926636,-0.058472,0.446167,515
21245350,10008,0.923340,-0.047852,0.445312,516
21255336,9986,0.920532,-0.037354,0.441040,510
21265326,9990,0.925659,-0.030762,0.436890,511
21275343,10017,0.934692,-0.028198,0.433716,512
21285334,9991,0.952759,-0.026123,0.423340,513
21295344,10010,0.956177,-0.022827,0.419556,514
21305350,10006,0.957153,-0.021240,0.415649,524
21315331,9981,0.957397,-0.020874,0.412354,512
21325348,10017,0.957275,-0.020752,0.410645,506
21335345,9997,0.961792,-0.020142,0.409912,513
21345355,10010,0.965942,-0.014771,0.407715,509
21355328,9973,0.961670,-0.010986,0.406250,511
21365333,10005,0.944336,-0.007813,0.407837,511
21375340,10007,0.919312,-0.003662,0.408447,505
21385347,10007,0.880615,-0.000244,0.403931,511
21395335,9988,0.790894,0.000000,0.384155,510
21405326,9991,0.751587,-0.000366,0.372925,506
21415335,10009,0.725952,-0.000610,0.358032,511
21425363,10028,0.714966,-0.002319,0.343262,505
21435351,9988,0.722168,-0.003540,0.332153,509
21446848,11497,0.783081,-0.000854,0.326782,507
21455337,8489,0.817139,0.006226,0.334717,505
21465336,9999,0.848755,0.018799,0.348999,507
21475347,10011,0.878540,0.032349,0.363647,503
21485329,9982,0.903320,0.042603,0.375732,506
21495344,10015,0.924683,0.045654,0.386475,505
21505347,10003,0.952393,0.030518,0.397461,508
21515352,10005,0.958496,0.023560,0.399048,511
21525354,10002,0.967041,0.015503,0.398071,512
21535346,9992,0.969604,0.014038,0.395630,509
21545342,9996,0.964966,0.018921,0.397583,512
21555333,9991,0.960205,0.056763,0.406494,518
21565354,10021,0.942383,0.040161,0.416016,524
21575331,9977,0.930176,0.044434,0.425537,520
21585345,10014,0.913818,0.047607,0.437500,527
21595332,9987,0.898437,0.051270,0.449463,527
21605345,10013,0.884155,0.056274,0.464233,523
21615332,9987,0.856812,0.057983,0.478638,520
21625335,10003,0.846069,0.055908,0.479248,528
21635338,10003,0.839844,0.051514,0.479492,527
21645355,10017,0.837036,0.044312,0.476318,518
21655327,9972,0.841797,0.015015,0.483154,523
21665340,10013,0.833862,-0.015747,0.484131,522
21675341,10001,0.842041,-0.007690,0.492798,512
21685345,10004,0.851685,0.004028,0.497070,520
21695353,10008,0.863159,0.007568,0.502319,513
21705348,9995,0.866821,0.006592,0.510864,517
21715347,9999,0.882568,0.013062,0.522583,522
21725354,10007,0.896973,0.002686,0.532471,520
21735327,9973,0.905640,-0.002808,0.540649,514
21745344,10017,0.913696,-0.026367,0.550293,519
21755330,9986,0.902832,-0.048950,0.555664,515
21765344,10014,0.898071,-0.061401,0.555542,512
21775334,9990,0.885376,-0.046753,0.554565,512
21785351,10017,0.877563,-0.045288,0.559937,513
21795350,9999,0.873169,-0.052612,0.557983,513
21805350,10000,0.877075,-0.067383,0.559692,511
21815350,10000,0.886230,-0.086060,0.566528,504
21825354,10004,0.880981,-0.100342,0.571289,511
21835368,10014,0.862427,-0.087769,0.547729,509
21845355,9987,0.874023,-0.074951,0.569458,510
21855353,9998,0.851074,-0.072998,0.555176,507
21865333,9980,0.853027,-0.087891,0.559448,512
21875336,10003,0.848145,-0.095581,0.557983,511
21885352,10016,0.843628,-0.083740,0.555176,506
21895336,9984,0.847900,-0.075684,0.550293,512
21905337,10001,0.864380,-0.066284,0.552368,513
21915336,9999,0.879883,-0.053833,0.557617,512
21925345,10009,0.897095,-0.045410,0.564941,511
21935339,9994,0.916748,-0.040039,0.574951,513
21946103,10764,0.951050,-0.026855,0.588013,511
21955344,9241,0.954346,-0.001465,0.588501,505
21965328,9984,0.954468,0.013306,0.583496,512
21975345,10017,0.946411,0.037720,0.573975,512
21985344,9999,0.958130,-0.036377,0.563843,511
21995333,9989,0.876831,0.010864,0.526978,512
22005349,10016,0.847534,0.027222,0.509277,504
22015327,9978,0.822876,-0.007690,0.502563,508
22025336,10009,0.780762,-0.078003,0.494019,505
22035337,10001,0.735229,-0.108154,0.471069,506
22045330,9993,0.716187,-0.104492,0.447021,506
22055340,10010,0.783203,-0.025757,0.409058,504
22065349,10009,0.789307,-0.043213,0.384644,505
22075359,10010,0.842896,-0.078735,0.390625,501
22085327,9968,0.906616,-0.100586,0.407959,504
22095352,10025,0.950562,-0.101685,0.421265,505
22105351,9999,1.023315,-0.079468,0.455200,504
22115351,10000,1.048340,-0.070801,0.465942,505
22125336,9985,1.058472,-0.075562,0.472778,506
22135345,10009,1.061279,-0.087402,0.477783,507
22145335,9990,1.070557,-0.102783,0.479248,512
22155338,10003,1.048828,-0.110352,0.470093,509
22165353,10015,1.064819,-0.130493,0.467163,517
22175339,9986,1.060303,-0.139404,0.465942,520
22185332,9993,1.062622,-0.141846,0.462891,524
22195326,9994,1.062500,-0.136719,0.460571,528
22205351,10025,1.065308,-0.116455,0.460571,530
22215328,9977,1.024292,-0.075684,0.455933,530
22225335,10007,0.994141,-0.071777,0.451538,532
22235351,10016,0.960083,-0.072754,0.441528,533
22245350,9999,0.927490,-0.071045,0.435669,535
22255335,9985,0.903320,-0.064453,0.429687,533
22265345,10010,0.877319,-0.056274,0.418213,529
22275338,9993,0.839233,-0.046387,0.414795,534
22285345,10007,0.827881,-0.043823,0.414551,525
22295338,9993,0.819092,-0.042725,0.416138,520
22305336,9998,0.813477,-0.041748,0.419434,515
22315337,10001,0.809448,-0.040405,0.422485,512
22325340,10003,0.801758,-0.042114,0.439453,513
22335335,9995,0.802734,-0.045654,0.449097,511
22345327,9992,0.803223,-0.050537,0.456665,507
22355329,10002,0.805542,-0.051514,0.462646,504
22365332,10003,0.806519,-0.049561,0.467041,499
22375349,10017,0.805298,-0.045166,0.466187,497
22385342,9993,0.793335,-0.033691,0.463745,496
22395348,10006,0.786621,-0.030273,0.463989,490
22405327,9979,0.779175,-0.027954,0.465088,489
22415326,9999,0.773437,-0.029297,0.466919,494
22425331,10005,0.767944,-0.031006,0.468750,494
22435351,10020,0.756958,-0.036621,0.468872,493
22445342,9991,0.753662,-0.039673,0.466675,500
22455339,9997,0.750732,-0.044434,0.461426,500
22465342,10003,0.748535,-0.050537,0.455933,500
22475347,10005,0.749512,-0.058105,0.451416,505
22485353,10006,0.757324,-0.078247,0.447510,501
22495367,10014,0.793335,-0.085937,0.451050,505
22505358,9991,0.809326,-0.090454,0.456787,508
22515353,9995,0.823486,-0.089722,0.462402,507
22525329,9976,0.833618,-0.089355,0.467407,508
22535329,10000,0.839111,-0.088135,0.468262,503
22545340,10011,0.838501,-0.089478,0.472534,506
22555345,10005,0.832764,-0.089966,0.468994,495
22565334,9989,0.824951,-0.091797,0.465332,504
22575334,10000,0.815430,-0.093384,0.457275,505
22585332,9998,0.801880,-0.094116,0.450928,512
22595355,10023,0.769531,-0.092773,0.440796,511
22605332,9977,0.750977,-0.090942,0.435059,509
22615355,10023,0.738037,-0.089600,0.428101,509
22625346,9991,0.730469,-0.086914,0.421021,509
22635346,10000,0.734619,-0.084473,0.419312,509
22645352,10006,0.750000,-0.080444,0.419067,508
22655348,9996,0.802612,-0.066772,0.430542,506
22665342,9994,0.839844,-0.059326,0.441528,505
22675326,9984,0.880493,-0.049683,0.458252,507
22685333,10007,0.921265,-0.040649,0.477539,507
22695343,10010,0.956909,-0.030029,0.493652,503
22705359,10016,1.001221,-0.021606,0.520752,501
22715347,9988,1.011963,-0.021362,0.527954,504
22725339,9992,1.016357,-0.022095,0.530640,508
22735351,10012,1.017334,-0.025391,0.529785,500
22745334,9983,1.013794,-0.026489,0.526733,507
22755330,9996,1.004761,-0.027588,0.522949,504
22765338,10008,0.980225,-0.030640,0.529175,509
22775339,10001,0.961060,-0.029419,0.535278,518
22785330,9991,0.943115,-0.026245,0.540771,520
22795336,10006,0.923340,-0.018311,0.546387,517
22805328,9992,0.907837,-0.037720,0.555054,519
22815344,10016,0.892090,-0.026001,0.570923,526
22825350,10006,0.888184,-0.003540,0.571167,533
22835350,10000,0.888916,0.015137,0.575073,536
22845328,9978,0.891968,0.019409,0.578735,533
22855330,10002,0.891113,0.008057,0.593140,535
22865332,10002,0.891602,0.000122,0.592163,536
22875347,10015,0.889282,0.005127,0.603882,544
22885349,10002,0.875732,0.001709,0.605347,534
22895353,10004,0.871338,0.006470,0.606934,530
22905368,10015,0.861816,0.004028,0.602905,529
22915383,10015,0.859863,-0.002930,0.603882,527
22925339,9956,0.856812,-0.001343,0.606445,525
22935335,9996,0.850342,-0.010986,0.601196,524
22945348,10013,0.840454,-0.000122,0.603638,518
22955334,9986,0.859131,-0.025146,0.611450,519
22965344,10010,0.836914,-0.004761,0.596436,517
22975334,9990,0.864624,-0.011841,0.600586,514
22985347,10013,0.849487,-0.052368,0.590576,511
22995334,9987,0.854492,-0.048340,0.575806,511
23005336,10002,0.855469,-0.063721,0.569946,512
23015347,10011,0.842407,-0.078003,0.555176,509
23025336,9989,0.843506,-0.092163,0.552490,506
23035337,10001,0.840576,-0.094604,0.542358,508
23045347,10010,0.837769,-0.082520,0.536743,504
23055328,9981,0.834106,-0.069092,0.532959,509
23067329,12001,0.833618,-0.069214,0.527344,504
23075330,8001,0.828857,-0.070923,0.521362,510
23085335,10005,0.829346,-0.068115,0.507568,511
23095360,10025,0.826294,-0.062378,0.501343,510
23105371,10011,0.827759,-0.078247,0.498413,511
23115348,9977,0.828125,-0.086304,0.491333,512
23125350,10002,0.826660,-0.103149,0.483398,512
23135353,10003,0.818726,-0.052002,0.475464,512
23145342,9989,0.862061,-0.029541,0.463013,505
23155339,9997,0.889038,-0.032471,0.460815,509
23165329,9990,0.930420,-0.027588,0.473755,512
23175345,10016,0.946045,0.021118,0.479736,511
23185342,9997,0.953979,0.030762,0.486084,511
23195327,9985,0.974609,-0.015259,0.510498,506
23205352,10025,0.966431,-0.033203,0.511353,508
23215346,9994,0.956787,-0.026245,0.510376,512
23225330,9984,0.945801,-0.026367,0.506104,510
23235330,10000,0.927856,-0.023315,0.499756,511
23245333,10003,0.905640,-0.031616,0.488892,506
23255331,9998,0.833862,-0.114746,0.463013,508
23265350,10019,0.835693,-0.075684,0.462769,511
23275334,9984,0.827637,0.012695,0.434326,507
23285350,10016,0.813232,0.055664,0.415161,512
23295330,9980,0.795776,0.030273,0.381714,507
23305330,10000,0.877441,-0.079346,0.399048,505
23315363,10033,0.917236,-0.103271,0.400757,509
23325337,9974,0.951660,-0.100952,0.407349,505
23335349,10012,1.000732,-0.072632,0.423584,509
23345328,9979,1.031860,-0.033447,0.439575,502
23355347,10019,1.038330,-0.015381,0.445557,502
23365349,10002,1.047852,-0.054321,0.448608,507
23375351,10002,1.044312,-0.086914,0.443970,507
23385339,9988,1.035767,-0.100464,0.434326,504
23395355,10016,1.028442,-0.097900,0.424927,514
23405330,9975,1.025513,-0.085571,0.413086,514
23415342,10012,1.013306,-0.069702,0.395874,518
23425346,10004,1.004150,-0.062622,0.395630,523
23435350,10004,0.990601,-0.053589,0.396729,523
23445350,10000,0.967529,-0.043823,0.398926,530
23455339,9989,0.940063,-0.037598,0.397461,534
23465328,9989,0.911499,-0.036865,0.392700,533
23475326,9998,0.859253,-0.039673,0.379639,536
23485329,10003,0.840088,-0.041138,0.370850,532
23495341,10012,0.823242,-0.037231,0.363037,532
23505344,10003,0.810791,-0.033569,0.357300,530
23515329,9985,0.804077,-0.031128,0.353882,525
23525346,10017,0.796387,-0.036377,0.354858,531
23535343,9997,0.795532,-0.038940,0.356079,525
23545328,9985,0.797607,-0.042480,0.357666,521
23555348,10020,0.801636,-0.048340,0.356201,518
23565380,10032,0.807129,-0.053467,0.357056,514
23575328,9948,0.815918,-0.057007,0.358154,508
23585335,10007,0.835815,-0.059937,0.367310,507
23595346,10011,0.845703,-0.057007,0.371948,503
23605353,10007,0.852539,-0.053101,0.378418,499
23615335,9982,0.856934,-0.048706,0.382935,495
23625327,9992,0.860229,-0.045166,0.386108,495
23635336,10009,0.861450,-0.044312,0.389771,494
23645335,9999,0.862915,-0.043823,0.391724,496
23655341,10006,0.862427,-0.044556,0.392822,495
23665333,9992,0.859253,-0.045288,0.393799,497
23675338,10005,0.856934,-0.047241,0.393677,498
23685353,10015,0.857056,-0.050293,0.392334,501
23695342,9989,0.869507,-0.061890,0.387329,503
23705336,9994,0.885010,-0.066528,0.386597,503
23715336,10000,0.900879,-0.066650,0.392456,509
23725350,10014,0.910400,-0.062500,0.401489,510
23735327,9977,0.917236,-0.057373,0.412720,513
23745328,10001,0.922729,-0.050537,0.429077,511
23755336,10008,0.925293,-0.050781,0.434204,514
23765343,10007,0.928711,-0.049316,0.438477,513
23775338,9995,0.932617,-0.048706,0.440308,510
23785327,9989,0.935669,-0.050171,0.441772,515
23795378,10051,0.937012,-0.049561,0.443237,511
23805361,9983,0.918701,-0.049561,0.450684,515
23815333,9972,0.903442,-0.049194,0.453613,516
23825349,10016,0.886108,-0.049194,0.457031,514
23835341,9992,0.871948,-0.047974,0.462036,514
23845333,9992,0.864746,-0.047241,0.465942,513
23855344,10011,0.876709,-0.042236,0.474121,512
23865348,10004,0.891357,-0.037231,0.483154,512
23875343,9995,0.907959,-0.031738,0.490356,512
23885355,10012,0.920410,-0.027466,0.500366,509
23895335,9980,0.927246,-0.020508,0.508667,511
23905334,9999,0.926636,-0.017334,0.511475,511
23915344,10010,0.927490,-0.022827,0.513672,510
23925327,9983,0.927490,-0.025757,0.512817,512
23935326,9999,0.926392,-0.028564,0.510254,509
23945346,10020,0.930176,-0.033081,0.508667,511
23955353,10007,0.937744,-0.035889,0.508911,501
23965340,9987,0.948364,-0.039917,0.511475,511
23975341,10001,0.955322,-0.048584,0.520508,511
23985354,10013,0.953613,-0.051514,0.525513,511
23995345,9991,0.957520,-0.045532,0.535400,503
24005347,10002,0.952393,-0.032837,0.544312,512
24015353,10006,0.939819,-0.021729,0.548584,512
24025346,9993,0.897827,-0.006104,0.551758,507
24035345,9999,0.882446,-0.005615,0.553833,518
24045372,10027,0.859131,-0.001099,0.550659,511
24055380,10008,0.836792,0.006470,0.543579,521
24065349,9969,0.825439,0.010254,0.539551,522
24075331,9982,0.798950,0.012573,0.533447,523
24085337,10006,0.800537,0.029297,0.532715,528
24095350,10013,0.798096,0.024536,0.526123,528
24105331,9981,0.800537,-0.012573,0.544312,526
24115327,9996,0.791626,0.004150,0.533325,531
24125351,10024,0.808716,0.020142,0.543457,531
24135328,9977,0.816772,0.010376,0.539917,532
24145354,10026,0.824463,0.004272,0.542236,531
24155335,9981,0.831177,-0.003052,0.541504,526
24165349,10014,0.837036,-0.010498,0.542603,525
24175343,9994,0.836914,-0.012939,0.539673,529
24185337,9994,0.844604,-0.004395,0.532959,521
24195340,10003,0.841797,-0.007446,0.527954,525
24205344,10004,0.846924,-0.017456,0.524658,522
24215335,9991,0.844360,-0.013428,0.518677,519
24225342,10007,0.849731,-0.024780,0.517822,520
24235327,9985,0.843872,-0.022339,0.508911,518
24245354,10027,0.852417,0.000854,0.499634,514
24255350,9996,0.860718,-0.003296,0.498047,514
24265330,9980,0.846313,-0.010254,0.495117,513
24275326,9996,0.852417,-0.002563,0.492065,513
24285336,10010,0.863647,-0.021240,0.491943,510
24295328,9992,0.861084,-0.040527,0.485352,510
24305334,10006,0.864868,-0.038330,0.486450,503
24315345,10011,0.870850,-0.009766,0.485596,505
24325343,9998,0.875000,0.026123,0.482788,508
24335350,10007,0.872192,0.038696,0.476562,510
24345328,9978,0.875610,0.021484,0.469727,509
24355326,9998,0.915405,-0.000732,0.478516,492
24365349,10023,0.927612,0.005493,0.482178,507
24375338,9989,0.944092,0.013062,0.485229,512
24385339,10001,0.963135,0.017944,0.488770,508
24395335,9996,0.990601,0.014771,0.489380,510
24405340,10005,1.023926,0.011963,0.493164,507
24415344,10004,1.039795,0.008179,0.496338,513
24425352,10008,1.030884,0.000244,0.501831,511
24435336,9984,1.000977,-0.003784,0.500366,514
24445338,10002,0.966431,-0.008545,0.496704,511
24455354,10016,0.929565,-0.005127,0.484619,513
24465340,9986,0.839722,-0.004761,0.450073,518
24475354,10014,0.805176,-0.010620,0.427734,514
24485344,9990,0.785522,-0.019409,0.407104,511
24495330,9986,0.777100,-0.024658,0.389771,508
24505336,10006,0.773560,-0.025757,0.377563,509
24515355,10019,0.795776,-0.024658,0.368286,510
24525343,9988,0.819580,-0.024658,0.370972,508
24535340,9997,0.844604,-0.023804,0.375122,506
24545350,10010,0.866089,-0.024536,0.380249,499
24555339,9989,0.884399,-0.028564,0.382202,496
24565332,9993,0.900391,-0.033813,0.382446,501
24575341,10009,0.921997,-0.040771,0.382935,498
24585343,10002,0.928955,-0.045410,0.384033,497
24598845,13502,0.934204,-0.050415,0.382813,498
24605357,6512,0.937012,-0.053589,0.383179,491
24615332,9975,0.946289,-0.054687,0.382446,497
24625353,10021,0.959106,-0.048584,0.380859,499
24635335,9982,0.971313,-0.045044,0.380615,502
24645342,10007,0.980469,-0.044556,0.384399,502
24655330,9988,0.981934,-0.041382,0.387329,504
24665352,10022,0.975220,-0.038086,0.390869,507
24675344,9992,0.964722,-0.034912,0.394165,509
24685353,10009,0.923584,-0.034546,0.392334,505
24695354,10001,0.898315,-0.042725,0.385620,517
24705330,9976,0.872314,-0.051392,0.376709,521
24715333,10003,0.847412,-0.056641,0.370361,518
24725334,10001,0.825684,-0.060547,0.366455,525
24735352,10018,0.793945,-0.063599,0.362427,528
24745350,9998,0.785522,-0.066284,0.363770,524
24755333,9983,0.780762,-0.067505,0.363770,532
24765356,10023,0.780518,-0.065308,0.367065,526
24775326,9970,0.784912,-0.059326,0.373047,528
24785348,10022,0.792358,-0.050537,0.381470,531
24795331,9983,0.815186,-0.030640,0.400391,530
24805339,10008,0.828979,-0.023193,0.411377,526
24815334,9995,0.842285,-0.017578,0.420898,515
24825339,10005,0.855347,-0.014404,0.429443,515
24835382,10043,0.866821,-0.012573,0.434814,509
24845349,9967,0.888916,-0.017578,0.445923,511
24855345,9996,0.893799,-0.022949,0.449463,511
24865355,10010,0.898926,-0.029907,0.454590,509
24875351,9996,0.904175,-0.036011,0.457275,508
24885341,9990,0.907837,-0.043701,0.457397,506
24895326,9985,0.909790,-0.052856,0.467041,507
24905354,10028,0.908813,-0.062012,0.473267,507
24915349,9995,0.905884,-0.061401,0.475830,505
24925343,9994,0.906494,-0.066406,0.473999,507
24935343,10000,0.915161,-0.079956,0.468262,509
24945331,9988,0.928711,-0.091187,0.461914,510
24955334,10003,0.968140,-0.109863,0.464966,510
24965338,10004,0.977539,-0.114502,0.473999,505
24975331,9993,0.980347,-0.111938,0.485107,509
24985343,10012,0.986938,-0.106812,0.495972,513
24995346,10003,0.998535,-0.104736,0.504272,514
25005330,9984,1.006104,-0.106323,0.517456,511
25015341,10011,1.013184,-0.104858,0.526001,517
25025336,9995,0.999023,-0.095093,0.536011,517
25035334,9998,0.963257,-0.083008,0.545166,516
25045351,10017,0.908081,-0.064941,0.548218,518
25055347,9996,0.845337,-0.050049,0.541504,518
25065340,9993,0.727295,-0.043945,0.514160,514
25075352,10012,0.694214,-0.048462,0.501465,518
25085335,9983,0.681641,-0.045288,0.491577,515
25095354,10019,0.695068,-0.043335,0.485107,508
25105338,9984,0.727417,-0.043213,0.488525,512
25115338,10000,0.765869,-0.039429,0.508423,507
25125332,9994,0.838623,-0.039063,0.523437,510
25135330,9998,0.871460,-0.039673,0.536499,504
25145349,10019,0.897827,-0.045532,0.547729,502
25155352,10003,0.917603,-0.048706,0.556274,496
25165340,9988,0.930542,-0.046021,0.563599,495
25175349,10009,0.938721,-0.045532,0.575317,501
25185356,10007,0.939697,-0.045410,0.583862,496
25195342,9986,0.942871,-0.043701,0.593994,504
25205353,10011,0.941528,-0.047485,0.599976,506
25215346,9993,0.930420,-0.051147,0.602051,502
25225345,9999,0.879639,-0.047485,0.610840,507
25235334,9989,0.860474,-0.040039,0.607544,510
25245344,10010,0.832764,-0.032349,0.602539,505
25255353,10009,0.802979,-0.023560,0.592651,512
25265342,9989,0.783203,-0.020386,0.579346,513
25275355,10013,0.769165,-0.031738,0.564575,513
25285331,9976,0.764893,-0.031372,0.538208,530
25295348,10017,0.777588,-0.064819,0.536011,518
25305331,9983,0.782227,-0.089478,0.536011,516
25315337,10006,0.788208,-0.083130,0.539062,520
25325340,10003,0.796509,-0.064697,0.542725,521
25335343,10003,0.813965,-0.068359,0.543823,525
25345326,9983,0.824097,-0.079712,0.544189,523
25355333,10007,0.828857,-0.084473,0.543213,525
25365343,10010,0.834229,-0.075073,0.539673,528
25375349,10006,0.839722,-0.067993,0.539062,529
25385347,9998,0.844604,-0.067505,0.538574,530
25395335,9988,0.851196,-0.065674,0.535278,524
25405337,10002,0.852905,-0.072510,0.534790,527
25415353,10016,0.851318,-0.062500,0.529785,529
25425328,9975,0.864868,-0.046753,0.530396,523
25435329,10001,0.865479,-0.041016,0.526367,528
25445349,10020,0.853760,-0.064697,0.521362,524
25455336,9987,0.858765,-0.073853,0.525269,525
25465347,10011,0.860840,-0.079590,0.522705,524
25475347,10000,0.851440,-0.084106,0.524048,522
25485337,9990,0.844238,-0.080566,0.516968,520
25495344,10007,0.853638,-0.080688,0.510376,516
25505333,9989,0.889526,-0.069458,0.510498,516
25515337,10004,0.896973,-0.062866,0.514038,518
25525365,10028,0.908691,-0.057129,0.517090,512
25535342,9977,0.925171,-0.052124,0.515747,511
25545348,10006,0.941284,-0.051758,0.513306,505
25555334,9986,0.959717,-0.059448,0.505493,513
25565328,9994,0.968750,-0.062256,0.501587,506
25575336,10008,0.977905,-0.063965,0.497437,511
25585353,10017,0.980713,-0.069580,0.492554,507
25595329,9976,0.970215,-0.078979,0.486816,513
25605347,10018,0.944458,-0.087769,0.479736,515
25615355,10008,0.851929,-0.103271,0.462524,515
25625327,9972,0.787598,-0.103149,0.450562,517
25635338,10011,0.735718,-0.101807,0.430176,514
25645339,10001,0.705688,-0.108276,0.404297,515
25655338,9999,0.696655,-0.115845,0.382324,508
25665337,9999,0.740234,-0.114868,0.360596,516
25675334,9997,0.778687,-0.100342,0.359253,508
25685339,10005,0.813843,-0.084839,0.363647,510
25695350,10011,0.844360,-0.075073,0.369019,501
25705335,9985,0.868530,-0.073486,0.371582,503
25715337,10002,0.887085,-0.078247,0.376587,502
25725348,10011,0.906494,-0.081421,0.392700,498
25735331,9983,0.912964,-0.080688,0.397095,498
25745327,9996,0.921387,-0.080933,0.399170,495
25755381,10054,0.932251,-0.079468,0.398560,496
25765335,9954,0.940918,-0.076782,0.397461,497
25775332,9997,0.952637,-0.056030,0.396729,497
25785338,10006,0.948120,-0.037598,0.398438,492
25795342,10004,0.938477,-0.021973,0.403687,495
25805336,9994,0.920776,-0.009277,0.408081,503
25815343,10007,0.895508,0.000000,0.413208,497
25825330,9987,0.871460,0.008789,0.419434,506
25835353,10023,0.828613,0.015869,0.430786,511
25845343,9990,0.817505,0.010742,0.434814,504
25855328,9985,0.806152,0.006104,0.434204,510
25865346,10018,0.798096,0.000488,0.433228,507
25875350,10004,0.792603,-0.006714,0.429932,512
25885352,10002,0.789307,-0.011963,0.422363,512
25895329,9977,0.793457,-0.010376,0.421875,512
25905329,10000,0.802368,-0.006470,0.421509,510
25915342,10013,0.816406,-0.001465,0.423218,506
25925349,10007,0.834229,0.000000,0.430908,504
25935334,9985,0.852783,0.001221,0.443359,510
25945347,10013,0.884155,0.002075,0.477051,511
25955328,9981,0.899536,-0.001831,0.487549,511
25965343,10015,0.915649,-0.010010,0.495483,511
25975327,9984,0.923706,-0.019043,0.498169,515
25985343,10016,0.926758,-0.026611,0.495850,513
25995337,9994,0.930420,-0.035767,0.496460,515
26005357,10020,0.929077,-0.038574,0.496216,524
26015345,9988,0.930298,-0.043213,0.493652,527
26025354,10009,0.922852,-0.046997,0.487427,532
26035333,9979,0.922974,-0.055786,0.484131,534
26045350,10017,0.925049,-0.058472,0.483521,533
26055332,9982,0.909668,-0.062012,0.477173,533
26065344,10012,0.922729,-0.078003,0.471680,537
26075338,9994,0.949219,-0.100098,0.467041,540
26085344,10006,0.977783,-0.123901,0.467041,537
26095347,10003,0.998779,-0.140747,0.470581,538
26105331,9984,1.021973,-0.140869,0.493164,532
26115335,10004,1.030640,-0.128296,0.503296,530
26125345,10010,1.030762,-0.115723,0.510620,527
26135349,10004,1.028076,-0.107910,0.515747,527
26145353,10004,1.022705,-0.108887,0.516968,519
26155337,9984,1.013184,-0.111206,0.516968,523
26165344,10007,0.946289,-0.100586,0.518188,521
26175329,9985,0.892944,-0.092896,0.514893,520
26185349,10020,0.836182,-0.086304,0.509033,517
26195350,10001,0.781616,-0.080566,0.500488,516
26205346,9996,0.737305,-0.077759,0.490479,510
26215344,9998,0.703003,-0.071899,0.483887,512
26225333,9989,0.717529,-0.061768,0.489868,510
26235334,10001,0.747070,-0.046509,0.502686,503
26245352,10018,0.783081,-0.033325,0.522949,507
26255355,10003,0.816650,-0.027344,0.538818,499
26265355,10000,0.844971,-0.060303,0.557129,497
26275347,9992,0.879028,-0.046509,0.559082,497
26285331,9984,0.881714,-0.052612,0.557983,493
26295351,10020,0.879517,-0.057373,0.554199,498
26305352,10001,0.869263,-0.061157,0.550293,499
26315339,9987,0.861816,-0.061768,0.546753,499
26325352,10013,0.859375,-0.055054,0.546387,500
26335337,9985,0.862549,-0.047485,0.551758,501
26345335,9998,0.865112,-0.036743,0.561157,504
26355353,10018,0.864380,-0.024292,0.570557,507
26365342,9989,0.858765,-0.011230,0.574219,509
26375353,10011,0.851196,0.031128,0.571411,503
26385355,10002,0.832397,0.026123,0.564941,511
26395342,9987,0.823364,0.039063,0.558716,512
26405329,9987,0.817627,0.050293,0.553345,513
26415352,10023,0.812012,0.057861,0.547485,514
26425334,9982,0.808350,0.060181,0.541016,508
26435329,9995,0.812378,0.051758,0.534302,513
26445328,9999,0.815552,0.050293,0.535278,507
26455343,10015,0.817627,0.049683,0.536011,512
26465337,9994,0.810181,0.081177,0.538330,513
26475331,9994,0.818848,0.119141,0.539429,513
26485355,10024,0.835205,0.097412,0.544678,511
26495330,9975,0.858643,0.051270,0.551270,500
26505329,9999,0.862427,0.024048,0.551880,509
26515345,10016,0.883789,0.002563,0.555664,510
26525340,9995,0.883301,0.026245,0.557861,511
26535327,9987,0.880371,0.094360,0.553345,508
26545337,10010,0.891724,0.014160,0.546631,501
26555352,10015,0.875732,0.004517,0.538086,500
26565338,9986,0.868164,0.007813,0.535034,509
26575331,9993,0.864258,-0.004639,0.529297,509
26585331,10000,0.856079,-0.024902,0.517700,507
26595328,9997,0.853638,-0.025879,0.502930,511
26605349,10021,0.849243,-0.042236,0.497925,512
26615335,9986,0.837402,-0.037231,0.495483,507
26625343,10008,0.832275,-0.020142,0.510498,510
26635329,9986,0.801514,-0.045898,0.534424,529
26645339,10010,0.862915,-0.271240,0.506592,537
26655344,10005,0.810913,-0.221680,0.460571,559
26665329,9985,0.925293,0.009644,0.460083,561
26675344,10015,0.945068,0.098511,0.456299,558
26685328,9984,0.852661,0.079590,0.403320,545
26695389,10061,0.865112,-0.015625,0.410645,546
26705331,9942,0.934082,-0.122314,0.491089,543
26715344,10013,0.909668,-0.111450,0.484985,536
26725350,10006,0.925659,-0.066040,0.490479,530
26735334,9984,0.951294,-0.004272,0.493042,522
26745353,10019,0.945435,0.039307,0.481201,521
26755345,9992,0.926636,0.043945,0.465942,518
26765354,10009,0.929321,-0.040527,0.453613,514
26775353,9999,0.922241,-0.083008,0.445923,514
26785332,9979,0.927734,-0.094727,0.438477,505
26795344,10012,0.935425,-0.080933,0.434937,510
26805344,10000,0.941650,-0.057739,0.428345,509
26815329,9985,0.933594,-0.044067,0.429687,503
26825334,10005,0.918213,-0.047974,0.431641,509
26835332,9998,0.890259,-0.053589,0.429321,508
26845332,10000,0.860352,-0.052368,0.424316,508
26855341,10009,0.828613,-0.047607,0.414917,505
26865352,10011,0.800903,-0.044922,0.400879,510
26875331,9979,0.774536,-0.061157,0.364258,501
26885342,10011,0.780273,-0.074341,0.346680,506
26895333,9991,0.800293,-0.086548,0.334717,500
26905355,10022,0.832886,-0.091309,0.330811,507
26915336,9981,0.866211,-0.090942,0.330566,503
26925335,9999,0.910400,-0.086182,0.340942,498
26935335,10000,0.919434,-0.089966,0.349121,499
26945367,10032,0.916260,-0.091431,0.358887,500
26955345,9978,0.910522,-0.093384,0.364014,499
26965338,9993,0.899902,-0.093018,0.365112,499
26975329,9991,0.885620,-0.087769,0.364380,501
26985331,10002,0.876099,-0.082031,0.357910,502
26995351,10020,0.874634,-0.078247,0.356812,503
27005327,9976,0.878784,-0.077393,0.358154,503
27015354,10027,0.883423,-0.080811,0.356812,498
27025335,9981,0.887085,-0.089966,0.357178,506
27035342,10007,0.887451,-0.113647,0.367065,498
27045332,9990,0.887695,-0.125977,0.377197,506
27055342,10010,0.888794,-0.132568,0.391357,508
27065339,9997,0.888184,-0.135864,0.407349,505
27075333,9994,0.887817,-0.135742,0.426147,501
27085352,10019,0.889038,-0.131592,0.442017,506
27095332,9980,0.896362,-0.123657,0.469727,507
27105328,9996,0.902222,-0.126953,0.482178,506
27115338,10010,0.907593,-0.129883,0.490112,507
27125354,10016,0.911255,-0.132690,0.496460,507
27135345,9991,0.912231,-0.136841,0.499268,507
27145338,9993,0.914795,-0.151245,0.503784,506
27155334,9996,0.917358,-0.159790,0.506104,509
27165331,9997,0.910278,-0.159790,0.508789,510
27175346,10015,0.913086,-0.159546,0.517090,509
27185334,9988,0.920654,-0.154785,0.526489,510
27195367,10033,0.918091,-0.151001,0.534058,515
27205329,9962,0.910278,-0.144653,0.541260,509
27215341,10012,0.915771,-0.153931,0.546509,513
27225342,10001,0.904175,-0.153564,0.537720,513
27235353,10011,0.912964,-0.146973,0.529907,511
27245340,9987,0.918335,-0.141113,0.523804,508
27255335,9995,0.908203,-0.172241,0.505005,514
27265331,9996,0.913086,-0.190308,0.504150,515
27275343,10012,0.906372,-0.193481,0.498535,518
27285352,10009,0.910889,-0.176636,0.497925,520
27295346,9994,0.912354,-0.167358,0.494629,521
27305351,10005,0.915649,-0.167236,0.496216,525
27315329,9978,0.939819,-0.174194,0.495483,525
27325337,10008,0.950928,-0.177124,0.490234,529
27335342,10005,0.976685,-0.199951,0.489380,531
27345326,9984,0.963989,-0.190063,0.480469,534
27355340,10014,0.944092,-0.180054,0.467651,529
27365344,10004,0.943359,-0.154297,0.479614,538
27375355,10011,0.931274,-0.148804,0.473145,537
27385343,9988,0.917847,-0.143921,0.472412,537
27395337,9994,0.906738,-0.152344,0.464600,539
27405342,10005,0.886475,-0.147339,0.458496,537
27415340,9998,0.862427,-0.141479,0.450806,534
27425351,10011,0.826538,-0.130127,0.443726,532
27435328,9977,0.815063,-0.124146,0.438477,523
27445348,10020,0.813232,-0.118896,0.433716,526
27455348,10000,0.805786,-0.109253,0.436401,525
27465338,9990,0.798340,-0.090698,0.447021,519
27475383,10045,0.821167,-0.050293,0.481079,517
27485366,9983,0.846558,-0.039795,0.501465,512
27495343,9977,0.864258,-0.030640,0.521851,511
27505355,10012,0.873413,-0.015259,0.533813,506
27515341,9986,0.888184,-0.001221,0.544922,504
27525355,10014,0.899048,0.008301,0.547485,500
27535335,9980,0.911255,-0.000122,0.540527,498
27545335,10000,0.921875,-0.005859,0.537231,502
27555327,9992,0.931396,-0.011963,0.531982,503
27575281,19954,0.941528,-0.015625,0.525635,507
27583594,8313,0.965210,0.042969,0.528320,505
27589069,5475,0.953979,0.047241,0.530762,511
27595355,6286,0.959229,0.006714,0.536255,509
27605345,9990,0.944458,-0.007568,0.540649,512
27615338,9993,0.929687,-0.006470,0.537354,514
27625354,10016,0.917236,-0.000366,0.533203,514
27635347,9993,0.899780,0.002075,0.523682,517
27645333,9986,0.868286,0.005005,0.499512,517
27655335,10002,0.858765,-0.001831,0.488892,518
27665351,10016,0.845825,0.003662,0.480347,519
27675332,9981,0.836182,0.014404,0.475586,517
27685335,10003,0.826050,0.032349,0.474487,513
27695347,10012,0.817383,0.045654,0.480713,514
27705353,10006,0.818237,0.039795,0.486084,511
27715332,9979,0.810059,0.014771,0.484497,507
27725351,10019,0.810669,0.028076,0.485596,510
27735335,9984,0.815186,0.021484,0.485474,510
27745326,9991,0.812256,0.009766,0.489990,503
27755344,10018,0.825928,0.006226,0.492920,515
27765352,10008,0.824463,0.000977,0.502930,532
27778984,13632,0.814087,0.025391,0.512939,525
27785329,6345,0.824951,0.019775,0.515747,528
27795337,10008,0.837036,0.004395,0.517822,530
27805331,9994,0.848267,-0.015381,0.510864,532
27815337,10006,0.855713,-0.015503,0.518799,524
27825332,9995,0.838379,0.002319,0.511719,529
27835326,9994,0.828247,0.004395,0.508057,515
27845330,10004,0.829590,-0.006348,0.504883,517
27855352,10022,0.816040,-0.027588,0.493164,513
27865348,9996,0.830322,-0.073242,0.481689,508
27875329,9981,0.812012,-0.090332,0.471436,507
27885342,10013,0.815918,-0.081909,0.464600,500
27895338,9996,0.835327,-0.049316,0.467041,489
27905351,10013,0.842529,-0.024292,0.461304,497
27915335,9984,0.854248,-0.036865,0.446777,496
27925350,10015,0.880371,-0.048218,0.450928,488
27935384,10034,0.901855,-0.051147,0.457764,491
27945356,9972,0.912842,-0.045776,0.457520,498
27955348,9992,0.930664,-0.038086,0.456299,500
27965336,9988,0.957031,-0.030029,0.453857,504
27975354,10018,0.993652,-0.013306,0.449707,510
27985332,9978,1.000488,-0.009521,0.448486,515
27995326,9994,1.000122,-0.005615,0.449463,520
28005348,10022,0.985229,0.000732,0.451538,521
28015336,9988,0.951660,0.012207,0.454224,530
28025329,9993,0.852661,0.030762,0.447021,536
28035347,10018,0.800171,0.028320,0.434814,532
28045354,10007,0.756592,0.021484,0.415527,541
28055337,9983,0.728149,0.009277,0.392334,540
28065341,10004,0.716919,-0.002563,0.367188,537
28076150,10809,0.747803,-0.024780,0.327271,537
28085343,9193,0.778564,-0.030029,0.317871,533
28095351,10008,0.813965,-0.030029,0.319458,527
28105343,9992,0.846680,-0.025146,0.325562,519
28115351,10008,0.875610,-0.019531,0.337646,514
28125351,10000,0.904297,-0.021362,0.350952,507
28135346,9995,0.966797,-0.040771,0.372314,501
28145354,10008,0.991211,-0.052612,0.382690,497
28155378,10024,1.010864,-0.062256,0.391968,490
28165326,9948,1.030396,-0.071899,0.402222,497
28175350,10024,1.044556,-0.074951,0.408447,497
28185345,9995,1.054810,-0.069702,0.412354,492
28195353,10008,1.039185,-0.056274,0.411743,500
28205338,9985,1.017578,-0.041748,0.409790,501
28215350,10012,0.993530,-0.029541,0.407471,504
28225348,9998,0.959839,-0.022583,0.403931,506
28235339,9991,0.924683,-0.021362,0.404297,504
28245345,10006,0.864136,-0.023437,0.399170,512
28255343,9998,0.845093,-0.024170,0.396606,514
28265331,9988,0.832275,-0.024658,0.395264,515
28275350,10019,0.825317,-0.023560,0.394043,516
28285331,9981,0.822266,-0.018799,0.395996,520
28295338,10007,0.822021,-0.014282,0.405396,518
28305345,10007,0.832397,-0.015137,0.415283,516
28315341,9996,0.841553,-0.016113,0.423340,511
28325355,10014,0.851440,-0.018799,0.432617,516
28335350,9995,0.864746,-0.023071,0.441772,513
28345338,9988,0.876221,-0.026001,0.451050,508
28355331,9993,0.898560,-0.034912,0.467651,504
28365343,10012,0.897827,-0.037598,0.474609,505
28375328,9985,0.907837,-0.045044,0.480957,511
28388160,12832,0.919434,-0.066406,0.489380,502
28396458,8298,0.000000,0.000000,0.000000,510
28405342,8884,0.918457,-0.065063,0.500244,509
28415349,10007,0.911011,-0.069458,0.497559,510
28425328,9979,0.907227,-0.083862,0.496704,510
28435331,10003,0.895996,-0.108765,0.495117,510
28445344,10013,0.879150,-0.117065,0.487061,513
28455337,9993,0.875244,-0.108887,0.481079,513
28465332,9995,0.886841,-0.125732,0.458984,514
28475329,9997,0.916138,-0.135010,0.446655,511
28485348,10019,0.949707,-0.135742,0.448730,518
28495352,10004,0.974854,-0.129639,0.451294,516
28505328,9976,1.006836,-0.153564,0.465088,520
28515347,10019,1.012817,-0.160889,0.487671,516
28525338,9991,1.036011,-0.129150,0.501953,520
28535344,10006,1.025391,-0.122559,0.501221,512
28545352,10008,1.000122,-0.114014,0.491577,519
28555353,10001,0.975342,-0.113159,0.488281,521
28565330,9977,0.938232,-0.109985,0.481934,522
28575349,10019,0.849243,-0.106201,0.476562,517
28585886,10537,0.814087,-0.081909,0.470215,520
28595349,9463,0.782837,-0.053467,0.464478,514
28607062,11713,0.759155,-0.034302,0.455933,522
28615378,8316,0.753174,-0.027954,0.449341,512
28625328,9950,0.757812,-0.013428,0.434448,522
28635332,10004,0.770142,-0.004761,0.434814,523
28645335,10003,0.787109,-0.001587,0.434814,525
28655350,10015,0.795898,0.017334,0.438477,526
28665340,9990,0.824829,0.008911,0.447510,524
28675341,10001,0.847046,0.006836,0.453735,525
28685351,10010,0.918457,0.010742,0.473877,518
28695348,9997,0.952271,0.009399,0.484741,523
28705341,9993,0.974243,0.028931,0.497192,520
28715351,10010,1.002808,0.038818,0.511841,518
28725328,9977,1.020874,0.033447,0.528076,519
28735347,10019,1.019409,0.057373,0.551270,520
28745349,10002,1.012329,0.069824,0.560059,518
28755350,10001,0.985840,0.079712,0.561523,517
28765351,10001,0.943848,0.085449,0.556396,520
28775329,9978,0.906128,0.094482,0.549194,521
28785349,10020,0.863037,0.106201,0.529175,516
28795333,9984,0.803101,0.060547,0.487305,519
28805326,9993,0.781860,0.022949,0.463013,517
28815347,10021,0.765015,0.028320,0.438965,517
28825339,9992,0.763916,0.013550,0.425049,514
28835331,9992,0.771973,0.021484,0.424316,507
28845379,10048,0.793579,0.045532,0.432861,514
28855337,9958,0.817383,0.039551,0.439941,511
28865354,10017,0.828979,0.032593,0.442261,511
28875338,9984,0.862305,0.010620,0.448730,513
28885330,9992,0.866577,0.022461,0.467041,510
28895331,10001,0.873291,0.044800,0.473267,511
28905351,10020,0.901611,0.065552,0.506348,505
28915350,9999,0.904175,0.045898,0.524536,508
28925329,9979,0.901489,0.062256,0.536987,508
28935349,10020,0.904419,0.050903,0.547852,510
28945354,10005,0.900757,0.044434,0.551758,501
28955352,9998,0.899902,0.022705,0.549438,507
28965350,9998,0.875000,0.020874,0.547607,505
28975326,9976,0.862427,0.048096,0.540649,510
28985347,10021,0.869507,0.065430,0.542725,513
28995349,10002,0.859619,0.066772,0.554321,516
29005331,9982,0.861328,0.048950,0.588623,519
29015339,10008,0.870239,-0.102051,0.567871,520
29025338,9999,0.847778,-0.069092,0.565918,513
29035349,10011,0.863892,0.029053,0.556641,524
29045333,9984,0.874146,0.099365,0.560425,538
29055340,10007,0.862061,0.081909,0.561401,547
29065346,10006,0.850708,-0.027588,0.558350,548
29075377,10031,0.870483,-0.044800,0.555420,537
29085326,9949,0.887451,-0.016235,0.545288,533
29095355,10029,0.902100,0.029297,0.525269,530
29105355,10000,0.925293,0.047729,0.517700,521
29115332,9977,0.938599,0.040527,0.521729,513
29125350,10018,0.971069,-0.013916,0.525513,510
29135347,9997,0.985596,-0.017334,0.526245,507
29145338,9991,0.998657,-0.002686,0.524658,502
29155352,10014,1.000122,0.015869,0.520996,496
29165333,9981,0.989136,0.027954,0.516235,492
29175348,10015,0.917114,0.031982,0.502808,498
29185341,9993,0.866333,0.031982,0.492920,500
29195329,9988,0.816406,0.032227,0.477173,501
29205329,10000,0.770020,0.034424,0.456055,497
29215335,10006,0.727539,0.036865,0.430420,508
29225336,10001,0.695312,0.040894,0.390137,507
29235353,10017,0.675293,0.037720,0.373901,507
29245333,9980,0.692627,0.028198,0.361084,511
29255327,9994,0.724609,0.017578,0.354248,508
29265326,9999,0.760742,0.007080,0.351318,504
29275344,10018,0.800171,-0.004883,0.350952,510
29285351,10007,0.861938,-0.029297,0.363281,510
29295330,9979,0.878540,-0.035645,0.374756,507
29305360,10030,0.883911,-0.037964,0.388794,506
29315353,9993,0.882812,-0.041626,0.401978,507
29325355,10002,0.876099,-0.046509,0.411499,507
29335335,9980,0.866943,-0.060059,0.411743,509
29345342,10007,0.860840,-0.062988,0.402100,509
29355339,9997,0.866455,-0.059814,0.389893,507
29365342,10003,0.873413,-0.055664,0.377930,512
29375345,10003,0.882935,-0.054565,0.371948,510
29385347,10002,0.891602,-0.057129,0.371826,515
29395333,9986,0.898071,-0.071289,0.384033,514
29405336,10003,0.892700,-0.082642,0.392700,518
29415328,9992,0.881592,-0.093262,0.401001,517
29425338,10010,0.867187,-0.097778,0.406860,512
29435347,10009,0.846802,-0.094971,0.411743,519
29445343,9996,0.826660,-0.079346,0.420410,510
29455343,10000,0.803467,-0.072998,0.424805,517
29465352,10009,0.801147,-0.068237,0.430176,509
29475340,9988,0.802490,-0.069702,0.434692,517
29485354,10014,0.809692,-0.077637,0.440796,508
29495346,9992,0.817505,-0.089111,0.450806,516
29505353,10007,0.830933,-0.110962,0.465698,516
29515336,9983,0.838257,-0.116699,0.470215,514
29525398,10062,0.849243,-0.120361,0.473755,516
29535384,9986,0.866211,-0.128540,0.479614,514
29545329,9945,0.883423,-0.140869,0.492798,515
29555344,10015,0.912598,-0.157715,0.517212,515
29565331,9987,0.920410,-0.171997,0.527954,513
29575353,10022,0.925171,-0.195923,0.537598,515
29585330,9977,0.933350,-0.236816,0.547974,516
29595343,10013,0.920166,-0.288818,0.554199,514
29606702,11359,0.921265,-0.374878,0.580811,514
29616423,9721,0.907349,-0.379761,0.585815,516
29625348,8925,0.886108,-0.360474,0.594971,516
29635338,9990,0.868042,-0.331909,0.602783,516
29645333,9995,0.857544,-0.300537,0.604858,507
29655337,10004,0.871216,-0.279663,0.602173,515
29665346,10009,0.908081,-0.269287,0.584106,513
29675354,10008,0.931030,-0.263184,0.580933,517
29685354,10000,0.939087,-0.258423,0.582886,510
29695329,9975,0.936523,-0.246826,0.590088,509
29705329,10000,0.923340,-0.230347,0.597656,508
29715773,10444,0.907471,-0.210449,0.606689,512
29725348,9575,0.852783,-0.175171,0.604980,514
29735338,9990,0.822388,-0.158081,0.596191,513
29745331,9993,0.798340,-0.140015,0.586304,509
29755335,10004,0.773193,-0.121338,0.575317,514
29765330,9995,0.751465,-0.119141,0.564209,518
29775391,10061,0.720093,-0.156982,0.552368,519
29785356,9965,0.711792,-0.166992,0.553467,517
29795340,9984,0.717896,-0.172363,0.550537,509
29806569,11229,0.733643,-0.188965,0.544312,509
29815346,8777,0.759399,-0.217651,0.547729,528
29825351,10005,0.788940,-0.248047,0.549805,514
29835344,9993,0.834717,-0.271606,0.567261,513
29845327,9983,0.851196,-0.281372,0.576294,515
29855348,10021,0.855347,-0.289429,0.585327,512
29865333,9985,0.858765,-0.298950,0.584229,518
29875328,9995,0.858887,-0.310791,0.575073,519
29885345,10017,0.850342,-0.309692,0.560913,524
29895334,9989,0.844604,-0.298218,0.556030,518
29905345,10011,0.843994,-0.278564,0.554932,519
29915355,10010,0.854614,-0.253662,0.557739,530
29925330,9975,0.860474,-0.232178,0.559082,534
29935338,10008,0.862915,-0.203003,0.558838,538
29945347,10009,0.867187,-0.182495,0.561279,540
29955346,9999,0.862915,-0.174072,0.557617,541
29965343,9997,0.857178,-0.180786,0.551025,537
29975340,9997,0.849609,-0.185303,0.544556,542
29985346,10006,0.836792,-0.187012,0.536133,538
29995348,10002,0.820679,-0.198608,0.517944,528
30006250,10902,0.808594,-0.196899,0.513428,534
30015380,9130,0.813965,-0.190308,0.508789,529
30025361,9981,0.809814,-0.178467,0.505981,526
30035342,9981,0.814575,-0.171387,0.503296,528
30045334,9992,0.814819,-0.188599,0.500977,528
30055334,10000,0.825195,-0.199707,0.506226,525
30065338,10004,0.832275,-0.207886,0.512329,517
30075327,9989,0.843140,-0.208984,0.516235,511
30085348,10021,0.850830,-0.204712,0.520264,510
30095349,10001,0.861206,-0.194702,0.524780,516
30105343,9994,0.860596,-0.183960,0.541260,515
30115332,9989,0.876831,-0.203369,0.539551,513
30125346,10014,0.877075,-0.235229,0.557495,513
30135328,9982,0.876587,-0.249268,0.543945,506
30145351,10023,0.881592,-0.253662,0.552734,514
30155354,10003,0.889282,-0.238037,0.555542,516
30165327,9973,0.888916,-0.210327,0.551636,515
30175334,10007,0.890503,-0.255859,0.551147,513
30185350,10016,0.879883,-0.267822,0.549927,515
30195335,9985,0.891235,-0.245239,0.556274,523
30209459,14124,0.886963,-0.142212,0.536133,512
30215743,6284,0.874512,-0.139282,0.524048,517
30225331,9588,0.875610,-0.168457,0.526123,513
30235348,10017,0.873535,-0.190430,0.529663,515
30245345,9997,0.873413,-0.197754,0.524414,516
30255396,10051,0.883911,-0.186523,0.517212,517
30265347,9951,0.898315,-0.167725,0.509521,514
30275327,9980,0.932617,-0.146118,0.505859,515
30285352,10025,0.945801,-0.150635,0.510864,510
30295353,10001,0.956177,-0.157227,0.515991,511
30305338,9985,0.955811,-0.160767,0.518066,505
30315349,10011,0.947021,-0.162109,0.514526,512
30325337,9988,0.916504,-0.150513,0.499756,510
30335343,10006,0.893188,-0.142822,0.491333,512
30345334,9991,0.868652,-0.135010,0.482056,509
30355326,9992,0.844482,-0.126343,0.470459,512
30365350,10024,0.822266,-0.117798,0.459717,510
30375329,9979,0.805786,-0.111084,0.450317,504
30385342,10013,0.773682,-0.107178,0.432129,511
30395328,9986,0.756592,-0.105835,0.428589,508
30405339,10011,0.745605,-0.103149,0.427124,502
30415350,10011,0.738159,-0.100220,0.427979,499
30425513,10163,0.732910,-0.093506,0.428711,504
30435339,9826,0.724121,-0.082153,0.426025,501
30445343,10004,0.721191,-0.084106,0.419434,501
30455335,9992,0.720581,-0.089844,0.409668,498
30465339,10004,0.723267,-0.100952,0.400391,498
30475339,10000,0.729858,-0.113647,0.394043,496
30485358,10019,0.743408,-0.120850,0.388062,499
30495347,9989,0.786133,-0.127441,0.393921,499
30505329,9982,0.815674,-0.127563,0.402954,502
30515352,10023,0.851807,-0.129761,0.408813,497
30525344,9992,0.889282,-0.135742,0.414673,506
30535335,9991,0.929443,-0.144165,0.419434,512
30545342,10007,0.995361,-0.157104,0.430054,515
30555343,10001,1.005737,-0.156616,0.438843,520
30565353,10010,1.012329,-0.154419,0.444702,516
30575352,9999,1.005249,-0.151123,0.449097,530
30585337,9985,0.987793,-0.142578,0.451294,532
30595338,10001,0.963379,-0.134155,0.446289,526
30605332,9994,0.910400,-0.121582,0.439087,529
30615331,9999,0.885254,-0.116455,0.432007,535
30625335,10004,0.860718,-0.112549,0.423706,536
30635333,9998,0.841919,-0.114014,0.415039,534
30645352,10019,0.827148,-0.114746,0.412231,534
30655352,10000,0.808594,-0.114380,0.408203,533
30665354,10002,0.806396,-0.112427,0.407104,530
30675350,9996,0.807007,-0.113403,0.405640,528
30685351,10001,0.814209,-0.120483,0.406494,523
30695340,9989,0.826660,-0.122070,0.409668,524
30705340,10000,0.834839,-0.117432,0.416138,517
30715334,9994,0.849609,-0.103516,0.423096,515
30725350,10016,0.873657,-0.088379,0.427124,514
30735393,10043,0.908569,-0.079468,0.427246,508
30745334,9941,0.937866,-0.069458,0.430420,512
30755349,10015,0.945801,-0.061523,0.436646,510
30765348,9999,0.945190,-0.060059,0.441284,505
30775335,9987,0.945679,-0.065430,0.441284,508
30785351,10016,0.939453,-0.068970,0.447632,512
30795329,9978,0.937134,-0.061890,0.458984,510
30805349,10020,0.933228,-0.059448,0.462036,505
30815354,10005,0.921753,-0.066284,0.454590,514
30825338,9984,0.935547,-0.083374,0.447998,515
30835345,10007,0.963257,-0.101563,0.438721,510
30845347,10002,0.991943,-0.110962,0.435547,516
30855352,10005,1.021240,-0.128784,0.443848,519
30865336,9984,1.045898,-0.127808,0.458618,521
30875343,10007,1.078369,-0.138062,0.505981,522
30885349,10006,1.073242,-0.133179,0.528442,518
30895337,9988,1.043335,-0.107788,0.551392,524
30905340,10003,0.991699,-0.089600,0.570557,526
30915347,10007,0.927979,-0.064331,0.583252,524
30925345,9998,0.852295,-0.010498,0.594971,523
30935337,9992,0.739258,-0.026245,0.604858,515
30945329,9992,0.677612,-0.053223,0.607178,522
30955349,10020,0.655762,-0.014893,0.580200,521
30965333,9984,0.675415,-0.022339,0.577881,517
30975349,10016,0.716553,0.006470,0.558716,517
30985358,10009,0.806396,0.005859,0.551147,514
30995329,9971,0.849487,-0.012695,0.551758,509
31005336,10007,0.875732,-0.031128,0.557495,509
31015333,9997,0.892944,-0.049561,0.558594,507
31025341,10008,0.903198,-0.063477,0.560669,508
31035335,9994,0.913940,-0.080933,0.560303,499
31045352,10017,0.933472,-0.092896,0.558350,499
31055338,9986,0.945801,-0.107422,0.560303,508
31065341,10003,0.955566,-0.114868,0.568970,509
31075342,10001,0.961914,-0.109863,0.575562,514
31085331,9989,0.961670,-0.098877,0.583130,515
31095334,10003,0.937012,-0.072021,0.593994,518
31105354,10020,0.917603,-0.057983,0.594482,519
31115347,9993,0.893555,-0.044800,0.590454,528
31125352,10005,0.869995,-0.029541,0.583984,533
31135337,9985,0.850464,-0.014404,0.574463,540
31145343,10006,0.817505,0.004883,0.548340,544
31155333,9990,0.803223,0.009277,0.538940,538
31165354,10021,0.796875,0.009521,0.532959,549
31175338,9984,0.794067,0.006714,0.528687,550
31185335,9997,0.794312,0.002686,0.528442,551
31195349,10014,0.793823,-0.000122,0.530762,548
31205326,9977,0.802246,-0.000977,0.537720,541
31215350,10024,0.810913,-0.000854,0.539673,546
31225327,9977,0.823730,-0.000732,0.544922,533
31235326,9999,0.835815,0.010376,0.551392,530
31245356,10030,0.855225,-0.002441,0.555908,525
31255329,9973,0.901001,-0.014282,0.563232,524
31265351,10022,0.893311,-0.025391,0.558594,516
31275355,10004,0.917480,-0.005615,0.563477,521
31285337,9982,0.922241,-0.003174,0.558350,515
31295329,9992,0.929810,-0.028320,0.560669,515
31305338,10009,0.928711,-0.010010,0.562622,513
31315332,9994,0.916382,-0.037354,0.564453,503
31325328,9996,0.897705,-0.063354,0.567871,509
31335351,10023,0.884644,-0.063965,0.560181,512
31345355,10004,0.891235,-0.038330,0.561890,510
31355335,9980,0.885986,0.010742,0.540283,509
31365337,10002,0.864624,0.017212,0.517822,510
31375336,9999,0.869995,-0.006714,0.519165,513
31385339,10003,0.868408,-0.026855,0.517822,519
31395350,10011,0.864014,-0.027466,0.510010,516
31405334,9984,0.870728,-0.013916,0.506836,517
31415340,10006,0.880371,0.006104,0.500977,513
31425328,9988,0.900269,0.020752,0.488403,512
31435343,10015,0.918701,0.012695,0.486572,514
31445349,10006,0.939087,0.000488,0.484741,514
31455370,10021,0.958618,-0.003174,0.486450,508
31465348,9978,0.973511,0.000000,0.486206,511
31475338,9990,0.980225,0.007813,0.488647,509
31485338,10000,0.977173,0.003540,0.485718,505
31495343,10005,0.972046,0.000732,0.482178,512
31505345,10002,0.960327,0.002441,0.475952,512
31515337,9992,0.936279,0.010620,0.470093,505
31525333,9996,0.895752,0.020630,0.461914,513
31535350,10017,0.793823,0.036743,0.436890,514
31545329,9979,0.742065,0.040894,0.421021,499
31555330,10001,0.691650,0.044800,0.407593,513
31565332,10002,0.656006,0.048096,0.393555,513
31575352,10020,0.640381,0.042847,0.376709,510
31585353,10001,0.658203,0.013306,0.345215,500
31595342,9989,0.683228,-0.000854,0.334717,502
31605350,10008,0.713379,-0.010620,0.330688,498
31615327,9977,0.739380,-0.015503,0.330688,494
31625347,10020,0.761597,-0.017212,0.334351,483
31635354,10007,0.782837,-0.020996,0.343262,473
31645346,9992,0.839355,-0.035522,0.373413,479
31655350,10004,0.869751,-0.049072,0.391602,474
31665327,9977,0.900024,-0.062622,0.407837,477
31675352,10025,0.927490,-0.076904,0.421875,467
31685393,10041,0.961670,-0.088623,0.430664,470
31695348,9955,1.019653,-0.099609,0.446533,484
31705347,9999,1.040771,-0.097412,0.452271,489
31715355,10008,1.035645,-0.093750,0.457886,497
31725353,9998,1.009399,-0.085937,0.463623,496
31735328,9975,0.978027,-0.083862,0.465576,514
31745335,10007,0.940796,-0.087280,0.464600,514
31755329,9994,0.858765,-0.093140,0.449707,529
31765351,10022,0.824951,-0.093140,0.440918,534
31775355,10004,0.796509,-0.089844,0.432007,542
31785346,9991,0.780029,-0.087158,0.424561,538
31795335,9989,0.774780,-0.087646,0.416870,548
31805327,9992,0.787598,-0.092041,0.411987,547
31815326,9999,0.799805,-0.095825,0.410889,547
31825337,10011,0.813477,-0.102905,0.412964,545
31835336,9999,0.827026,-0.105957,0.418579,537
31845340,10004,0.842407,-0.107544,0.425415,530
31855347,10007,0.860352,-0.103760,0.465820,526
31865353,10006,0.894531,-0.097046,0.452393,531
31875337,9984,0.908569,-0.094604,0.461182,526
31885344,10007,0.918213,-0.089844,0.469971,522
31895336,9992,0.921631,-0.081177,0.485229,518
31905345,10009,0.922852,-0.068237,0.500000,517
31915371,10026,0.907471,-0.064331,0.511230,514
31925326,9955,0.906494,-0.072144,0.514160,508
31935328,10002,0.897583,-0.081909,0.515869,512
31945354,10026,0.884399,-0.089355,0.515869,504
31955338,9984,0.873657,-0.091797,0.515991,505
31965354,10016,0.879150,-0.088013,0.521851,505
31975345,9991,0.911255,-0.078125,0.526245,511
31985353,10008,0.937012,-0.076660,0.533203,512
31995337,9984,0.970703,-0.073242,0.546631,514
32005342,10005,1.005981,-0.084229,0.564697,506
32015352,10010,1.032593,-0.110229,0.586792,516
32025346,9994,1.068359,-0.083740,0.629639,520
32035342,9996,1.059448,-0.063110,0.636597,519
32045329,9987,1.025879,-0.060181,0.645386,522
32055345,10016,0.976929,-0.051147,0.643188,526
32065356,10011,0.911499,-0.047852,0.635010,525
32075340,9984,0.866211,-0.104492,0.607056,521
32085330,9990,0.730347,-0.021973,0.591553,518
32095347,10017,0.707031,-0.000366,0.575195,521
32105326,9979,0.676758,0.016602,0.553955,519
32115345,10019,0.684692,0.018677,0.540527,511
32125345,10000,0.717896,0.011963,0.533569,513
32135335,9990,0.804810,-0.014526,0.540527,512
32145336,10001,0.846802,-0.015137,0.546753,509
32155390,10054,0.884277,-0.009033,0.555054,509
32165326,9936,0.907837,-0.008301,0.563965,496
32175327,10001,0.925293,-0.014648,0.572510,495
32185348,10021,0.938110,-0.020386,0.587402,502
32195328,9980,0.945557,-0.040894,0.593262,500
32205326,9998,0.948364,-0.048340,0.597656,502
32215337,10011,0.939209,-0.048340,0.599854,502
32225326,9989,0.937500,-0.044922,0.601196,504
32235344,10018,0.933472,-0.036377,0.599243,509
32245338,9994,0.905151,-0.014282,0.597168,510
32255341,10003,0.881470,-0.006836,0.591064,504
32265342,10001,0.855469,-0.006592,0.580078,512
32275329,9987,0.831055,-0.004761,0.567871,511
32285354,10025,0.811890,-0.005005,0.553589,510
32295350,9996,0.797852,-0.010010,0.519653,519
32305351,10001,0.783447,-0.034180,0.504395,513
32315342,9991,0.781616,-0.046509,0.492920,521
32325332,9990,0.784302,-0.056885,0.484497,526
32335350,10018,0.788818,-0.063721,0.480469,525
32345330,9980,0.799072,-0.067017,0.478882,531
32355342,10012,0.822998,-0.068481,0.484375,524
32365335,9993,0.835571,-0.063477,0.490601,536
32375329,9994,0.849243,-0.060669,0.497803,535
32385326,9997,0.861694,-0.054932,0.503174,535
32395347,10021,0.869751,-0.047607,0.507812,538
32405329,9982,0.878174,-0.040649,0.517822,528
32415331,10002,0.886108,-0.029907,0.522339,536
32425385,10054,0.886475,-0.018799,0.520508,534
32435351,9966,0.903442,-0.018799,0.520020,530
32445355,10004,0.898437,0.004395,0.520996,531
32455332,9977,0.881836,0.004761,0.512451,529
32465346,10014,0.890625,-0.014526,0.516479,527
32475355,10009,0.881592,-0.014526,0.516846,521
32485342,9987,0.870117,-0.037842,0.515747,516
32495345,10003,0.859863,-0.059326,0.503418,513
32505334,9989,0.856689,-0.078491,0.499390,514
32515349,10015,0.854980,-0.048706,0.501099,512
32525339,9990,0.860718,0.006958,0.490112,511
32535330,9991,0.858398,0.003540,0.477051,507
32545343,10013,0.874023,-0.020996,0.474976,505
32555329,9986,0.900269,-0.039795,0.486572,505
32565343,10014,0.915405,-0.045776,0.499268,501
32575333,9990,0.930298,-0.025635,0.505737,502
32585341,10008,0.935425,-0.012329,0.505127,501
32595341,10000,0.930054,-0.008179,0.502563,501
32605346,10005,0.915649,-0.014893,0.496338,501
32615342,9996,0.895508,-0.027222,0.488159,497
32625345,10003,0.875732,-0.036377,0.462036,505
32635335,9990,0.838135,-0.040894,0.450562,499
32645355,10020,0.821289,-0.041382,0.436768,509
32655329,9974,0.811768,-0.041748,0.424683,511
32665343,10014,0.807495,-0.042358,0.414429,509
32675346,10003,0.812256,-0.044189,0.404053,504
32685327,9981,0.851807,-0.057617,0.387817,507
32695331,10004,0.877319,-0.064697,0.382813,508
32705336,10005,0.903687,-0.068237,0.381470,506
32715356,10020,0.924072,-0.070679,0.377197,501
32725337,9981,0.938110,-0.072998,0.375854,500
32735350,10013,0.947876,-0.072021,0.379883,501
32745336,9986,0.950928,-0.072998,0.379028,499
32755342,10006,0.943970,-0.079102,0.378540,499
32765354,10012,0.941772,-0.086914,0.378906,496
32775348,9994,0.938232,-0.092529,0.372803,497
32785346,9998,0.935913,-0.097412,0.371948,497
32795329,9983,0.939575,-0.103882,0.363770,498
32805351,10022,0.943848,-0.104614,0.359985,502
32815337,9986,0.945679,-0.101807,0.357910,503
32825353,10016,0.943604,-0.095093,0.359375,504
32835332,9979,0.938599,-0.086426,0.363770,506
32845341,10009,0.924072,-0.077271,0.365112,509
32855330,9989,0.884521,-0.062988,0.376465,510
32865355,10025,0.865234,-0.055176,0.379395,512
32875348,9993,0.847412,-0.048340,0.383545,511
32885330,9982,0.831543,-0.042969,0.384155,511
32895333,10003,0.821045,-0.039063,0.380005,513
32905332,9999,0.810791,-0.039185,0.372803,517
32915349,10017,0.810791,-0.041748,0.369019,519
32925356,10007,0.811646,-0.044067,0.370850,521
32935342,9986,0.815674,-0.044556,0.377319,523
32945332,9990,0.824219,-0.043945,0.382568,519
32955331,9999,0.836670,-0.045776,0.388916,527
32965352,10021,0.867432,-0.052124,0.402954,528
32975346,9994,0.884521,-0.055054,0.409546,526
32985350,10004,0.900269,-0.055908,0.418091,528
32995335,9985,0.913574,-0.057251,0.428223,526
33005326,9991,0.928467,-0.057251,0.435547,526
33015335,10009,0.951782,-0.058594,0.454102,526
33025333,9998,0.962036,-0.060425,0.463867,519
33035353,10020,0.966187,-0.059692,0.473267,521
33045342,9989,0.967041,-0.060059,0.485229,523
33055330,9988,0.964966,-0.059937,0.498291,522
33065331,10001,0.960083,-0.060669,0.500000,523
33075340,10009,0.950684,-0.070801,0.500610,515
33085340,10000,0.952637,-0.080688,0.496338,522
33095340,10000,0.946655,-0.088013,0.489258,521
33105338,9998,0.952759,-0.093872,0.486206,519
33115353,10015,0.971436,-0.101318,0.482544,518
33125329,9976,1.005371,-0.136353,0.489624,511
33135350,10021,1.004639,-0.150879,0.482544,519
33145356,10006,1.015259,-0.143555,0.492798,517
33155338,9982,1.017578,-0.116943,0.498291,523
33165341,10003,1.034546,-0.136230,0.516479,516
33175341,10000,0.998291,-0.134766,0.523071,532
33185336,9995,0.956299,-0.095581,0.539551,522
33195340,10004,0.930908,-0.058594,0.535034,515
33205345,10005,0.893677,-0.054321,0.523193,522
33215350,10005,0.856079,-0.049561,0.509888,522
33225342,9992,0.831543,-0.047852,0.506348,521
33235350,10008,0.788208,-0.038940,0.498413,519
33245334,9984,0.775391,-0.035645,0.497803,518
33255355,10021,0.778076,-0.028198,0.498169,516
33265326,9971,0.789429,-0.022583,0.502563,512
33275327,10001,0.800537,-0.017822,0.509155,509
33285339,10012,0.814087,-0.013550,0.516113,506
33295348,10009,0.827637,-0.009277,0.530518,500
33305348,10000,0.826172,-0.007935,0.528442,501
33315344,9996,0.823975,-0.006470,0.523437,500
33325327,9983,0.824829,-0.000610,0.518921,498
33335328,10001,0.829712,0.000000,0.516113,496
33345341,10013,0.857666,-0.008057,0.514648,494
33355337,9996,0.879639,-0.014771,0.517578,490
33365351,10014,0.901489,-0.013062,0.523071,494
33375335,9984,0.921387,-0.007080,0.531006,496
33385341,10006,0.941528,-0.000977,0.538818,488
33395347,10006,0.958130,0.007080,0.543701,499
33405330,9983,0.962280,0.027710,0.548340,505
33415352,10022,0.953369,0.041870,0.546021,496
33425335,9983,0.943726,0.054687,0.541626,505
33435336,10001,0.921021,0.077393,0.533203,500
33445338,10002,0.899658,0.100464,0.524902,505
33455348,10010,0.854736,0.112183,0.520996,506
33465332,9984,0.830444,0.080566,0.521484,512
33475336,10004,0.815186,0.071899,0.522583,499
33485329,9993,0.808105,0.111328,0.522827,515
33495344,10015,0.812256,0.087158,0.520020,507
33505340,9996,0.813599,0.056030,0.515991,517
33515337,9997,0.808228,0.092407,0.499756,519
33525343,10006,0.809326,0.060913,0.507568,525
33535356,10013,0.844116,0.066528,0.512207,521
33545326,9970,0.854248,0.050659,0.506348,529
33555333,10007,0.875000,0.040405,0.511108,531
33565347,10014,0.891113,0.048462,0.506348,532
33575338,9991,0.901855,0.052490,0.506226,529
33585351,10013,0.895264,0.028320,0.520386,535
33595343,9992,0.938110,-0.113892,0.526367,539
33605350,10007,0.877197,-0.133545,0.502686,548
33615351,10001,0.887085,-0.053345,0.483276,545
33625337,9986,0.941772,0.130493,0.472778,548
33635347,10010,0.893677,0.094116,0.454468,546
33645353,10006,0.872803,0.015869,0.445068,551
33655329,9976,0.897461,-0.038818,0.452393,544
33665327,9998,0.924683,-0.053833,0.456665,540
33675343,10016,0.939575,-0.003906,0.444702,532
33685341,9998,0.953735,0.026855,0.447388,529
33695343,10002,0.963867,0.045410,0.447266,525
33705346,10003,0.963989,0.043457,0.445679,515
33715337,9991,0.963135,0.027466,0.448730,517
33725338,10001,0.957275,0.006714,0.451416,515
33735342,10004,0.935181,0.006470,0.453125,502
33745347,10005,0.922607,0.014038,0.446045,511
33755340,9993,0.906738,0.009155,0.435181,506
33765353,10013,0.890137,-0.001831,0.422485,498
33775337,9984,0.879639,-0.011719,0.411011,506
33785349,10012,0.851685,-0.009399,0.388794,495
33795338,9989,0.832397,-0.006836,0.378906,503
33805350,10012,0.815186,-0.009521,0.368164,504
33815337,9987,0.803711,-0.018799,0.356689,495
33825342,10005,0.798706,-0.032349,0.348145,496
33835339,9997,0.802612,-0.041260,0.339600,498
33845331,9992,0.826172,-0.048462,0.332153,495
33855344,10013,0.839355,-0.050781,0.330811,500
33865375,10031,0.851196,-0.053833,0.328979,492
33875335,9960,0.860840,-0.053711,0.330322,493
33885348,10013,0.874023,-0.059448,0.331909,487
33895335,9987,0.893799,-0.064819,0.338989,483
33905338,10003,0.908569,-0.069214,0.344604,492
33915347,10009,0.922729,-0.073853,0.352051,491
33925344,9997,0.937622,-0.077393,0.357910,493
33935351,10007,0.949341,-0.080566,0.364746,486
33945349,9998,0.962036,-0.078125,0.376831,490
33955351,10002,0.974854,-0.063110,0.381592,496
33965331,9980,0.971436,-0.058228,0.386108,497
33975331,10000,0.966064,-0.055054,0.389893,501
33985340,10009,0.954834,-0.055420,0.391846,503
33995330,9990,0.938721,-0.057007,0.392212,497
34005326,9996,0.905518,-0.062866,0.395630,510
34015333,10007,0.892090,-0.062744,0.397217,506
34025352,10019,0.881836,-0.063599,0.398804,503
34035339,9987,0.875977,-0.065674,0.400513,511
34045326,9987,0.873169,-0.065796,0.399292,509
34055347,10021,0.875488,-0.072632,0.401367,509
34065332,9985,0.879395,-0.075439,0.402832,514
34075353,10021,0.883667,-0.076294,0.405884,511
34085337,9984,0.891479,-0.075928,0.409180,514
34095329,9992,0.900635,-0.075317,0.414429,515
34105327,9998,0.911133,-0.072998,0.419434,505
34115331,10004,0.929932,-0.070679,0.428345,513
34125337,10006,0.938721,-0.068726,0.436646,515
34135354,10017,0.943359,-0.065918,0.446167,518
34145329,9975,0.945068,-0.062866,0.457642,521
34155345,10016,0.948730,-0.061157,0.465942,524
34165342,9997,0.944702,-0.060425,0.476074,530
34175346,10004,0.941162,-0.067383,0.477661,532
34185355,10009,0.940063,-0.071289,0.476440,533
34195347,9992,0.927368,-0.073364,0.474487,533
34205344,9997,0.919922,-0.079590,0.470215,540
34215344,10000,0.911377,-0.089600,0.461060,542
34225336,9992,0.915161,-0.100342,0.446167,545
34235329,9993,0.930054,-0.106201,0.441162,540
34245371,10042,0.951660,-0.110596,0.441040,546
34255364,9993,0.967407,-0.102417,0.448853,536
34265355,9991,0.990723,-0.109009,0.470825,535
34275328,9973,0.987671,-0.102051,0.499634,542
34285339,10011,0.994263,-0.065186,0.511841,537
34295336,9997,0.981201,-0.088989,0.517944,538
34305355,10019,0.976196,-0.103760,0.525269,530
34315349,9994,0.949585,-0.118042,0.529175,526
34325350,10001,0.915161,-0.098145,0.517700,526
34335344,9994,0.859863,-0.068481,0.507446,529
34345342,9998,0.835937,-0.055786,0.502930,521
34355353,10011,0.820068,-0.045410,0.499634,526
34365342,9989,0.805176,-0.038940,0.496704,523
34375334,9992,0.793335,-0.039795,0.493408,512
34385332,9998,0.797485,-0.024902,0.502319,516
34395335,10003,0.805664,-0.003784,0.511841,514
34405344,10009,0.816406,0.016602,0.520996,508
34415345,10001,0.830200,0.026611,0.526245,507
34425342,9997,0.845337,0.022339,0.527832,499
34435328,9986,0.859375,0.015137,0.523804,505
34445344,10016,0.901733,-0.006958,0.522705,502
34455331,9987,0.920654,-0.010010,0.526367,495
34465330,9999,0.939209,-0.005859,0.528687,503
34475329,9999,0.952271,0.002441,0.530884,501
34485377,10048,0.970581,0.005371,0.534546,506
34495370,9993,0.979126,0.024536,0.538086,504
34505350,9980,0.973145,0.036499,0.540161,507
34515344,9994,0.961182,0.026367,0.539185,508
34525344,10000,0.931519,0.042114,0.532471,510
34535337,9993,0.904419,0.057739,0.522461,503
34545351,10014,0.889893,0.051025,0.513184,514
34555355,10004,0.842529,0.045288,0.493408,510
34565338,9983,0.828125,0.056519,0.484131,511
34575349,10011,0.816162,0.063477,0.477905,509
34585338,9989,0.812012,0.059814,0.474121,505
34595348,10010,0.808350,0.059937,0.472412,512
34605351,10003,0.817017,0.064331,0.472412,518
34615328,9977,0.819580,0.061768,0.471436,513
34625351,10023,0.833862,0.063354,0.481567,507
34635347,9996,0.826782,0.084229,0.473633,508
34645348,10001,0.852417,0.099365,0.479370,507
34655335,9987,0.857056,0.068604,0.481445,509
34665352,10017,0.873901,0.042847,0.482178,506
34675334,9982,0.881714,0.044434,0.478760,506
34685347,10013,0.880371,0.061401,0.481079,498
34695337,9990,0.889282,0.065186,0.475342,503
34705335,9998,0.888062,0.069580,0.480469,495
34715349,10014,0.883301,0.030029,0.494995,501
34725369,10020,0.932251,-0.070068,0.497192,502
34735348,9979,0.886475,-0.103271,0.491455,503
34745345,9997,0.862061,-0.065674,0.472656,525
34755340,9995,0.892700,0.016357,0.463135,530
34765341,10001,0.909424,0.095215,0.459106,530
34775353,10012,0.861816,0.092773,0.438965,529
34785354,10001,0.876953,0.021118,0.454956,533
34795338,9984,0.854492,-0.033813,0.450317,538
34805353,10015,0.856567,-0.030396,0.443481,538
34815329,9976,0.881592,0.007202,0.447876,539
34825335,10006,0.914062,0.056885,0.435913,532
34835347,10012,0.927490,0.036621,0.431641,538
34845349,10002,0.942261,0.010498,0.435181,533
34855332,9983,0.960693,-0.003174,0.438232,538
34865356,10024,0.971313,-0.010010,0.441650,536
34875352,9996,0.978149,-0.008545,0.440674,538
34885347,9995,0.981323,0.003906,0.441772,527
34895354,10007,0.967285,0.008179,0.436035,525
34905353,9999,0.945435,0.003784,0.427368,528
34915334,9981,0.919678,-0.001587,0.418213,529
34925328,9994,0.889404,-0.006348,0.406250,525
34935327,9999,0.833374,-0.005249,0.377808,526
34945340,10013,0.810547,-0.008179,0.361816,523
34955334,9994,0.794189,-0.013428,0.346436,516
34965399,10065,0.788330,-0.020386,0.333374,516
34975328,9929,0.793701,-0.027100,0.322876,512
34985344,10016,0.807373,-0.031250,0.319580,510
34995352,10008,0.848877,-0.043091,0.317749,505
35005327,9975,0.869629,-0.047485,0.319580,500
35015346,10019,0.887329,-0.052368,0.319946,493
35025326,9980,0.900635,-0.053833,0.320679,486
35035341,10015,0.911011,-0.055664,0.323853,487
35045354,10013,0.923706,-0.064575,0.336304,486
35055342,9988,0.927490,-0.067383,0.343140,478
35065333,9991,0.930664,-0.068604,0.350952,474
35075333,10000,0.941406,-0.068237,0.357910,485
35085352,10019,0.958130,-0.071045,0.360596,486
35095346,9994,0.972656,-0.076050,0.366089,489
35105353,10007,0.997070,-0.070068,0.376709,491
35115353,10000,1.000488,-0.060303,0.383057,495
35125329,9976,0.994385,-0.046997,0.391357,499
35135355,10026,0.979248,-0.036743,0.397583,502
35145337,9982,0.961670,-0.032959,0.398804,505
35155345,10008,0.920776,-0.037231,0.400635,509
35165334,9989,0.901367,-0.039917,0.401489,512
35175334,10000,0.885620,-0.041382,0.403320,506
35185328,9994,0.872803,-0.040771,0.403198,518
35195334,10006,0.863281,-0.042603,0.402344,517
35205379,10045,0.855225,-0.045532,0.395508,518
35215347,9968,0.843018,-0.054199,0.390625,517
35225335,9988,0.840820,-0.060425,0.384888,519
35235348,10013,0.843506,-0.066650,0.383667,516
35245329,9981,0.848999,-0.071167,0.383301,516
35255348,10019,0.859253,-0.068115,0.388184,509
35265330,9982,0.887085,-0.047119,0.411987,508
35275335,10005,0.900269,-0.036621,0.430176,514
35285354,10019,0.913818,-0.029663,0.445679,512
35295349,9995,0.923706,-0.024902,0.459106,509
35305341,9992,0.929565,-0.021729,0.468994,508
35315336,9995,0.930420,-0.021729,0.476318,507
35325345,10009,0.921631,-0.033569,0.480835,510
35335334,9989,0.913330,-0.047485,0.480835,510
35345351,10017,0.902710,-0.060913,0.479492,508
35355326,9975,0.902954,-0.066284,0.478882,504
35365342,10016,0.903809,-0.076294,0.471924,506
35375329,9987,0.918823,-0.106201,0.452515,508
35385343,10014,0.944580,-0.104858,0.452637,512
35395354,10011,0.969482,-0.119873,0.459839,522
35405343,9989,0.992432,-0.132080,0.471191,527
35415349,10006,1.004639,-0.133911,0.479736,526
35425330,9981,1.016846,-0.114380,0.522705,531
35435350,10020,1.023315,-0.095215,0.511230,543
35445335,9985,1.009644,-0.084839,0.530273,547
35455348,10013,0.960083,-0.099731,0.535645,550
35465384,10036,0.935059,-0.134033,0.555664,553
35475348,9964,0.875000,-0.088135,0.542480,552
35485367,10019,0.793457,-0.040161,0.527710,553
35495337,9970,0.745728,-0.025391,0.514526,552
35505346,10009,0.729370,-0.012939,0.517212,545
35515350,10004,0.708252,-0.002563,0.515869,544
35525326,9976,0.712891,0.004883,0.513062,537
35535347,10021,0.741577,0.013794,0.517212,538
35545349,10002,0.793945,0.030762,0.534180,528
35555334,9985,0.816650,0.021729,0.539551,523
35565333,9999,0.841064,0.008423,0.544434,518
35575339,10006,0.860107,-0.002197,0.547729,512
35585339,10000,0.876953,-0.010376,0.549561,507
35595346,10007,0.914551,-0.036865,0.559692,498
35605341,9995,0.932251,-0.043945,0.565308,495
35615344,10003,0.949707,-0.045776,0.568115,498
35625336,9992,0.965210,-0.044067,0.571167,498
35635350,10014,0.975342,-0.040649,0.575317,501
35645333,9983,0.977783,-0.035034,0.578369,499
35655332,9999,0.958374,-0.022095,0.575684,496
35665328,9996,0.936279,-0.014282,0.572632,506
35675339,10011,0.912354,-0.005859,0.563477,508
35685335,9996,0.886719,0.000610,0.551147,512
35695346,10011,0.865234,0.008545,0.538330,514
35705335,9989,0.826050,0.057739,0.519775,516
35715339,10004,0.804687,0.071533,0.503296,520
35725373,10034,0.811646,0.069824,0.500610,519
35735371,9998,0.784302,0.083862,0.492798,510
35745344,9973,0.794189,0.052612,0.492676,516
35755350,10006,0.796143,0.035889,0.488647,518
35765354,10004,0.810181,0.042114,0.485229,513
35775343,9989,0.823242,0.039429,0.485352,512
35785348,10005,0.839844,0.020630,0.485107,508
35795341,9993,0.842529,0.026489,0.487183,501
35805353,10012,0.846436,0.031128,0.490112,505
35815339,9986,0.860596,-0.009155,0.491211,495
35827672,12333,0.893921,-0.030518,0.497925,503
35835347,7675,0.906494,-0.028320,0.507690,493
35845355,10008,0.899658,0.003296,0.501099,501
35855337,9982,0.902344,0.055054,0.486694,501
35865342,10005,0.907471,0.085937,0.488647,501
35875330,9988,0.882202,0.030884,0.493286,502
35885346,10016,0.879517,0.004028,0.498047,502
35895345,9999,0.877563,0.002075,0.499146,503
35905336,9991,0.876953,0.015991,0.493530,505
35915352,10016,0.879150,0.029175,0.491089,497
35925333,9981,0.872681,0.026245,0.478760,505
35935341,10008,0.883423,0.006958,0.473755,508
35945329,9988,0.901123,-0.011353,0.476685,505
35955364,10035,0.913818,-0.019531,0.481567,503
35965330,9966,0.922852,-0.016602,0.481201,510
35975338,10008,0.931030,-0.006714,0.475708,511
35985345,10007,0.933472,-0.012695,0.470459,514
35995338,9993,0.930786,-0.019165,0.461060,510
36005332,9994,0.926392,-0.024170,0.450684,518
36015354,10022,0.921631,-0.023682,0.442627,525
36025347,9993,0.911011,-0.020874,0.436279,530
36035353,10006,0.863037,-0.012451,0.422485,525
36045351,9998,0.825562,-0.012817,0.412842,535
36055333,9982,0.783936,-0.015503,0.397217,541
36065344,10011,0.744751,-0.018311,0.380127,539
36075338,9994,0.712036,-0.022949,0.360352,541
36085356,10018,0.694458,-0.036133,0.325195,540
36095328,9972,0.706909,-0.045288,0.312012,537
36105347,10019,0.738647,-0.054687,0.302734,533
36115330,9983,0.776001,-0.059692,0.300659,524
36125326,9996,0.809814,-0.060669,0.302124,515
36135334,10008,0.838379,-0.059570,0.305908,506
36145339,10005,0.889404,-0.058838,0.319458,502
36155334,9995,0.916260,-0.068970,0.328979,498
