t_us,dt_us,ax,ay,az,ppg
14695365,10022,-0.178345,-0.315552,0.921265,515
14705355,9990,-0.180176,-0.318115,0.925293,507
14715345,9990,-0.177368,-0.326660,0.927002,514
14725344,9999,-0.175049,-0.328979,0.926025,515
14735366,10022,-0.174438,-0.325073,0.921631,514
14745356,9990,-0.175171,-0.320190,0.919922,513
14755366,10010,-0.176758,-0.318726,0.920654,516
14765366,10000,-0.180298,-0.320679,0.923706,514
14775372,10006,-0.179077,-0.323364,0.924316,510
14785388,10016,-0.178711,-0.324951,0.923706,515
14795347,9959,-0.176880,-0.323975,0.921509,513
14805362,10015,-0.176514,-0.322266,0.921509,507
14815344,9982,-0.176025,-0.321289,0.920288,515
14825356,10012,-0.176147,-0.319702,0.921387,513
14835356,10000,-0.176636,-0.319824,0.923828,514
14845354,9998,-0.177490,-0.324463,0.925659,516
14855349,9995,-0.175659,-0.326660,0.925171,515
14865356,10007,-0.177490,-0.326294,0.926147,514
14875344,9988,-0.174438,-0.323364,0.927490,513
14885372,10028,-0.175903,-0.324463,0.927002,513
14895354,9982,-0.176880,-0.321167,0.924316,510
14905370,10016,-0.177124,-0.318604,0.921875,513
14915343,9973,-0.177246,-0.316650,0.921387,511
14925367,10024,-0.175903,-0.319824,0.919922,516
14935367,10000,-0.176514,-0.322144,0.920410,509
14945366,9999,-0.177246,-0.324951,0.923096,514
14955347,9981,-0.178223,-0.328491,0.924683,514
14965349,10002,-0.179687,-0.330200,0.925415,512
14975367,10018,-0.180664,-0.328125,0.924805,512
14985393,10026,-0.177368,-0.318848,0.920288,514
14995364,9971,-0.175049,-0.318115,0.918945,507
15005367,10003,-0.172852,-0.318115,0.919678,509
15015355,9988,-0.173950,-0.318726,0.920410,514
15025354,9999,-0.174316,-0.319214,0.921875,510
15035357,10003,-0.177490,-0.323853,0.927124,515
15045359,10002,-0.178467,-0.325806,0.927856,508
15055370,10011,-0.179932,-0.327271,0.928589,512
15065369,9999,-0.179321,-0.328247,0.927734,515
15075352,9983,-0.178345,-0.328979,0.925293,514
15085370,10018,-0.177246,-0.325439,0.922363,513
15095361,9991,-0.176758,-0.316528,0.918213,511
15105345,9984,-0.176147,-0.314941,0.917725,510
15115351,10006,-0.175659,-0.318726,0.918701,513
15125353,10002,-0.177246,-0.322021,0.920776,516
15135370,10017,-0.177734,-0.323853,0.923218,517
15145363,9993,-0.177124,-0.324951,0.927734,515
15155345,9982,-0.177246,-0.324341,0.925537,516
15165369,10024,-0.177612,-0.323730,0.923706,509
15175369,10000,-0.176147,-0.322388,0.922241,512
15185350,9981,-0.178223,-0.320557,0.919434,519
15195351,10001,-0.176270,-0.319946,0.921631,518
15205366,10015,-0.178467,-0.322998,0.921509,517
15215372,10006,-0.176270,-0.324707,0.921387,513
15225361,9989,-0.177368,-0.321899,0.921265,518
15235362,10001,-0.177856,-0.317627,0.924072,516
15245361,9999,-0.178955,-0.318726,0.926392,515
15255345,9984,-0.176025,-0.329590,0.923950,508
15265364,10019,-0.177124,-0.325439,0.922485,517
15275343,9979,-0.174927,-0.322632,0.921997,516
15285353,10010,-0.176880,-0.320557,0.923218,517
15295360,10007,-0.176636,-0.320801,0.924194,511
15305363,10003,-0.177734,-0.319092,0.920776,514
15315360,9997,-0.176147,-0.319824,0.921509,508
15325352,9992,-0.175049,-0.321533,0.922729,514
15335354,10002,-0.175903,-0.324219,0.925415,516
15345371,10017,-0.178467,-0.327148,0.925049,515
15355361,9990,-0.179565,-0.326416,0.926392,514
15365360,9999,-0.177490,-0.323608,0.926636,516
15375371,10011,-0.175537,-0.325195,0.923584,506
15387531,12160,-0.177002,-0.322266,0.920044,514
15395367,7836,-0.177002,-0.316040,0.917969,513
15405362,9995,-0.177124,-0.313354,0.919189,505
15415347,9985,-0.174194,-0.324463,0.923462,516
15425366,10019,-0.177368,-0.325806,0.922241,516
15435365,9999,-0.177490,-0.323975,0.924316,513
15445367,10002,-0.178955,-0.322510,0.927246,510
15455355,9988,-0.179565,-0.324707,0.926636,515
15465352,9997,-0.178101,-0.325928,0.926636,516
15475371,10019,-0.175293,-0.323242,0.921387,516
15485367,9996,-0.174805,-0.320679,0.919189,516
15495383,10016,-0.174927,-0.318115,0.920044,509
15505355,9972,-0.176025,-0.317627,0.922241,514
15515372,10017,-0.177124,-0.317749,0.922485,506
15525346,9974,-0.179321,-0.324951,0.926636,516
15535357,10011,-0.177002,-0.328491,0.923584,514
15545360,10003,-0.175659,-0.328003,0.922485,514
15555353,9993,-0.178467,-0.323242,0.922485,514
15565346,9993,-0.177490,-0.319214,0.923462,503
15575370,10024,-0.177368,-0.323364,0.922363,512
15585366,9996,-0.176147,-0.323364,0.921997,513
15595367,10001,-0.176025,-0.322021,0.922607,510
15605355,9988,-0.176636,-0.320068,0.922363,513
15615360,10005,-0.177246,-0.319458,0.923950,505
15625348,9988,-0.178955,-0.319214,0.926270,514
15635352,10004,-0.180176,-0.324585,0.927002,506
15645383,10031,-0.177856,-0.328979,0.924805,513
15655400,10017,-0.177612,-0.328003,0.921875,510
15665370,9970,-0.176392,-0.323120,0.919067,515
15675361,9991,-0.177246,-0.320313,0.915649,510
15685368,10007,-0.177490,-0.317139,0.921143,515
15695373,10005,-0.177612,-0.319458,0.923218,509
15705358,9985,-0.177246,-0.321533,0.926147,512
15715348,9990,-0.177490,-0.322754,0.927124,505
15725354,10006,-0.177856,-0.324585,0.928467,515
15735361,10007,-0.178711,-0.325562,0.927368,506
15745348,9987,-0.179565,-0.323730,0.924072,514
15755372,10024,-0.177002,-0.322510,0.923096,509
15765358,9986,-0.175537,-0.323975,0.919189,514
15775349,9991,-0.173950,-0.324829,0.916016,513
15785353,10004,-0.178955,-0.317261,0.917725,506
15795365,10012,-0.183716,-0.315796,0.930298,514
15805344,9979,-0.179687,-0.327026,0.930908,514
15815376,10032,-0.177856,-0.332764,0.926392,512
15825386,10010,-0.173462,-0.328613,0.922485,514
15835352,9966,-0.171509,-0.320801,0.917969,513
15845369,10017,-0.174805,-0.316284,0.921021,515
15855368,9999,-0.182983,-0.321167,0.924316,514
15865356,9988,-0.182617,-0.327148,0.924561,515
15875355,9999,-0.180298,-0.328003,0.924561,514
15885361,10006,-0.177246,-0.325073,0.922852,515
15895360,9999,-0.176270,-0.319214,0.921997,512
15905366,10006,-0.178101,-0.318726,0.922119,521
15915356,9990,-0.177490,-0.322144,0.924438,524
15925362,10006,-0.176025,-0.325684,0.925293,516
15935358,9996,-0.176147,-0.329224,0.924683,517
15945370,10012,-0.176636,-0.327515,0.923584,514
15955358,9988,-0.179687,-0.317505,0.922974,519
15965362,10004,-0.180054,-0.317017,0.923218,514
15975356,9994,-0.179810,-0.320435,0.921387,512
15985344,9988,-0.177612,-0.322144,0.920288,519
15995369,10025,-0.176880,-0.323242,0.918945,518
16005360,9991,-0.176636,-0.322021,0.920410,517
16015354,9994,-0.179443,-0.319824,0.924561,515
16025360,10006,-0.177734,-0.322510,0.925537,517
16035356,9996,-0.177490,-0.325195,0.927612,510
16045368,10012,-0.176514,-0.325073,0.927368,517
16055357,9989,-0.176514,-0.324951,0.925415,516
16065371,10014,-0.176880,-0.320557,0.923218,515
16075344,9973,-0.178101,-0.320313,0.923828,515
16085354,10010,-0.178345,-0.322144,0.922485,515
16095357,10003,-0.176025,-0.323486,0.921021,516
16105362,10005,-0.177246,-0.322266,0.919312,516
16115354,9992,-0.175049,-0.319458,0.922363,513
16125345,9991,-0.179077,-0.319946,0.923828,516
16135343,9998,-0.179077,-0.323242,0.925171,513
16145374,10031,-0.178223,-0.327148,0.926758,513
16155373,9999,-0.178467,-0.328247,0.926270,515
16165369,9996,-0.177124,-0.327515,0.926025,515
16175355,9986,-0.176147,-0.321411,0.921509,514
16185368,10013,-0.176758,-0.315186,0.922852,506
16195361,9993,-0.178223,-0.315430,0.922363,513
16205352,9991,-0.179321,-0.318481,0.924316,513
16215352,10000,-0.178833,-0.323364,0.923828,516
16225360,10008,-0.176636,-0.324707,0.921387,515
16235350,9990,-0.176270,-0.323730,0.921021,513
16245363,10013,-0.176514,-0.323730,0.922363,515
16255359,9996,-0.177246,-0.321167,0.925293,511
16265343,9984,-0.179199,-0.320435,0.925537,507
16275350,10007,-0.177856,-0.323608,0.926025,514
16285371,10021,-0.175659,-0.322876,0.923462,512
16295371,10000,-0.176025,-0.319702,0.924194,511
16308912,13541,-0.176636,-0.317261,0.923950,512
16315376,6464,-0.177490,-0.318970,0.922974,516
16325397,10021,-0.177612,-0.320679,0.923950,514
16335352,9955,-0.177734,-0.324951,0.922485,516
16345350,9998,-0.178467,-0.325073,0.922852,514
16355357,10007,-0.176636,-0.323486,0.923340,514
16365358,10001,-0.178833,-0.322510,0.925537,513
16375351,9993,-0.179199,-0.322876,0.925415,511
16385353,10002,-0.177856,-0.325439,0.925293,509
16395350,9997,-0.176758,-0.322144,0.921997,514
16405361,10011,-0.176880,-0.318970,0.921387,505
16415367,10006,-0.176514,-0.318237,0.922607,513
16425366,9999,-0.177002,-0.319580,0.920654,510
16435363,9997,-0.177246,-0.319214,0.921387,515
16445354,9991,-0.176270,-0.324219,0.923584,513
16455354,10000,-0.176636,-0.325317,0.924927,513
16465355,10001,-0.179199,-0.322998,0.926758,513
16475351,9996,-0.180298,-0.320679,0.924683,506
16485360,10009,-0.179321,-0.321411,0.925415,506
16495359,9999,-0.178955,-0.321045,0.924927,512
16505359,10000,-0.177490,-0.321411,0.922607,513
16515348,9989,-0.177612,-0.320801,0.920654,512
16525370,10022,-0.177002,-0.322510,0.921631,509
16535362,9992,-0.176514,-0.322998,0.921875,514
16545370,10008,-0.176758,-0.322876,0.922607,509
16555365,9995,-0.177124,-0.319092,0.922852,515
16565359,9994,-0.176147,-0.317627,0.923218,513
16575362,10003,-0.177612,-0.320435,0.924561,513
16585373,10011,-0.177734,-0.323853,0.923706,513
16595343,9970,-0.178711,-0.325684,0.923096,513
16605358,10015,-0.178223,-0.324097,0.922729,512
16615359,10001,-0.178589,-0.322388,0.923584,524
16625366,10007,-0.178711,-0.321777,0.924683,506
16635347,9981,-0.177490,-0.321411,0.922974,515
16645389,10042,-0.177124,-0.320557,0.921387,513
16655372,9983,-0.175293,-0.318359,0.921265,515
16665364,9992,-0.174561,-0.319092,0.921509,511
16675346,9982,-0.175903,-0.319336,0.923340,515
16685354,10008,-0.178345,-0.322510,0.926758,514
16695366,10012,-0.179199,-0.326904,0.929810,514
16705355,9989,-0.178711,-0.329224,0.928467,513
16715358,10003,-0.177734,-0.323975,0.923584,507
16725352,9994,-0.176636,-0.319458,0.921143,515
16735367,10015,-0.178711,-0.316284,0.919312,507
16745344,9977,-0.176636,-0.316406,0.918823,515
16755348,10004,-0.176392,-0.317871,0.919678,515
16765365,10017,-0.177002,-0.320557,0.924805,517
16775372,10007,-0.176514,-0.326660,0.928101,515
16785352,9980,-0.177246,-0.325562,0.927979,511
16795354,10002,-0.178467,-0.322998,0.928467,519
16805360,10006,-0.177856,-0.323730,0.928833,518
16815364,10004,-0.179077,-0.323608,0.927368,518
16825386,10022,-0.176636,-0.322510,0.921509,514
16835357,9971,-0.177002,-0.319580,0.918701,519
16845356,9999,-0.177368,-0.314819,0.918091,518
16855354,9998,-0.178223,-0.314819,0.919189,511
16865371,10017,-0.177246,-0.318726,0.920776,517
16875343,9972,-0.177856,-0.325073,0.926392,515
16885348,10005,-0.177856,-0.326782,0.925903,515
16895351,10003,-0.178101,-0.324219,0.926636,517
16905358,10007,-0.178101,-0.323364,0.926636,516
16915364,10006,-0.177612,-0.323364,0.925171,512
16925345,9981,-0.177979,-0.322510,0.926147,515
16935370,10025,-0.177246,-0.319702,0.922119,514
16945343,9973,-0.177734,-0.319214,0.920044,517
16955370,10027,-0.176758,-0.317017,0.919800,509
16965368,9998,-0.177246,-0.316162,0.920044,507
16975350,9982,-0.178467,-0.318604,0.921387,513
16985344,9994,-0.180054,-0.327271,0.926880,506
16995346,10002,-0.178955,-0.330078,0.927856,514
17005356,10010,-0.177490,-0.327393,0.929810,511
17015345,9989,-0.177124,-0.324463,0.928223,514
17025350,10005,-0.176514,-0.322021,0.927612,514
17035346,9996,-0.177368,-0.318604,0.925049,509
17045353,10007,-0.176514,-0.317871,0.918579,513
17055371,10018,-0.175659,-0.318115,0.918701,509
17065349,9978,-0.176147,-0.317139,0.918823,514
17075364,10015,-0.177612,-0.319702,0.922363,515
17085344,9980,-0.179810,-0.323242,0.922485,507
17095359,10015,-0.180420,-0.326538,0.927979,514
17105362,10003,-0.180176,-0.326660,0.928955,514
17115350,9988,-0.177734,-0.327393,0.926514,515
17125384,10034,-0.175293,-0.323730,0.924438,510
17135389,10005,-0.175049,-0.317383,0.920166,507
17145352,9963,-0.175049,-0.315186,0.920410,511
17155346,9994,-0.176758,-0.317627,0.921997,516
17165367,10021,-0.177856,-0.320435,0.925415,516
17175349,9982,-0.178833,-0.323486,0.925781,509
17185343,9994,-0.179077,-0.326172,0.926147,515
17195356,10013,-0.180664,-0.325684,0.926392,515
17205349,9993,-0.178833,-0.325806,0.926514,513
17215352,10003,-0.178223,-0.324707,0.924438,516
17225348,9996,-0.177368,-0.322632,0.922974,516
17235353,10005,-0.175293,-0.320557,0.922119,513
17245343,9990,-0.174927,-0.319580,0.920532,510
17255349,10006,-0.176636,-0.317261,0.922119,506
17265362,10013,-0.179077,-0.318726,0.922241,512
17275351,9989,-0.180176,-0.320313,0.925781,513
17285346,9995,-0.179565,-0.322021,0.926514,506
17295352,10006,-0.178711,-0.324341,0.926758,511
17305367,10015,-0.178955,-0.325562,0.926147,514
17315364,9997,-0.177490,-0.323730,0.922852,512
17325368,10004,-0.177124,-0.322876,0.922485,511
17335370,10002,-0.176880,-0.320801,0.922974,515
17345353,9983,-0.175781,-0.319214,0.923218,511
17355347,9994,-0.176514,-0.319214,0.924683,505
17365351,10004,-0.177856,-0.320435,0.925171,514
17375346,9995,-0.178833,-0.321777,0.923584,514
17385360,10014,-0.178467,-0.322266,0.923218,515
17395361,10001,-0.176636,-0.321411,0.922974,510
17405348,9987,-0.177734,-0.322021,0.922241,512
17415346,9998,-0.177124,-0.323730,0.925171,515
17425353,10007,-0.178101,-0.323730,0.926514,513
17435363,10010,-0.177612,-0.322876,0.927124,514
17445379,10016,-0.177734,-0.321899,0.927124,507
17455364,9985,-0.175781,-0.321899,0.926025,513
17465359,9995,-0.176758,-0.319336,0.922852,514
17475360,10001,-0.178101,-0.317261,0.921631,513
17485356,9996,-0.177124,-0.320801,0.921875,512
17495360,10004,-0.177612,-0.323730,0.923096,516
17505364,10004,-0.177979,-0.327148,0.923828,507
17515353,9989,-0.178833,-0.326294,0.926147,515
17525353,10000,-0.178467,-0.321411,0.925903,512
17535365,10012,-0.178101,-0.316772,0.924561,508
17545360,9995,-0.175293,-0.316650,0.923340,515
17555358,9998,-0.175049,-0.318237,0.921753,513
17565356,9998,-0.175537,-0.319702,0.920410,510
17575353,9997,-0.175781,-0.322388,0.922241,513
17585363,10010,-0.178101,-0.325562,0.925171,506
17595343,9980,-0.178589,-0.326660,0.927246,507
17605366,10023,-0.178467,-0.324341,0.926514,515
17615383,10017,-0.179687,-0.321899,0.925293,514
17625362,9979,-0.179199,-0.320190,0.925293,515
17635370,10008,-0.175171,-0.320923,0.921997,513
17645343,9973,-0.176147,-0.321045,0.922241,515
17655370,10027,-0.176270,-0.320313,0.922363,517
17665345,9975,-0.179199,-0.322021,0.924927,512
17675371,10026,-0.180298,-0.322388,0.925903,510
17685360,9989,-0.179932,-0.324463,0.923828,520
17695345,9985,-0.176270,-0.325928,0.921509,519
17705366,10021,-0.174072,-0.322876,0.918457,517
17715359,9993,-0.175659,-0.317993,0.917969,518
17725361,10002,-0.177856,-0.316284,0.922241,522
17735352,9991,-0.181274,-0.319336,0.917480,518
17745344,9992,-0.182983,-0.309814,0.932007,517
17755370,10026,-0.179565,-0.328735,0.939453,516
17765367,9997,-0.169922,-0.350342,0.933716,513
17775363,9996,-0.169678,-0.342896,0.923584,516
17785346,9983,-0.172974,-0.312988,0.916138,514
17795383,10037,-0.179932,-0.309937,0.918335,515
17805350,9967,-0.176270,-0.333740,0.920410,516
17815360,10010,-0.177246,-0.337769,0.920532,516
17825348,9988,-0.182617,-0.323242,0.925049,513
17835365,10017,-0.182495,-0.310303,0.929810,515
17845343,9978,-0.180908,-0.311279,0.930420,517
17855359,10016,-0.172974,-0.328979,0.926514,511
17865346,9987,-0.175659,-0.325684,0.922607,515
17875349,10003,-0.173828,-0.325317,0.918579,516
17885366,10017,-0.176392,-0.325928,0.916870,513
17895362,9996,-0.179077,-0.323242,0.923096,514
17905369,10007,-0.179565,-0.322632,0.929199,518
17915353,9984,-0.178711,-0.317383,0.929565,511
17925356,10003,-0.175781,-0.313843,0.928589,513
17935371,10015,-0.177490,-0.314209,0.923828,514
17945362,9991,-0.179077,-0.314697,0.921631,516
17955343,9981,-0.179199,-0.318848,0.918457,516
17965349,10006,-0.178223,-0.328491,0.919434,511
17975361,10012,-0.177124,-0.329468,0.918823,514
17985368,10007,-0.176758,-0.325806,0.922119,512
17995359,9991,-0.178589,-0.321899,0.923462,515
18005357,9998,-0.182007,-0.316406,0.928589,515
18015367,10010,-0.179321,-0.320679,0.930908,511
18025368,10001,-0.176758,-0.324951,0.926514,515
18035367,9999,-0.174438,-0.323486,0.922607,516
18045353,9986,-0.172852,-0.319702,0.920166,514
18055350,9997,-0.171875,-0.317993,0.920044,508
18065354,10004,-0.175049,-0.321167,0.921875,513
18075364,10010,-0.181885,-0.321899,0.925049,507
18085365,10001,-0.183594,-0.324829,0.926392,509
18095361,9996,-0.182251,-0.327271,0.928101,512
18105345,9984,-0.180176,-0.328491,0.927490,514
18115360,10015,-0.179199,-0.324707,0.924927,514
18125346,9986,-0.174683,-0.319092,0.922485,512
18135569,10223,-0.173950,-0.318604,0.921875,511
18149504,13935,-0.176392,-0.320068,0.921631,513
18155713,6209,-0.175171,-0.321655,0.922485,513
18165359,9646,-0.177612,-0.321045,0.923584,515
18175366,10007,-0.181274,-0.321167,0.926880,516
18185370,10004,-0.179443,-0.323853,0.927124,516
18195343,9973,-0.179199,-0.325073,0.925049,512
18205360,10017,-0.179077,-0.323242,0.923706,506
18215364,10004,-0.178345,-0.321777,0.922363,511
18225345,9981,-0.179199,-0.323608,0.922485,509
18235354,10009,-0.177246,-0.324829,0.924194,513
18245344,9990,-0.177612,-0.323608,0.925659,513
18255344,10000,-0.176880,-0.320068,0.925537,508
18265354,10010,-0.177246,-0.317383,0.925171,514
18275357,10003,-0.177856,-0.316772,0.924561,506
18285363,10006,-0.178833,-0.317749,0.922852,512
18295354,9991,-0.178833,-0.320923,0.922607,505
18305373,10019,-0.178467,-0.324707,0.920654,512
18315374,10001,-0.178467,-0.324951,0.921265,507
18325346,9972,-0.177856,-0.323608,0.922241,513
18335367,10021,-0.178467,-0.321899,0.922485,514
18345353,9986,-0.177612,-0.322144,0.926514,514
18355363,10010,-0.177734,-0.320435,0.926270,514
18365359,9996,-0.175781,-0.321411,0.925537,510
18375356,9997,-0.176758,-0.319946,0.924438,514
18385356,10000,-0.175415,-0.320679,0.924927,510
18395367,10011,-0.177002,-0.321167,0.926270,514
18405365,9998,-0.176880,-0.323364,0.924805,514
18415354,9989,-0.178589,-0.323486,0.924316,510
18425359,10005,-0.178223,-0.324097,0.924438,514
18437605,12246,-0.179199,-0.321289,0.921265,517
18445360,7755,0.000000,0.000000,0.000000,513
18455358,9998,-0.177368,-0.320679,0.922119,508
18465349,9991,-0.178223,-0.322144,0.922607,513
18475353,10004,-0.177246,-0.322754,0.923950,512
18485351,9998,-0.176270,-0.323608,0.925659,512
18495367,10016,-0.178833,-0.322998,0.927002,510
18505361,9994,-0.178223,-0.321045,0.925537,507
18515372,10011,-0.176392,-0.319580,0.923096,511
18525368,9996,-0.176880,-0.318481,0.921631,513
18538145,12777,-0.176880,-0.321899,0.920898,512
18550905,12760,-0.176636,-0.323730,0.921753,516
18556687,5782,-0.178345,-0.323853,0.925781,506
18565364,8677,-0.178467,-0.324829,0.928467,513
18575367,10003,-0.177979,-0.326660,0.927246,515
18585360,9993,-0.176147,-0.326294,0.926514,507
18595344,9984,-0.176636,-0.323486,0.924072,507
18605354,10010,-0.177124,-0.318481,0.923950,516
18615353,9999,-0.176514,-0.319336,0.923096,511
18629835,14482,-0.176636,-0.320068,0.924194,515
18639589,9754,-0.178101,-0.323242,0.924194,517
18646539,6950,0.000000,0.000000,0.000000,517
18655357,8818,-0.176880,-0.324463,0.922729,512
18665367,10010,-0.179687,-0.321289,0.923218,517
18675351,9984,-0.178467,-0.321167,0.923950,513
18685345,9994,-0.177734,-0.321655,0.922974,516
18695369,10024,-0.177734,-0.322510,0.922607,514
18705352,9983,-0.176880,-0.323120,0.924438,516
18715349,9997,-0.177612,-0.322388,0.924683,512
18727655,12306,-0.177368,-0.320435,0.925171,515
18737323,9668,-0.177734,-0.318848,0.923218,518
18745357,8034,-0.176636,-0.318726,0.921875,518
18755480,10123,-0.177246,-0.319092,0.920776,515
18766425,10945,-0.178101,-0.323120,0.921875,511
18775371,8946,0.000000,0.000000,0.000000,515
18785372,10001,-0.179687,-0.324585,0.924561,516
18795344,9972,-0.177124,-0.323608,0.926025,514
18805362,10018,-0.176025,-0.321899,0.924561,516
18815372,10010,-0.176025,-0.321899,0.926147,511
18825368,9996,-0.175659,-0.323242,0.924316,513
18835363,9995,-0.179443,-0.322510,0.923706,516
18845362,9999,-0.179199,-0.323120,0.924438,512
18855347,9985,-0.177979,-0.324951,0.923462,509
18865365,10018,-0.177979,-0.324097,0.921631,514
18875362,9997,-0.177979,-0.319336,0.920288,514
18885364,10002,-0.178711,-0.317383,0.919434,514
18895361,9997,-0.178101,-0.319580,0.919922,516
18905343,9982,-0.179199,-0.321289,0.922363,510
18915352,10009,-0.179321,-0.322510,0.923096,513
18925358,10006,-0.179565,-0.324341,0.922852,515
18935345,9987,-0.176636,-0.322388,0.924194,515
18945364,10019,-0.176514,-0.321167,0.925903,515
18955370,10006,-0.177246,-0.324341,0.928101,516
18965343,9973,-0.177734,-0.326538,0.930420,516
18975361,10018,-0.178101,-0.328003,0.931885,515
18985372,10011,-0.177124,-0.328247,0.931763,515
18995344,9972,-0.175171,-0.324951,0.926758,506
19005345,10001,-0.173340,-0.322510,0.925781,514
19015346,10001,-0.173828,-0.319336,0.924072,507
19025371,10025,-0.173096,-0.319946,0.924316,512
19035349,9978,-0.175659,-0.321167,0.924072,508
19045346,9997,-0.178833,-0.321899,0.923706,508
19055361,10015,-0.178833,-0.321045,0.922241,509
19066381,11020,-0.180298,-0.322754,0.921753,513
19075354,8973,-0.180908,-0.325684,0.922729,515
19085354,10000,-0.180298,-0.326050,0.921387,513
19095368,10014,-0.180054,-0.324219,0.919800,510
19105350,9982,-0.177856,-0.322754,0.921021,514
19115358,10008,-0.176270,-0.321777,0.921631,514
19125357,9999,-0.177124,-0.320435,0.922607,511
19139628,14271,-0.177002,-0.319580,0.926147,515
19148362,8734,-0.176147,-0.320557,0.926636,506
19155746,7384,-0.176514,-0.322632,0.924438,507
19166697,10951,-0.177490,-0.323486,0.923462,512
19175365,8668,-0.176270,-0.320923,0.922607,511
19185367,10002,-0.176270,-0.319214,0.922729,509
19195347,9980,-0.175903,-0.320435,0.921997,511
19205356,10009,-0.178711,-0.322754,0.921265,514
19215372,10016,-0.180054,-0.321655,0.922607,516
19225343,9971,-0.180298,-0.322754,0.924683,514
19235353,10010,-0.178223,-0.326050,0.924194,514
19245349,9996,-0.178589,-0.325684,0.923096,513
19255372,10023,-0.175537,-0.323608,0.924194,512
19268153,12781,-0.175415,-0.318726,0.926025,504
19275343,7190,-0.175415,-0.319580,0.926270,515
19285353,10010,-0.176514,-0.324341,0.928467,513
19295345,9992,-0.177002,-0.326416,0.929810,513
19305397,10052,-0.177856,-0.328613,0.930664,511
19315351,9954,-0.176270,-0.330200,0.927856,515
19325371,10020,-0.176025,-0.328369,0.925903,513
19335371,10000,-0.176025,-0.323853,0.925293,515
19345361,9990,-0.175293,-0.319946,0.924927,507
19355368,10007,-0.174072,-0.317505,0.924316,513
19365357,9989,-0.175659,-0.317505,0.923218,512
19375353,9996,-0.175537,-0.323608,0.921753,514
19385347,9994,-0.178101,-0.326782,0.920044,515
19395372,10025,-0.180420,-0.327759,0.919189,515
19405349,9977,-0.182007,-0.327393,0.918335,514
19415354,10005,-0.183472,-0.324463,0.917725,514
19425354,10000,-0.182129,-0.322388,0.917114,515
19435343,9989,-0.181152,-0.319824,0.919189,509
19445365,10022,-0.178711,-0.319458,0.920776,516
19455356,9991,-0.176758,-0.320190,0.920898,511
19466297,10941,-0.173584,-0.320557,0.919800,516
19475350,9053,-0.172852,-0.318359,0.919800,508
19485360,10010,-0.174438,-0.314453,0.920532,511
19495370,10010,-0.175171,-0.315918,0.922607,515
19505362,9992,-0.177612,-0.317139,0.925903,513
19515350,9988,-0.177979,-0.321533,0.928955,517
19525362,10012,-0.177856,-0.327637,0.929077,517
19535346,9984,-0.177246,-0.328491,0.930420,507
19545362,10016,-0.176270,-0.327515,0.930054,510
19555352,9990,-0.174683,-0.328125,0.929687,518
19565366,10014,-0.174072,-0.326660,0.929443,512
19575343,9977,-0.173584,-0.324951,0.927002,516
19585362,10019,-0.174194,-0.315796,0.921631,515
19595345,9983,-0.174683,-0.311768,0.920044,512
19605351,10006,-0.176025,-0.312256,0.920532,513
19615347,9996,-0.177856,-0.316040,0.919434,519
19625358,10011,-0.177612,-0.322266,0.921997,514
19635350,9992,-0.177368,-0.327637,0.922607,495
19645352,10002,-0.177368,-0.329834,0.924194,518
19655352,10000,-0.177002,-0.327515,0.923340,507
19665542,10190,-0.176147,-0.324951,0.924805,514
19675353,9811,-0.177124,-0.323608,0.923462,509
19685364,10011,-0.177124,-0.322510,0.924927,512
19695368,10004,-0.177856,-0.321899,0.918701,508
19705366,9998,-0.175537,-0.312134,0.929932,514
19715358,9992,-0.176147,-0.318848,0.928711,509
19725356,9998,-0.179077,-0.327881,0.932739,509
19735356,10000,-0.175659,-0.333374,0.926270,515
19745353,9997,-0.171631,-0.319336,0.918823,514
19755367,10014,-0.174316,-0.316406,0.917358,516
19765349,9982,-0.175781,-0.316406,0.920532,513
19775343,9994,-0.177979,-0.317017,0.921997,507
19785367,10024,-0.182007,-0.315918,0.927246,514
19795366,9999,-0.176514,-0.323853,0.929199,516
19805357,9991,-0.173218,-0.332275,0.928101,513
19815352,9995,-0.173462,-0.325562,0.926758,515
19825369,10017,-0.177490,-0.319092,0.925171,516
19835347,9978,-0.177002,-0.317505,0.923462,515
19845366,10019,-0.176758,-0.319458,0.923340,508
19855368,10002,-0.172607,-0.319702,0.922729,512
19865368,10000,-0.174683,-0.319580,0.922241,513
19875365,9997,-0.177246,-0.320190,0.922363,515
19885349,9984,-0.179443,-0.320068,0.921753,513
19895358,10009,-0.178833,-0.321777,0.922119,514
19905345,9987,-0.178589,-0.324951,0.923584,514
19915364,10019,-0.175293,-0.326294,0.923096,514
19925371,10007,-0.177979,-0.323975,0.923828,505
19935346,9975,-0.177490,-0.324097,0.925415,506
19945367,10021,-0.178833,-0.325562,0.926880,511
19955370,10003,-0.177002,-0.323975,0.926880,514
19967378,12008,-0.174194,-0.320068,0.921753,513
19977503,10125,-0.173584,-0.317871,0.921387,504
19985350,7847,-0.173828,-0.317993,0.921387,508
19995354,10004,-0.176147,-0.321289,0.923096,504
20005355,10001,-0.178589,-0.325195,0.925049,513
20015352,9997,-0.178589,-0.328369,0.927124,506
20025348,9996,-0.176880,-0.328491,0.926025,512
20035353,10005,-0.177612,-0.326050,0.927490,514
20047650,12297,-0.176880,-0.323853,0.927002,515
20057958,10308,-0.175903,-0.322144,0.924072,512
20067985,10027,-0.175293,-0.319824,0.923096,513
20076273,8288,-0.174683,-0.318481,0.922729,512
20085356,9083,-0.173462,-0.319702,0.920288,507
20095366,10010,-0.175293,-0.319214,0.919067,514
20105378,10012,-0.175537,-0.319702,0.918701,510
20115367,9989,-0.178101,-0.320190,0.919556,514
20125363,9996,-0.180542,-0.324585,0.925659,513
20135352,9989,-0.180420,-0.326538,0.928467,514
20145351,9999,-0.178711,-0.326904,0.929932,513
20155368,10017,-0.176270,-0.326904,0.928589,514
20165372,10004,-0.175903,-0.325195,0.927979,510
20177154,11782,-0.170776,-0.322876,0.923218,510
20185352,8198,-0.172485,-0.323364,0.920898,505
20195366,10014,-0.174194,-0.320068,0.919800,508
20205346,9980,-0.177246,-0.315063,0.922119,507
20215357,10011,-0.176880,-0.317383,0.923950,514
20225370,10013,-0.179077,-0.323608,0.925903,512
20235361,9991,-0.178223,-0.325928,0.925537,530
20245355,9994,-0.176514,-0.325562,0.924194,515
20256936,11581,-0.176514,-0.324585,0.923584,515
20265350,8414,-0.175781,-0.325684,0.923096,516
20275371,10021,-0.173950,-0.326538,0.923462,516
20285346,9975,-0.173950,-0.321167,0.922119,515
20295361,10015,-0.176880,-0.318726,0.923706,518
20305345,9984,-0.178345,-0.320068,0.926758,516
20315369,10024,-0.178955,-0.320557,0.926392,515
20325372,10003,-0.178711,-0.320435,0.926392,517
20335361,9989,-0.176270,-0.323364,0.926025,516
20345373,10012,-0.174194,-0.325562,0.922363,518
20355348,9975,-0.174927,-0.326904,0.921509,517
20365368,10020,-0.176636,-0.323486,0.920654,517
20377045,11677,-0.178223,-0.319458,0.921631,518
20387920,10875,-0.176636,-0.320068,0.925537,514
20395359,7439,0.000000,0.000000,0.000000,508
20405344,9985,-0.175781,-0.318970,0.926270,515
20415358,10014,-0.175415,-0.322754,0.926636,515
20425375,10017,-0.176147,-0.327148,0.926392,524
20435344,9969,-0.176514,-0.328125,0.926758,514
20445343,9999,-0.176270,-0.328125,0.924316,515
20455353,10010,-0.175415,-0.324585,0.921875,515
20465362,10009,-0.174561,-0.318481,0.922363,513
20475356,9994,-0.175659,-0.316162,0.922607,516
20485346,9990,-0.176392,-0.316406,0.923462,509
20495344,9998,-0.177124,-0.320313,0.925293,514
20505350,10006,-0.177246,-0.325806,0.922119,513
20515369,10019,-0.176392,-0.326416,0.923462,515
20525355,9986,-0.176025,-0.327148,0.923462,513
20535359,10004,-0.176636,-0.324097,0.923462,511
20545358,9999,-0.177246,-0.322388,0.925903,506
20555349,9991,-0.177002,-0.324463,0.927979,516
20565344,9995,-0.176758,-0.322754,0.926392,514
20578343,12999,-0.174683,-0.321289,0.924072,515
20585343,7000,-0.174194,-0.320313,0.922852,510
20595388,10045,-0.175537,-0.319336,0.922119,514
20605373,9985,-0.176758,-0.318604,0.922607,511
20615349,9976,-0.178345,-0.323608,0.923096,514
20625348,9999,-0.178711,-0.326050,0.923828,509
20635348,10000,-0.177124,-0.328003,0.923828,510
20645368,10020,-0.177490,-0.327393,0.924316,516
20655367,9999,-0.177002,-0.324585,0.923340,515
20665364,9997,-0.176147,-0.321655,0.924561,513
20675353,9989,-0.175903,-0.320068,0.926147,513
20685369,10016,-0.175903,-0.321167,0.926880,510
20695364,9995,-0.174927,-0.323120,0.926636,509
20705363,9999,-0.175171,-0.322998,0.926392,509
20715363,10000,-0.175415,-0.322021,0.924683,512
20725368,10005,-0.175781,-0.322876,0.922852,514
20735362,9994,-0.177246,-0.323608,0.922485,514
20745355,9993,-0.177246,-0.323242,0.922119,512
20755353,9998,-0.177979,-0.323486,0.922729,505
20765347,9994,-0.177856,-0.324097,0.923096,513
20777843,12496,-0.177124,-0.325806,0.924683,511
20785428,7585,-0.176758,-0.324707,0.923706,512
20795351,9923,-0.177124,-0.321655,0.924072,508
20805345,9994,-0.176025,-0.322388,0.923462,514
20815344,9999,-0.175415,-0.321899,0.924438,512
20825348,10004,-0.174194,-0.322388,0.924683,514
20835349,10001,-0.175415,-0.322388,0.923096,512
20845364,10015,-0.177124,-0.323975,0.923462,506
20855367,10003,-0.177002,-0.325195,0.923096,512
20865365,9998,-0.177979,-0.324707,0.921387,510
20875364,9999,-0.177612,-0.323730,0.922485,516
20885454,10090,-0.175293,-0.321533,0.925781,515
20895360,9906,-0.175903,-0.322876,0.926758,515
20905368,10008,-0.175903,-0.325195,0.924561,513
20915363,9995,-0.175659,-0.326538,0.923584,509
20925372,10009,-0.176636,-0.322876,0.922363,507
20935361,9989,-0.175903,-0.321167,0.923462,509
20945402,10041,-0.178833,-0.323364,0.925293,512
20955356,9954,-0.179565,-0.325195,0.926270,514
20966408,11052,-0.177612,-0.327148,0.925293,514
20979675,13267,-0.174805,-0.326538,0.922241,508
20991424,11749,-0.173828,-0.320313,0.922607,513
20999973,8549,-0.174316,-0.316895,0.922974,515
21007342,7369,-0.174805,-0.317871,0.925171,515
21015348,8006,-0.176392,-0.321167,0.925903,513
21025372,10024,-0.177246,-0.324097,0.927002,511
21035367,9995,-0.176636,-0.326050,0.926514,514
21045353,9986,-0.177490,-0.326538,0.925537,512
21055365,10012,-0.178345,-0.322632,0.924805,506
21065391,10026,-0.178833,-0.320801,0.922729,506
21075372,9981,-0.178345,-0.321655,0.922729,516
21086161,10789,-0.177002,-0.322021,0.921631,514
21095368,9207,-0.176514,-0.323608,0.919678,516
21105364,9996,-0.176392,-0.323853,0.921387,516
21115370,10006,-0.177368,-0.323608,0.923096,517
21125353,9983,-0.177612,-0.325073,0.926636,513
21135360,10007,-0.177856,-0.325928,0.928345,517
21145364,10004,-0.175293,-0.326660,0.926636,516
21155353,9989,-0.175293,-0.324707,0.925537,520
21165372,10019,-0.176392,-0.322998,0.924927,515
21179981,14609,-0.177490,-0.323730,0.921753,511
21193808,13827,-0.177979,-0.321411,0.920654,518
21203208,9400,-0.177734,-0.321045,0.921387,511
21210056,6848,-0.178223,-0.320679,0.922241,517
21215821,5765,-0.177002,-0.322021,0.922852,518
21225352,9531,-0.177246,-0.325073,0.923584,518
21235345,9993,-0.177612,-0.325195,0.925415,517
21245351,10006,-0.177246,-0.325439,0.926270,513
21255365,10014,-0.176025,-0.325806,0.926392,508
21265356,9991,-0.176025,-0.324829,0.925293,517
21275389,10033,-0.175903,-0.322021,0.922974,516
21285656,10267,-0.176636,-0.322144,0.921875,513
21295354,9698,-0.176147,-0.321167,0.920898,516
21305366,10012,-0.176514,-0.320068,0.921875,515
21315343,9977,-0.178345,-0.323364,0.923340,506
21325362,10019,-0.177490,-0.326416,0.923340,516
21335366,10004,-0.177734,-0.328369,0.924683,515
21345347,9981,-0.177856,-0.327637,0.925415,508
21355372,10025,-0.176636,-0.326172,0.926025,514
21365350,9978,-0.177002,-0.324463,0.927246,513
21375352,10002,-0.179199,-0.314941,0.924072,516
21385351,9999,-0.175171,-0.311768,0.931396,510
21395370,10019,-0.177734,-0.324829,0.928223,514
21405373,10003,-0.176270,-0.330078,0.925903,511
21415355,9982,-0.173340,-0.329346,0.917358,514
21425372,10017,-0.173584,-0.316162,0.918823,517
21435360,9988,-0.179565,-0.321167,0.922119,511
21445383,10023,-0.179810,-0.328857,0.926636,513
21455350,9967,-0.180786,-0.329468,0.927246,506
21465365,10015,-0.179932,-0.325562,0.926636,511
21475348,9983,-0.172852,-0.324951,0.922363,513
21485364,10016,-0.172363,-0.318604,0.923340,514
21495355,9991,-0.176270,-0.315186,0.923950,516
21509776,14421,-0.178345,-0.326294,0.927979,515
21518339,8563,0.000000,0.000000,0.000000,515
21525344,7005,-0.176025,-0.332642,0.928101,513
21535368,10024,-0.175171,-0.326294,0.924683,511
21545344,9976,-0.178223,-0.320435,0.921997,515
21555367,10023,-0.179443,-0.316406,0.921509,511
21565366,9999,-0.179321,-0.317749,0.922241,514
21575360,9994,-0.177856,-0.324097,0.922852,514
21585356,9996,-0.172119,-0.330200,0.924927,514
21595345,9989,-0.175537,-0.323608,0.923828,513
21605351,10006,-0.176636,-0.319580,0.924072,507
21615391,10040,-0.179321,-0.323608,0.925659,514
21625357,9966,-0.180786,-0.324707,0.925659,509
21635368,10011,-0.178955,-0.324707,0.924316,510
21645359,9991,-0.176758,-0.322876,0.921875,513
21655349,9990,-0.176514,-0.324219,0.920776,505
21665361,10012,-0.176392,-0.323853,0.921021,514
21675347,9986,-0.177246,-0.324951,0.921875,514
21686063,10716,-0.177490,-0.325439,0.923828,509
21695365,9302,-0.176147,-0.323975,0.924316,513
21705371,10006,-0.174927,-0.322021,0.926880,512
21719200,13829,-0.175659,-0.321533,0.926514,512
21725947,6747,-0.176025,-0.321655,0.926147,510
21735359,9412,-0.176758,-0.322388,0.927734,514
21745351,9992,-0.177490,-0.325439,0.929321,508
21755346,9995,-0.175537,-0.326538,0.919800,514
21765365,10019,-0.175293,-0.321655,0.917847,513
21775360,9995,-0.178833,-0.316528,0.918945,514
21785381,10021,-0.178711,-0.320190,0.923218,509
21795361,9980,-0.178711,-0.326782,0.925293,515
21805349,9988,-0.175537,-0.327637,0.926147,505
21815363,10014,-0.173340,-0.323364,0.926758,505
21825365,10002,-0.172852,-0.321411,0.928101,512
21835355,9990,-0.174805,-0.322266,0.927246,513
21845366,10011,-0.177124,-0.320435,0.925537,509
21855369,10003,-0.178467,-0.319946,0.921021,514
21865363,9994,-0.176147,-0.325439,0.920776,514
21875346,9983,-0.176392,-0.324463,0.919678,516
21885360,10014,-0.177856,-0.320679,0.921997,516
21895369,10009,-0.180054,-0.319702,0.924194,510
21905351,9982,-0.179932,-0.323364,0.925537,514
21915363,10012,-0.175415,-0.330200,0.923950,517
21925367,10004,-0.174438,-0.325806,0.922974,516
21935351,9984,-0.175415,-0.319336,0.922852,511
21945414,10063,-0.176514,-0.317261,0.925049,519
21955366,9952,-0.176392,-0.319214,0.926025,518
21965351,9985,-0.176025,-0.328369,0.927856,518
21975367,10016,-0.173706,-0.330322,0.926514,520
21988027,12660,-0.175415,-0.327393,0.922363,518
21997466,9439,-0.178711,-0.322632,0.920776,513
22006698,9232,-0.177979,-0.319702,0.919556,518
22015367,8669,-0.178345,-0.319214,0.920410,519
22025373,10006,-0.176758,-0.324463,0.922729,513
22035361,9988,-0.174561,-0.324463,0.923218,516
22045357,9996,-0.175293,-0.321533,0.926758,513
22055353,9996,-0.175903,-0.319336,0.929687,516
22065357,10004,-0.176880,-0.320923,0.930420,509
22075360,10003,-0.175537,-0.328003,0.930420,507
22085358,9998,-0.175049,-0.325684,0.925781,517
22097478,12120,-0.173950,-0.322144,0.921265,514
22105376,7898,-0.174194,-0.318237,0.918335,502
22115372,9996,-0.175659,-0.318726,0.916748,515
22125365,9993,-0.178833,-0.323608,0.915894,516
22135348,9983,-0.182739,-0.331665,0.917480,514
22145357,10009,-0.183105,-0.329956,0.918823,515
22155360,10003,-0.179687,-0.325928,0.920776,515
22165348,9988,-0.176636,-0.320068,0.925293,514
22175366,10018,-0.174438,-0.316650,0.929932,514
22187145,11779,-0.172607,-0.316284,0.930908,514
22197482,10337,-0.171143,-0.318237,0.928467,514
22205358,7876,-0.169922,-0.319946,0.925293,516
22215347,9989,-0.170898,-0.318726,0.923462,514
22225350,10003,-0.173340,-0.320435,0.920654,511
22235357,10007,-0.177246,-0.326904,0.923706,508
22245366,10009,-0.182373,-0.331299,0.925171,514
22255363,9997,-0.180908,-0.333740,0.924561,517
22265396,10033,-0.180054,-0.333618,0.925659,516
22275343,9947,-0.179077,-0.328491,0.929077,510
22285368,10025,-0.177002,-0.323120,0.929810,514
22295364,9996,-0.172974,-0.321777,0.926392,503
22305370,10006,-0.170044,-0.318970,0.922363,515
22315367,9997,-0.168335,-0.313110,0.923218,514
22325359,9992,-0.169189,-0.311279,0.925781,513
22335368,10009,-0.171631,-0.316040,0.928467,514
22345349,9981,-0.176025,-0.326660,0.925537,514
22355359,10010,-0.177856,-0.326904,0.923096,515
22365348,9989,-0.178833,-0.324829,0.922852,508
22375372,10024,-0.181152,-0.323120,0.924683,514
22385365,9993,-0.181396,-0.325439,0.927612,514
22403721,18356,-0.178955,-0.332153,0.922729,514
22411950,8229,-0.175903,-0.328613,0.922607,514
22417922,5972,-0.170532,-0.320923,0.922974,512
22425359,7437,-0.172363,-0.313354,0.924927,516
22435368,10009,-0.174194,-0.309448,0.925537,514
22445355,9987,-0.176270,-0.311279,0.925049,515
22455368,10013,-0.175171,-0.317993,0.923096,515
22465359,9991,-0.173706,-0.325195,0.923828,512
22475366,10007,-0.175903,-0.329468,0.923584,509
22485360,9994,-0.178833,-0.327881,0.922974,513
22495353,9993,-0.181396,-0.324707,0.922974,514
22505355,10002,-0.182373,-0.326294,0.921753,506
22515424,10069,-0.177368,-0.327026,0.919556,513
22525361,9937,-0.176025,-0.324463,0.916748,510
22535347,9986,-0.175903,-0.321899,0.917236,505
22545362,10015,-0.178589,-0.316406,0.926270,506
22555368,10006,-0.176758,-0.319702,0.937134,514
22565372,10004,-0.176636,-0.340820,0.945801,512
22575359,9987,-0.174194,-0.340820,0.940674,515
22585348,9989,-0.173218,-0.330811,0.934204,510
22595354,10006,-0.172485,-0.319214,0.927368,512
22605360,10006,-0.174438,-0.314941,0.916992,511
22615362,10002,-0.175659,-0.295166,0.922119,511
22625365,10003,-0.171753,-0.297852,0.911987,506
22635355,9990,-0.177368,-0.320679,0.907349,515
22645371,10016,-0.178101,-0.318970,0.905273,507
22655347,9976,-0.180176,-0.311401,0.909912,514
22665347,10000,-0.181641,-0.316528,0.911133,521
22675370,10023,-0.179077,-0.327393,0.926636,513
22685344,9974,-0.178589,-0.332520,0.928101,507
22695364,10020,-0.179687,-0.334595,0.921997,514
22705371,10007,-0.180420,-0.328979,0.921387,506
22715414,10043,-0.180420,-0.320190,0.922852,515
22725347,9933,-0.172485,-0.317383,0.924561,509
22735368,10021,-0.170654,-0.324585,0.926880,516
22745348,9980,-0.168579,-0.324707,0.929321,515
22755369,10021,-0.168579,-0.324829,0.931885,516
22765347,9978,-0.169189,-0.323608,0.933960,516
22775351,10004,-0.176880,-0.323853,0.931763,507
22785367,10016,-0.178589,-0.323975,0.929810,514
22796032,10665,-0.179077,-0.326172,0.927124,517
22805464,9432,-0.177246,-0.327881,0.923096,518
22815370,9906,-0.176758,-0.321289,0.918335,519
22825366,9996,-0.179077,-0.312988,0.917969,519
22835360,9994,-0.181641,-0.313354,0.922241,514
22845355,9995,-0.178955,-0.322144,0.922363,519
22855362,10007,-0.176270,-0.330444,0.918091,519
22865345,9983,-0.172852,-0.329590,0.913818,518
22875379,10034,-0.173096,-0.321899,0.916138,518
22885359,9980,-0.181152,-0.319580,0.932739,517
22895350,9991,-0.182739,-0.323364,0.937012,511
22905368,10018,-0.179443,-0.328491,0.936890,508
22915363,9995,-0.174194,-0.329346,0.931152,518
22925347,9984,-0.170654,-0.325562,0.926392,513
22935369,10022,-0.169189,-0.286865,0.922607,512
22945355,9986,-0.178223,-0.311523,0.925537,515
22955348,9993,-0.179443,-0.318359,0.926025,514
22965364,10016,-0.178589,-0.326904,0.922241,515
22975363,9999,-0.174072,-0.329834,0.918457,515
22985356,9993,-0.175293,-0.324341,0.916504,515
22995352,9996,-0.182739,-0.313477,0.924927,514
23007686,12334,-0.186401,-0.318481,0.928345,516
23015368,7682,-0.182129,-0.327637,0.930542,509
23025354,9986,-0.176758,-0.335571,0.932373,514
23035366,10012,-0.172607,-0.336792,0.928467,509
23045367,10001,-0.171631,-0.314575,0.926147,515
23055367,10000,-0.177856,-0.307251,0.927612,506
23065363,9996,-0.180420,-0.310913,0.928467,514
23075366,10003,-0.173828,-0.319580,0.926025,510
23085364,9998,-0.170898,-0.325684,0.920410,511
23095366,10002,-0.168701,-0.324341,0.917236,511
23105366,10000,-0.180420,-0.317505,0.923218,514
23122011,16645,-0.187500,-0.326050,0.928223,515
23132686,10675,-0.184204,-0.332764,0.928101,517
23142571,9885,-0.178955,-0.332520,0.922729,513
23151414,8843,-0.174194,-0.328125,0.918335,514
23158949,7535,-0.173462,-0.318726,0.917725,514
23165350,6401,-0.177002,-0.312378,0.919067,509
23175358,10008,-0.179199,-0.310913,0.921509,515
23185359,10001,-0.177856,-0.317505,0.923828,514
23195346,9987,-0.173828,-0.323242,0.927002,515
23206664,11318,-0.173584,-0.320435,0.930054,516
23215353,8689,-0.176270,-0.315796,0.930176,515
23225351,9998,-0.179932,-0.316528,0.933594,511
23235371,10020,-0.179443,-0.324219,0.935303,515
23245360,9989,-0.177368,-0.333374,0.931763,513
23255349,9989,-0.174072,-0.336426,0.924194,508
23265352,10003,-0.173584,-0.319214,0.915771,512
23275369,10017,-0.177002,-0.310913,0.916992,515
23285371,10002,-0.181885,-0.307739,0.919800,507
23295367,9996,-0.184448,-0.310303,0.923584,515
23305365,9998,-0.183594,-0.317505,0.927368,512
23315353,9988,-0.179199,-0.329346,0.924194,516
23328337,12984,-0.172974,-0.327515,0.922852,514
23337418,9081,-0.175415,-0.323853,0.925171,514
23345364,7946,-0.179199,-0.317627,0.927124,506
23355360,9996,-0.179199,-0.319824,0.929810,513
23365360,10000,-0.177490,-0.327515,0.930786,512
23375372,10012,-0.173340,-0.321899,0.923218,514
23385372,10000,-0.173462,-0.313354,0.919312,513
23395371,9999,-0.175537,-0.310181,0.918823,505
23405349,9978,-0.179932,-0.311279,0.920410,506
23415372,10023,-0.182495,-0.317993,0.923096,512
23426711,11339,-0.180054,-0.330811,0.924561,510
23435359,8648,-0.177124,-0.333496,0.924072,515
23445368,10009,-0.176636,-0.331909,0.924072,510
23455346,9978,-0.178345,-0.324707,0.926147,514
23465357,10011,-0.177002,-0.318604,0.928711,512
23475362,10005,-0.175903,-0.315186,0.931885,511
23485347,9985,-0.172119,-0.318115,0.928955,508
23495371,10024,-0.171753,-0.319580,0.926636,510
23505351,9980,-0.174561,-0.321167,0.923584,515
23515353,10002,-0.178345,-0.320923,0.920410,511
23525370,10017,-0.181641,-0.324097,0.919678,514
23536763,11393,-0.184082,-0.326782,0.919312,516
23545363,8600,-0.181885,-0.324951,0.919678,513
23555370,10007,-0.179321,-0.320068,0.921021,515
23565353,9983,-0.177979,-0.315918,0.923218,511
23575371,10018,-0.178223,-0.313965,0.925537,509
23585364,9993,-0.176025,-0.317749,0.927246,514
23595372,10008,-0.172607,-0.323853,0.927124,512
23605354,9982,-0.173340,-0.323730,0.926025,511
23615349,9995,-0.172852,-0.322021,0.926880,513
23627261,11912,-0.177002,-0.320190,0.927124,508
23639610,12349,-0.182129,-0.319946,0.927002,514
23647410,7800,-0.181152,-0.321289,0.926147,516
23655915,8505,-0.178467,-0.321533,0.923462,513
23665356,9441,-0.176880,-0.322876,0.921997,509
23675348,9992,-0.173584,-0.323730,0.921021,518
23685361,10013,-0.174683,-0.321899,0.920654,517
23695350,9989,-0.176025,-0.321045,0.926880,520
23705399,10049,-0.178955,-0.323364,0.928345,519
23715363,9964,-0.178589,-0.322754,0.929077,519
23725371,10008,-0.177734,-0.322632,0.928711,520
23736685,11314,-0.177124,-0.320313,0.925903,513
23745355,8670,-0.177368,-0.319092,0.923584,520
23755368,10013,-0.177124,-0.320313,0.920166,520
23765367,9999,-0.178223,-0.322144,0.921997,512
23775361,9994,-0.178589,-0.325439,0.922607,512
23785359,9998,-0.178101,-0.324707,0.923096,517
23795370,10011,-0.177979,-0.325317,0.926514,516
23805346,9976,-0.177246,-0.322388,0.931030,516
23815361,10015,-0.176147,-0.322388,0.930786,515
23825367,10006,-0.174927,-0.319092,0.929443,515
23835365,9998,-0.172974,-0.316162,0.927490,510
23845360,9995,-0.173218,-0.315796,0.925293,510
23855403,10043,-0.173218,-0.316650,0.921021,516
23865373,9970,-0.175659,-0.323975,0.920532,515
23875356,9983,-0.177368,-0.326172,0.922852,512
23885355,9999,-0.181152,-0.327759,0.924561,509
23895349,9994,-0.183838,-0.326660,0.927124,515
23905349,10000,-0.183594,-0.326050,0.930664,515
23915347,9998,-0.179199,-0.328979,0.927002,516
23925358,10011,-0.176270,-0.324707,0.921875,514
23935371,10013,-0.172607,-0.315796,0.920288,515
23945360,9989,-0.171875,-0.307129,0.919556,513
23955347,9987,-0.172852,-0.305786,0.923096,514
23965351,10004,-0.172607,-0.318970,0.928345,509
23975349,9998,-0.175171,-0.325439,0.928467,514
23985372,10023,-0.177124,-0.327026,0.926514,514
23995362,9990,-0.178345,-0.323608,0.924683,509
24005362,10000,-0.179687,-0.320435,0.924927,515
24015394,10032,-0.184326,-0.318604,0.925293,508
24028428,13034,-0.182617,-0.325562,0.919312,507
24035571,7143,-0.179077,-0.325806,0.916748,508
24045353,9782,-0.176758,-0.322754,0.915405,516
24055360,10007,-0.175415,-0.317993,0.917847,506
24065347,9987,-0.176147,-0.315796,0.920776,508
24075365,10018,-0.176147,-0.321045,0.930664,515
24085353,9988,-0.175293,-0.322998,0.931396,513
24095362,10009,-0.173706,-0.323486,0.929321,515
24105345,9983,-0.172974,-0.321533,0.928833,513
24115366,10021,-0.176025,-0.321655,0.927124,514
24125356,9990,-0.177002,-0.322876,0.925415,507
24135345,9989,-0.177979,-0.325195,0.921631,508
24145366,10021,-0.178223,-0.321777,0.921265,511
24155357,9991,-0.176392,-0.316650,0.920044,516
24165345,9988,-0.177734,-0.313965,0.921387,508
24175349,10004,-0.180664,-0.314575,0.922485,509
24185372,10023,-0.178833,-0.321777,0.923584,507
24195351,9979,-0.177368,-0.323975,0.923584,511
24205364,10013,-0.172974,-0.327759,0.922974,514
24215372,10008,-0.174927,-0.326782,0.923462,513
24225362,9990,-0.175781,-0.325439,0.923462,528
24235357,9995,-0.178467,-0.323730,0.929565,512
24245366,10009,-0.179077,-0.325562,0.929810,510
24255345,9979,-0.178711,-0.327148,0.930542,514
24265347,10002,-0.175903,-0.326172,0.928711,513
24275349,10002,-0.174805,-0.322876,0.926758,512
24285348,9999,-0.174438,-0.317383,0.925903,512
24295361,10013,-0.177979,-0.315186,0.924927,505
24305354,9993,-0.178223,-0.317993,0.924438,513
24315366,10012,-0.179077,-0.321167,0.923706,513
24325399,10033,-0.179932,-0.322876,0.923462,514
24335374,9975,-0.179077,-0.322998,0.923096,513
24345350,9976,-0.181396,-0.319946,0.927124,511
24355343,9993,-0.180420,-0.319580,0.930298,515
24365354,10011,-0.177246,-0.324219,0.929810,511
24375343,9989,-0.173706,-0.327271,0.925537,514
24385350,10007,-0.170410,-0.322998,0.921143,506
24395351,10001,-0.171875,-0.315430,0.918457,506
24405354,10003,-0.178589,-0.309570,0.924927,505
24415367,10013,-0.180542,-0.314941,0.930420,512
24425361,9994,-0.180908,-0.324951,0.933716,507
24435356,9995,-0.178345,-0.333008,0.932373,507
24449178,13822,-0.173218,-0.328735,0.923584,509
24456394,7216,-0.175415,-0.318726,0.919312,513
24465351,8957,-0.179565,-0.311035,0.917725,515
24475355,10004,-0.182739,-0.307007,0.916138,509
24485358,10003,-0.182861,-0.309448,0.917603,510
24495390,10032,-0.179687,-0.317993,0.918701,505
24505370,9980,-0.176880,-0.326660,0.921753,513
24515366,9996,-0.178589,-0.326904,0.923706,516
24525368,10002,-0.180298,-0.323120,0.927979,507
24535988,10620,-0.183350,-0.320068,0.931274,513
24546004,10016,-0.181396,-0.322388,0.932861,508
24555344,9340,-0.177002,-0.324219,0.929321,507
24569426,14082,-0.172119,-0.320190,0.920410,515
24576088,6662,-0.173340,-0.314697,0.920654,517
24585366,9278,-0.176758,-0.314453,0.923218,518
24595344,9978,-0.179077,-0.317017,0.926270,517
24605347,10003,-0.179565,-0.321289,0.926392,510
24615360,10013,-0.178223,-0.323120,0.924072,517
24625362,10002,-0.179565,-0.321045,0.922119,513
24635351,9989,-0.181274,-0.319702,0.922119,513
24647638,12287,-0.184204,-0.321655,0.923706,510
24655399,7761,-0.183960,-0.323975,0.926880,514
24669076,13677,-0.178101,-0.327637,0.926636,517
24675364,6288,-0.174316,-0.326660,0.924805,512
24685360,9996,-0.176025,-0.320068,0.924561,511
24695358,9998,-0.175903,-0.312988,0.926636,508
24705362,10004,-0.178833,-0.311890,0.926514,516
24715370,10008,-0.177490,-0.317505,0.927002,516
24725369,9999,-0.175171,-0.323853,0.923096,512
24739691,14322,-0.174683,-0.323120,0.920288,515
24750294,10603,-0.181763,-0.318970,0.921997,513
24756966,6672,0.000000,0.000000,0.000000,513
24765353,8387,-0.182983,-0.321167,0.925903,515
24775351,9998,-0.183105,-0.324951,0.929321,507
24785357,10006,-0.177856,-0.330688,0.930298,514
24795363,10006,-0.176758,-0.325684,0.929810,513
24805350,9987,-0.177124,-0.319702,0.929077,511
24815351,10001,-0.176636,-0.315918,0.929687,513
24825360,10009,-0.176758,-0.316040,0.928955,516
24835349,9989,-0.173462,-0.319214,0.924927,513
24845343,9994,-0.172852,-0.319824,0.924316,513
24855348,10005,-0.174316,-0.318237,0.925659,510
24865344,9996,-0.177734,-0.318726,0.925537,513
24875369,10025,-0.179565,-0.321533,0.926392,514
24885356,9987,-0.181885,-0.323120,0.924316,516
24895360,10004,-0.180176,-0.322021,0.924194,509
24905362,10002,-0.179443,-0.321411,0.922729,507
24915350,9988,-0.178833,-0.318726,0.921631,517
24925372,10022,-0.179565,-0.316406,0.921021,508
24935354,9982,-0.178345,-0.316650,0.921875,512
24945363,10009,-0.175659,-0.316162,0.918823,516
24955348,9985,-0.176392,-0.312256,0.917725,513
24966990,11642,-0.178101,-0.311401,0.919678,515
24976639,9649,-0.180054,-0.314575,0.923218,509
24985359,8720,-0.179810,-0.319946,0.925049,512
24995367,10008,-0.179687,-0.328491,0.926880,515
25005356,9989,-0.178223,-0.324829,0.925293,514
25015343,9987,-0.178223,-0.318726,0.926147,517
25025357,10014,-0.178223,-0.315552,0.927734,513
25035352,9995,-0.176636,-0.317627,0.927856,512
25045364,10012,-0.177856,-0.319458,0.927856,510
25055351,9987,-0.173706,-0.324707,0.925537,506
25065371,10020,-0.174561,-0.323242,0.923950,514
25075355,9984,-0.174805,-0.316528,0.922852,511
25085372,10017,-0.179077,-0.309937,0.924683,513
25095347,9975,-0.181030,-0.310425,0.928955,512
25105366,10019,-0.180420,-0.327026,0.929321,506
25115370,10004,-0.176636,-0.333252,0.927002,515
25125373,10003,-0.174194,-0.333618,0.922241,528
25135367,9994,-0.174194,-0.326538,0.920532,509
25145344,9977,-0.177734,-0.315796,0.921143,513
25155350,10006,-0.180176,-0.312622,0.925903,514
25165364,10014,-0.179932,-0.317505,0.926880,511
25175364,10000,-0.177368,-0.320190,0.927979,514
25185347,9983,-0.175293,-0.322144,0.925537,514
25195361,10014,-0.175171,-0.322754,0.922729,506
25205346,9985,-0.175781,-0.321045,0.922607,514
25215359,10013,-0.175781,-0.322388,0.921021,511
25225356,9997,-0.175537,-0.322876,0.921387,516
25235347,9991,-0.177856,-0.319336,0.924927,513
25245491,10144,-0.182129,-0.313599,0.931030,514
25255360,9869,-0.187378,-0.317383,0.935547,513
25265351,9991,-0.184204,-0.332275,0.932861,514
25275405,10054,-0.178345,-0.329346,0.925781,505
25285357,9952,-0.171997,-0.324951,0.917969,513
25295349,9992,-0.168701,-0.315186,0.911621,514
25305370,10021,-0.171509,-0.306763,0.912964,512
25315359,9989,-0.176758,-0.302490,0.923828,514
25325362,10003,-0.182739,-0.319702,0.930420,514
25335360,9998,-0.179810,-0.333008,0.933350,512
25345370,10010,-0.175293,-0.340698,0.931152,508
25355364,9994,-0.172852,-0.333130,0.927979,513
25365352,9988,-0.173340,-0.320679,0.924927,513
25375364,10012,-0.180420,-0.311523,0.922363,506
25385358,9994,-0.179565,-0.317139,0.922729,508
25395347,9989,-0.176880,-0.323242,0.923584,514
25405356,10009,-0.174072,-0.325439,0.922119,509
25415368,10012,-0.176270,-0.318726,0.922241,508
25425360,9992,-0.181030,-0.314575,0.927612,511
25435402,10042,-0.180664,-0.320435,0.930420,507
25445376,9974,-0.179321,-0.326660,0.928589,515
25455350,9974,-0.176514,-0.326172,0.925659,514
25469367,14017,-0.176270,-0.318604,0.920288,516
25477229,7862,-0.177002,-0.317139,0.923096,517
25485371,8142,-0.177979,-0.317993,0.924072,517
25495354,9983,-0.178467,-0.319946,0.926636,516
25505349,9995,-0.177856,-0.321411,0.926636,521
25515361,10012,-0.175781,-0.322754,0.925903,519
25525364,10003,-0.175781,-0.319702,0.924561,518
25535360,9996,-0.180420,-0.316406,0.923340,520
25545351,9991,-0.180664,-0.318481,0.923584,513
25555352,10001,-0.178589,-0.321777,0.925537,517
25565356,10004,-0.176636,-0.323242,0.927612,509
25575360,10004,-0.176147,-0.322754,0.926147,515
25585356,9996,-0.176270,-0.320679,0.923828,515
25595376,10020,-0.179077,-0.317383,0.927368,515
25605367,9991,-0.179443,-0.321289,0.929077,507
25615368,10001,-0.179443,-0.324097,0.929321,515
25625365,9997,-0.176636,-0.326050,0.927368,508
25635346,9981,-0.175293,-0.323486,0.925049,507
25645365,10019,-0.174927,-0.314697,0.921753,514
25660093,14728,-0.176758,-0.314209,0.921753,513
25667156,7063,-0.179077,-0.315918,0.922729,511
25678367,11211,-0.179321,-0.325928,0.927124,516
25686013,7646,0.000000,0.000000,0.000000,513
25695368,9355,-0.177368,-0.329834,0.926270,510
25705347,9979,-0.179565,-0.325317,0.925049,507
25715350,10003,-0.178955,-0.318237,0.926758,512
25725353,10003,-0.179565,-0.315796,0.926392,515
25735360,10007,-0.178345,-0.318115,0.925049,513
25745359,9999,-0.177124,-0.318481,0.922363,513
25755375,10016,-0.176147,-0.316528,0.921875,515
25765363,9988,-0.174805,-0.319092,0.922119,506
25775346,9983,-0.177490,-0.320435,0.922607,515
25785371,10025,-0.179565,-0.322021,0.923828,514
25795371,10000,-0.178345,-0.324707,0.925659,515
25805345,9974,-0.177490,-0.324463,0.926880,510
25815351,10006,-0.178467,-0.323242,0.926514,514
25825372,10021,-0.177979,-0.320923,0.927002,514
25835370,9998,-0.176514,-0.320313,0.927246,513
25845367,9997,-0.176636,-0.320190,0.927612,513
25855362,9995,-0.176147,-0.320068,0.926758,514
25869608,14246,-0.174072,-0.319946,0.924316,514
25881001,11393,-0.176392,-0.317139,0.925781,508
25890711,9710,-0.179443,-0.320190,0.925659,514
25896438,5727,0.000000,0.000000,0.000000,515
25905355,8917,-0.180054,-0.323975,0.925781,506
25915383,10028,-0.176636,-0.325317,0.924194,512
25925344,9961,-0.176392,-0.323853,0.922363,515
25935348,10004,-0.177368,-0.322510,0.921997,514
25945354,10006,-0.177368,-0.320801,0.921387,505
25957820,12466,-0.178223,-0.319336,0.925537,514
25965832,8012,0.000000,0.000000,0.000000,512
25975372,9540,-0.176636,-0.320557,0.926025,514
25985358,9986,-0.176514,-0.320068,0.927124,514
25995347,9989,-0.178101,-0.320190,0.925537,508
26005351,10004,-0.178223,-0.322876,0.926758,513
26015359,10008,-0.176025,-0.323730,0.926270,514
26025350,9991,-0.177002,-0.323486,0.923462,511
26035350,10000,-0.176270,-0.323608,0.923584,516
26045364,10014,-0.177612,-0.323120,0.923340,513
26055360,9996,-0.177490,-0.323608,0.922974,514
26070222,14862,-0.176758,-0.320313,0.925171,513
26080490,10268,-0.177246,-0.321167,0.925781,510
26087900,7410,-0.177124,-0.322876,0.926758,514
26095371,7471,-0.176636,-0.324341,0.927124,505
26105367,9996,-0.176270,-0.322510,0.926270,507
26115364,9997,-0.176147,-0.323730,0.926758,514
26125346,9982,-0.176758,-0.322998,0.925659,515
26135353,10007,-0.178467,-0.318726,0.921143,513
26145348,9995,-0.178345,-0.319458,0.921509,506
26155372,10024,-0.177979,-0.319580,0.921875,516
26165346,9974,-0.177856,-0.321167,0.922852,515
26175352,10006,-0.177368,-0.324585,0.925049,508
26185372,10020,-0.177002,-0.328003,0.924316,513
26195346,9974,-0.174805,-0.325195,0.922852,511
26205366,10020,-0.173096,-0.320435,0.920410,517
26215368,10002,-0.172974,-0.316284,0.921875,508
26225368,10000,-0.173340,-0.313354,0.923340,509
26235350,9982,-0.177124,-0.313965,0.925293,514
26245406,10056,-0.179443,-0.322388,0.927124,510
26255379,9973,-0.177979,-0.329224,0.928101,514
26265353,9974,-0.177612,-0.328857,0.926880,515
26275370,10017,-0.178223,-0.328735,0.926880,514
26285932,10562,-0.179810,-0.328613,0.926025,515
26295358,9426,-0.177856,-0.320801,0.923340,515
26305350,9992,-0.175659,-0.318604,0.921387,510
26315352,10002,-0.172729,-0.318604,0.920288,517
26325349,9997,-0.171387,-0.317627,0.918823,512
26335359,10010,-0.173828,-0.314819,0.922119,516
26345369,10010,-0.187256,-0.310791,0.922852,517
26355355,9986,-0.176147,-0.322632,0.936157,517
26365351,9996,-0.176392,-0.345581,0.933838,515
26375361,10010,-0.179932,-0.331299,0.927979,517
26386927,11566,-0.169434,-0.326294,0.926025,517
26395363,8436,-0.175293,-0.328735,0.930298,518
26405368,10005,-0.174561,-0.323364,0.920654,511
26415387,10019,-0.178101,-0.322144,0.921631,515
26425344,9957,-0.180054,-0.317139,0.924683,509
26435357,10013,-0.180054,-0.314209,0.927002,514
26445353,9996,-0.180176,-0.317993,0.928101,514
26455364,10011,-0.180664,-0.321167,0.931885,510
26471156,15792,-0.178101,-0.329712,0.931274,516
26480697,9541,-0.169434,-0.337280,0.918579,515
26487240,6543,0.000000,0.000000,0.000000,515
26495354,8114,-0.168701,-0.326904,0.912109,512
26505344,9990,-0.170288,-0.315674,0.915039,507
26515348,10004,-0.179199,-0.307373,0.921997,517
26525354,10006,-0.180664,-0.311157,0.928833,510
26535343,9989,-0.177368,-0.319092,0.932373,515
26545352,10009,-0.176392,-0.327759,0.933350,514
26555369,10017,-0.176025,-0.332031,0.931152,515
26565395,10026,-0.177734,-0.331909,0.924194,512
26575377,9982,-0.178223,-0.330444,0.922729,514
26585557,10180,-0.177490,-0.327148,0.920410,514
26595362,9805,-0.175903,-0.320557,0.919067,514
26605366,10004,-0.174561,-0.313965,0.918091,516
26615352,9986,-0.176392,-0.310547,0.922729,512
26625349,9997,-0.177002,-0.315552,0.927002,515
26635358,10009,-0.177490,-0.324219,0.930054,515
26645361,10003,-0.177246,-0.330688,0.930908,514
26655372,10011,-0.175781,-0.336182,0.929199,513
26665479,10107,-0.172119,-0.336182,0.925659,513
26675361,9882,-0.176147,-0.320068,0.920654,514
26687095,11734,-0.177856,-0.316406,0.920532,514
26695345,8250,-0.179321,-0.314941,0.922607,509
26705362,10017,-0.179321,-0.318604,0.924805,506
26715345,9983,-0.177246,-0.322266,0.923706,512
26725393,10048,-0.173462,-0.323364,0.923096,514
26735355,9962,-0.173096,-0.324219,0.923462,512
26745357,10002,-0.174561,-0.325684,0.924316,515
26755355,9998,-0.177368,-0.326050,0.923462,507
26765370,10015,-0.178589,-0.326050,0.925049,511
26775344,9974,-0.178833,-0.327148,0.923462,514
26787640,12296,-0.178345,-0.321167,0.924683,513
26795344,7704,-0.177124,-0.320313,0.924683,507
26805356,10012,-0.176025,-0.320801,0.925171,515
26815348,9992,-0.175659,-0.321045,0.925903,515
26825360,10012,-0.175659,-0.322876,0.924561,512
26835357,9997,-0.176270,-0.326538,0.925293,511
26845346,9989,-0.175903,-0.324097,0.926392,507
26855365,10019,-0.176880,-0.324707,0.926270,513
26865344,9979,-0.176880,-0.325928,0.926270,509
26875367,10023,-0.176392,-0.324341,0.925171,506
26887634,12267,-0.177612,-0.319336,0.923096,512
26895351,7717,-0.176880,-0.320679,0.923218,514
26905363,10012,-0.176758,-0.323853,0.923096,513
26915359,9996,-0.176025,-0.325806,0.922729,514
26925350,9991,-0.176270,-0.325928,0.920776,509
26935363,10013,-0.175415,-0.326904,0.919922,513
26945353,9990,-0.175903,-0.319458,0.925049,508
26955355,10002,-0.176270,-0.317383,0.928467,510
26965353,9998,-0.177856,-0.319214,0.930054,511
26975344,9991,-0.177979,-0.325317,0.931274,514
26988082,12738,-0.174438,-0.329346,0.925293,511
26997969,9887,-0.174194,-0.327026,0.921509,512
27007022,9053,-0.175537,-0.323730,0.921021,513
27015369,8347,-0.177612,-0.319946,0.920532,514
27025357,9988,-0.178955,-0.318604,0.922852,514
27035362,10005,-0.180298,-0.320923,0.925049,510
27045372,10010,-0.179810,-0.324829,0.926514,514
27055398,10026,-0.176636,-0.325439,0.927979,516
27065367,9969,-0.176636,-0.323242,0.927124,509
27075345,9978,-0.175659,-0.321899,0.925415,509
27085368,10023,-0.175659,-0.324219,0.924072,511
27095367,9999,-0.174683,-0.326660,0.922485,517
27105361,9994,-0.177368,-0.323364,0.917603,518
27115363,10002,-0.178345,-0.319946,0.916504,517
27125345,9982,-0.180054,-0.317749,0.917603,513
27135354,10009,-0.177490,-0.319702,0.919678,514
27145362,10008,-0.176147,-0.323730,0.922852,517
27155352,9990,-0.176025,-0.325439,0.923096,510
27165357,10005,-0.177734,-0.322266,0.922607,518
27175356,9999,-0.178467,-0.318115,0.919922,515
27185357,10001,-0.180542,-0.314819,0.920288,515
27195359,10002,-0.179077,-0.316772,0.921143,510
27205357,9998,-0.177734,-0.323608,0.923950,517
27215367,10010,-0.177979,-0.334595,0.931885,507
27225391,10024,-0.179321,-0.337402,0.934448,516
27235369,9978,-0.179199,-0.336670,0.935425,514
27245351,9982,-0.177368,-0.330444,0.933228,514
27255355,10004,-0.174805,-0.321899,0.929932,516
27265351,9996,-0.167725,-0.310059,0.920288,507
27275349,9998,-0.167603,-0.309692,0.920044,507
27297202,21853,-0.177246,-0.318237,0.921997,515
27304924,7722,-0.181885,-0.325928,0.926025,514
27311446,6522,-0.184204,-0.333252,0.927856,508
27317062,5616,-0.183838,-0.336670,0.928345,507
27325370,8308,-0.182861,-0.334595,0.927124,513
27335348,9978,-0.181152,-0.328735,0.925049,516
27345346,9998,-0.178833,-0.321289,0.921631,512
27355348,10002,-0.175781,-0.314697,0.919800,515
27365347,9999,-0.173706,-0.312256,0.918457,517
27375353,10006,-0.170654,-0.310303,0.923706,516
27386508,11155,-0.173828,-0.314941,0.926514,512
27395378,8870,-0.176025,-0.319824,0.926270,515
27407447,12069,-0.178223,-0.324341,0.923096,510
27415345,7898,-0.179687,-0.325562,0.925171,508
27425351,10006,-0.180664,-0.327148,0.925903,516
27435359,10008,-0.180176,-0.331543,0.923584,514
27445364,10005,-0.180786,-0.328247,0.920654,511
27455365,10001,-0.181274,-0.319580,0.919922,515
27465354,9989,-0.178345,-0.315063,0.922363,515
27475370,10016,-0.178345,-0.317383,0.926025,509
27485346,9976,-0.175903,-0.316772,0.923096,516
27495358,10012,-0.174683,-0.311157,0.925537,514
27505350,9992,-0.171753,-0.316650,0.928345,516
27515359,10009,-0.171021,-0.328979,0.929321,514
27525371,10012,-0.171631,-0.333740,0.927246,515
27535344,9973,-0.174561,-0.320557,0.926514,512
27545360,10016,-0.179443,-0.318604,0.927124,515
27555350,9990,-0.179810,-0.323608,0.927246,506
27565351,10001,-0.179443,-0.327271,0.925903,513
27575365,10014,-0.178833,-0.326538,0.922363,510
27585371,10006,-0.178101,-0.322876,0.921997,513
27600588,15217,-0.180664,-0.319458,0.923218,508
27609109,8521,-0.182739,-0.319336,0.922974,512
27615359,6250,-0.181763,-0.319824,0.922241,513
27625356,9997,-0.178101,-0.317993,0.920166,507
27635349,9993,-0.176025,-0.318726,0.919922,511
27645350,10001,-0.175903,-0.321777,0.923584,515
27655369,10019,-0.179077,-0.321289,0.929443,512
27665344,9975,-0.179810,-0.324463,0.933472,513
27675360,10016,-0.178101,-0.328369,0.932861,515
27685369,10009,-0.175415,-0.328979,0.930908,510
27695358,9989,-0.172607,-0.324707,0.928345,516
27705364,10006,-0.169067,-0.320435,0.923096,516
27715372,10008,-0.172852,-0.314087,0.922852,510
27725384,10012,-0.174072,-0.315918,0.924194,511
27735352,9968,-0.183472,-0.315674,0.933350,511
27745355,10003,-0.178223,-0.326782,0.935913,516
27755372,10017,-0.178833,-0.333374,0.926758,515
27765356,9984,-0.176147,-0.325684,0.923706,516
27775361,10005,-0.177856,-0.315674,0.920044,517
27785370,10009,-0.173828,-0.313354,0.922363,508
27795349,9979,-0.173096,-0.318115,0.921753,518
27805356,10007,-0.173584,-0.292114,0.926270,511
27815346,9990,-0.169922,-0.322510,0.932617,518
27825348,10002,-0.184814,-0.325073,0.927490,517
27835347,9999,-0.171021,-0.328857,0.927856,518
27845343,9996,-0.175903,-0.324585,0.928223,519
27855357,10014,-0.171997,-0.317383,0.917847,516
27865356,9999,-0.170532,-0.320435,0.926758,510
27875361,10005,-0.185547,-0.322266,0.921631,513
27885344,9983,-0.177368,-0.325073,0.922852,512
27895376,10032,-0.179810,-0.323608,0.911377,514
27905366,9990,-0.185425,-0.311157,0.920166,516
27915359,9993,-0.186035,-0.318115,0.921143,517
27925347,9988,-0.173950,-0.323120,0.927002,513
27935343,9996,-0.179077,-0.322388,0.920044,508
27945349,10006,-0.172852,-0.321045,0.924927,516
27955355,10006,-0.172485,-0.321411,0.923706,515
27965363,10008,-0.171509,-0.322510,0.930420,512
27975367,10004,-0.177612,-0.328125,0.932129,513
27985346,9979,-0.174072,-0.327759,0.934692,515
27997012,11666,-0.172852,-0.324463,0.930786,509
28005372,8360,-0.169922,-0.317993,0.928711,510
28015366,9994,-0.173340,-0.311768,0.924561,515
28025372,10006,-0.179321,-0.311890,0.923340,510
28035367,9995,-0.179077,-0.320190,0.923706,515
28045362,9995,-0.178589,-0.327881,0.920288,512
28055360,9998,-0.175781,-0.332153,0.919067,509
28065348,9988,-0.179077,-0.326538,0.917969,515
28075355,10007,-0.180054,-0.318359,0.920898,515
28085365,10010,-0.182495,-0.317383,0.924561,507
28095368,10003,-0.183105,-0.320068,0.929077,514
28105368,10000,-0.175659,-0.322998,0.928833,516
28120210,14842,-0.171143,-0.321655,0.926758,508
28126587,6377,0.000000,0.000000,0.000000,513
28135365,8778,-0.172974,-0.321289,0.926392,515
28145344,9979,-0.174072,-0.320923,0.927612,513
28155370,10026,-0.176758,-0.321777,0.926880,515
28165359,9989,-0.175537,-0.321167,0.927612,516
28175343,9984,-0.173584,-0.321411,0.927734,512
28185359,10016,-0.176025,-0.320923,0.923706,514
28195372,10013,-0.179321,-0.317505,0.923096,508
28205370,9998,-0.178711,-0.317993,0.923462,509
28215354,9984,-0.177612,-0.321411,0.925171,512
28225382,10028,-0.176025,-0.325195,0.923340,505
28235381,9999,-0.175903,-0.328857,0.923584,511
28245368,9987,-0.173584,-0.324585,0.927368,516
28255368,10000,-0.177979,-0.321655,0.928467,513
28265353,9985,-0.176758,-0.321899,0.929932,514
28275353,10000,-0.179321,-0.323120,0.929565,506
28285364,10011,-0.176880,-0.320313,0.930542,514
28295347,9983,-0.174683,-0.321167,0.925903,505
28305350,10003,-0.173218,-0.326294,0.920288,513
28317786,12436,-0.173218,-0.324951,0.918457,509
28325356,7570,-0.171753,-0.321655,0.915405,513
28335365,10009,-0.174561,-0.316162,0.915527,506
28345368,10003,-0.177002,-0.315918,0.918701,513
28355347,9979,-0.181152,-0.319824,0.926147,508
28365358,10011,-0.181274,-0.318481,0.927002,507
28375360,10002,-0.179932,-0.318481,0.927002,513
28385368,10008,-0.177856,-0.321899,0.922729,514
28395362,9994,-0.178101,-0.321899,0.916260,506
28406653,11291,-0.180542,-0.318481,0.914673,512
28420272,13619,-0.179687,-0.317627,0.917480,501
28427900,7628,-0.179565,-0.316895,0.922241,513
28435361,7461,-0.179687,-0.317871,0.928345,514
28445371,10010,-0.177490,-0.320801,0.930664,513
28455345,9974,-0.177002,-0.322876,0.937988,514
28465367,10022,-0.175537,-0.324097,0.938965,514
28475355,9988,-0.172241,-0.328613,0.938965,510
28485348,9993,-0.169189,-0.331909,0.937744,510
28496984,11636,-0.166382,-0.333984,0.933350,516
28505350,8366,-0.166626,-0.329712,0.925659,515
28516918,11568,-0.173584,-0.314697,0.920044,509
28525360,8442,-0.177734,-0.313354,0.921143,517
28535358,9998,-0.182983,-0.312988,0.923340,516
28545372,10014,-0.184814,-0.316772,0.926636,510
28555345,9973,-0.182617,-0.322754,0.926147,516
28565399,10054,-0.175537,-0.329468,0.922119,519
28575350,9951,-0.181641,-0.317383,0.926025,516
28585366,10016,-0.174805,-0.323975,0.927124,513
28595372,10006,-0.179932,-0.326416,0.919556,519
28605371,9999,-0.175537,-0.321899,0.913086,510
28615347,9976,-0.179932,-0.308594,0.914673,516
28625363,10016,-0.178955,-0.317993,0.921021,518
28635355,9992,-0.175781,-0.331299,0.924072,511
28645346,9991,-0.182617,-0.327148,0.926636,513
28655372,10026,-0.179565,-0.317749,0.928711,515
28665364,9992,-0.179565,-0.314453,0.932983,507
28675350,9986,-0.148682,-0.353271,0.921753,510
28685372,10022,-0.167114,-0.327881,0.880615,513
28695348,9976,-0.189819,-0.250122,0.928345,515
28705358,10010,-0.179077,-0.284058,0.957397,514
28723889,18531,-0.184570,-0.387451,0.959473,515
28730871,6982,-0.180664,-0.368530,0.920288,507
28736575,5704,-0.163208,-0.311768,0.904663,512
28745355,8780,-0.151489,-0.286743,0.892700,516
28755369,10014,-0.162109,-0.297119,0.900635,509
28765352,9983,-0.172363,-0.307983,0.911865,514
28775349,9997,-0.197388,-0.300293,0.919922,509
28785348,9999,-0.181152,-0.331055,0.939087,513
28795354,10006,-0.169189,-0.352661,0.939819,511
28805372,10018,-0.156250,-0.357178,0.937012,516
28815370,9998,-0.173096,-0.336304,0.925415,512
28827724,12354,-0.188477,-0.293335,0.928223,516
28835358,7634,0.000000,0.000000,0.000000,514
28845349,9991,-0.170288,-0.330933,0.930542,506
28855359,10010,-0.160400,-0.342651,0.916260,507
28865366,10007,-0.160156,-0.326904,0.905273,514
28875358,9992,-0.162720,-0.302490,0.903931,512
28885366,10008,-0.170776,-0.300049,0.907959,515
28895361,9995,-0.194580,-0.309204,0.953857,514
28905360,9999,-0.192993,-0.337891,0.965088,514
28915370,10010,-0.190918,-0.356323,0.961426,507
28925345,9975,-0.174316,-0.359375,0.939819,507
28935347,10002,-0.165161,-0.345093,0.908691,514
28945362,10015,-0.161133,-0.287354,0.895508,513
28955357,9995,-0.172485,-0.283203,0.910034,506
28965344,9987,-0.176270,-0.295532,0.925903,506
28975371,10027,-0.183716,-0.311279,0.935303,513
28985360,9989,-0.177002,-0.328857,0.936035,516
28995364,10004,-0.174072,-0.337769,0.928711,507
29009735,14371,-0.172485,-0.329346,0.932007,508
29019794,10059,-0.180298,-0.329712,0.931763,514
29027146,7352,-0.180664,-0.321411,0.929687,505
29035357,8211,-0.178955,-0.314453,0.922119,513
29045369,10012,-0.168335,-0.319458,0.918213,512
29055351,9982,-0.167480,-0.313354,0.915649,514
29065343,9992,-0.178711,-0.308228,0.916016,509
29075361,10018,-0.183838,-0.306030,0.922485,512
29085356,9995,-0.187622,-0.313110,0.928711,512
29095353,9997,-0.179687,-0.327759,0.932495,513
29105354,10001,-0.172852,-0.338501,0.919067,506
29115362,10008,-0.174683,-0.313354,0.916870,513
29125350,9988,-0.180054,-0.308105,0.918945,512
29135836,10486,-0.183716,-0.315308,0.925537,507
29145349,9513,-0.180176,-0.328247,0.931396,511
29155348,9999,-0.173096,-0.336060,0.932983,513
29165345,9997,-0.168213,-0.314331,0.930908,504
29175347,10002,-0.176392,-0.303101,0.932373,513
29185353,10006,-0.177734,-0.308838,0.934692,514
29195356,10003,-0.180420,-0.319824,0.931030,512
29205348,9992,-0.176147,-0.327637,0.925171,516
29218361,13013,-0.164062,-0.328735,0.911987,513
29225351,6990,-0.165894,-0.320557,0.913330,513
29235395,10044,-0.173584,-0.319702,0.917847,511
29245367,9972,-0.184326,-0.317261,0.925659,513
29255367,10000,-0.190918,-0.316406,0.934326,515
29265350,9983,-0.186646,-0.326050,0.940918,515
29275350,10000,-0.174194,-0.335449,0.932007,517
29285353,10003,-0.170288,-0.326782,0.927124,516
29295357,10004,-0.171631,-0.316040,0.919678,519
29305359,10002,-0.173584,-0.306519,0.918457,517
29315349,9990,-0.174316,-0.307007,0.918579,518
29325362,10013,-0.173218,-0.320679,0.917969,520
29337429,12067,-0.176025,-0.319946,0.918335,513
29345364,7935,-0.178345,-0.318604,0.920288,516
29355361,9997,-0.183960,-0.318115,0.926147,518
29365363,10002,-0.185913,-0.322998,0.930054,513
29375366,10003,-0.183838,-0.333008,0.929321,512
29385346,9980,-0.174561,-0.326172,0.917969,518
29395360,10014,-0.171753,-0.318359,0.915039,515
29405361,10001,-0.173462,-0.311646,0.915039,512
29415382,10021,-0.176514,-0.310669,0.921875,517
29425364,9982,-0.178589,-0.316528,0.926636,515
29435348,9984,-0.175903,-0.325317,0.932617,515
29445359,10011,-0.172729,-0.326172,0.935059,514
29455367,10008,-0.170898,-0.325928,0.935425,515
29465346,9979,-0.174561,-0.321899,0.933716,514
29475371,10025,-0.174316,-0.319458,0.932007,509
29485353,9982,-0.175171,-0.323242,0.925659,511
29495350,9997,-0.172241,-0.325684,0.922974,506
29505368,10018,-0.172363,-0.321167,0.919800,516
29515366,9998,-0.174316,-0.317505,0.919800,514
29525365,9999,-0.180542,-0.313354,0.922485,508
29535349,9984,-0.182617,-0.314697,0.926636,508
29545366,10017,-0.179077,-0.326172,0.925659,514
29555346,9980,-0.176880,-0.326050,0.922974,512
29565363,10017,-0.171997,-0.323242,0.923096,513
29575371,10008,-0.170654,-0.321411,0.923462,520
29585350,9979,-0.173340,-0.318237,0.925537,508
29595348,9998,-0.177979,-0.319580,0.926636,515
29605384,10036,-0.177124,-0.321167,0.926514,507
29615344,9960,-0.177002,-0.321655,0.926514,514
29625346,10002,-0.176880,-0.320190,0.925171,509
29637306,11960,-0.176270,-0.319824,0.924805,516
29645362,8056,0.000000,0.000000,0.000000,513
29655358,9996,-0.175903,-0.323242,0.924072,507
29665356,9998,-0.173828,-0.321533,0.925171,506
29675353,9997,-0.174561,-0.321289,0.924316,512
29685370,10017,-0.175781,-0.318726,0.925293,507
29695355,9985,-0.177612,-0.316772,0.927734,509
29705362,10007,-0.175049,-0.325562,0.929199,510
29715353,9991,-0.174072,-0.325195,0.929199,512
29728982,13629,-0.175171,-0.322510,0.926880,514
29735358,6376,-0.174927,-0.318848,0.925781,514
29745365,10007,-0.174561,-0.317871,0.927124,513
29755354,9989,-0.176270,-0.316528,0.926636,510
29765349,9995,-0.174194,-0.321777,0.922485,514
29775396,10047,-0.174683,-0.319946,0.921997,515
29785354,9958,-0.176025,-0.318359,0.922241,511
29795368,10014,-0.177490,-0.317261,0.923950,510
29805366,9998,-0.180176,-0.318604,0.923950,513
29816427,11061,-0.177124,-0.326294,0.925537,505
29825354,8927,-0.176636,-0.325439,0.924805,511
29835362,10008,-0.175293,-0.323608,0.922852,513
29845351,9989,-0.174316,-0.321899,0.922852,509
29855366,10015,-0.176636,-0.318481,0.922363,513
29865351,9985,-0.177368,-0.314941,0.925537,514
29875346,9995,-0.174927,-0.316162,0.926270,514
29885366,10020,-0.173096,-0.318848,0.927124,505
29895344,9978,-0.174561,-0.321289,0.927979,513
29905369,10025,-0.174438,-0.322266,0.928589,514
29915363,9994,-0.175415,-0.321533,0.929565,512
29925362,9999,-0.175903,-0.327271,0.929810,515
29935371,10009,-0.175903,-0.325806,0.927856,507
29945349,9978,-0.174438,-0.320801,0.925903,512
29955378,10029,-0.176270,-0.315186,0.923828,515
29965367,9989,-0.176270,-0.310425,0.922974,509
29975368,10001,-0.177124,-0.313599,0.921509,509
29985367,9999,-0.177002,-0.319702,0.921631,510
29995370,10003,-0.177612,-0.325317,0.921753,515
30005349,9979,-0.177246,-0.326172,0.922607,515
30015344,9995,-0.178467,-0.326660,0.925171,514
30025363,10019,-0.178589,-0.325684,0.928345,507
30038314,12951,-0.177124,-0.320435,0.930054,514
30045368,7054,-0.175781,-0.318115,0.925903,517
30055347,9979,-0.173828,-0.315063,0.921875,511
30065347,10000,-0.172241,-0.312012,0.920166,516
30075348,10001,-0.172363,-0.311768,0.921265,516
30085364,10016,-0.175659,-0.321777,0.928955,517
30095350,9986,-0.175659,-0.329712,0.935059,519
30105353,10003,-0.178467,-0.334961,0.935669,520
30115351,9998,-0.177612,-0.334473,0.937378,516
30125346,9995,-0.178833,-0.329224,0.933594,517
30135365,10019,-0.178467,-0.321289,0.929199,513
30145349,9984,-0.177856,-0.309204,0.919556,517
30155345,9996,-0.176514,-0.309937,0.917236,514
30165358,10013,-0.174316,-0.311890,0.918213,517
30175358,10000,-0.173950,-0.316650,0.922119,515
30185361,10003,-0.176025,-0.323730,0.926270,515
30195372,10011,-0.179932,-0.329224,0.930420,515
30205356,9984,-0.178223,-0.328857,0.929810,513
30215345,9989,-0.177490,-0.325439,0.928223,511
30225362,10017,-0.176025,-0.317749,0.926636,509
30235361,9999,-0.173950,-0.314209,0.924805,512
30245355,9994,-0.175903,-0.313354,0.921997,515
30255357,10002,-0.176758,-0.313843,0.919556,517
30265967,10610,-0.177734,-0.314819,0.919922,513
30275360,9393,-0.178955,-0.317627,0.921265,516
30285362,10002,-0.179077,-0.321899,0.922729,512
30295358,9996,-0.179443,-0.324585,0.922119,509
30305368,10010,-0.181030,-0.324707,0.921753,509
30315369,10001,-0.179932,-0.320435,0.923462,513
30325364,9995,-0.177124,-0.318848,0.923828,510
30335354,9990,-0.174805,-0.314087,0.926514,513
30345368,10014,-0.173218,-0.311401,0.929321,510
30355349,9981,-0.170654,-0.318237,0.938232,511
30365373,10024,-0.169800,-0.325562,0.938354,509
30375351,9978,-0.171265,-0.329224,0.936890,507
30385363,10012,-0.172852,-0.325317,0.934326,507
30395366,10003,-0.176025,-0.318481,0.930786,515
30405348,9982,-0.175171,-0.317993,0.928101,513
30415349,10001,-0.184570,-0.309082,0.929687,516
30425359,10010,-0.195068,-0.303223,0.935303,508
30435368,10009,-0.194092,-0.316040,0.957275,515
30445349,9981,-0.173584,-0.364868,0.929443,513
30455368,10019,-0.157227,-0.375610,0.893188,514
30465393,10025,-0.152100,-0.256226,0.857178,516
30475348,9955,-0.169556,-0.214844,0.908691,515
30485349,10001,-0.200073,-0.259399,0.955444,514
30495366,10017,-0.220459,-0.336670,0.979736,513
30505351,9985,-0.213257,-0.381836,0.966675,514
30515369,10018,-0.187622,-0.381958,0.911133,515
30525346,9977,-0.143799,-0.343140,0.907227,506
30535373,10027,-0.153564,-0.316772,0.907593,512
30555262,19889,-0.202515,-0.262085,0.932373,514
30562984,7722,-0.196167,-0.291748,0.945190,512
30570861,7877,-0.171021,-0.343018,0.942749,509
30580831,9970,-0.152100,-0.368774,0.931641,513
30586831,6000,-0.150269,-0.348755,0.916870,513
30595359,8528,-0.167358,-0.307007,0.910889,511
30605365,10006,-0.188354,-0.276978,0.918457,506
30615351,9986,-0.195068,-0.287231,0.933350,513
30625350,9999,-0.160400,-0.354736,0.940918,514
30635357,10007,-0.167114,-0.356323,0.924927,506
30645352,9995,-0.168945,-0.332275,0.912720,508
30655359,10007,-0.178101,-0.306519,0.911133,513
30665360,10001,-0.186157,-0.298584,0.915283,505
30675361,10001,-0.187622,-0.310181,0.924927,514
30685348,9987,-0.170166,-0.330933,0.925293,514
30695371,10023,-0.164185,-0.317017,0.922363,513
30705363,9992,-0.166748,-0.305298,0.921753,507
30715356,9993,-0.177612,-0.304199,0.925781,510
30725344,9988,-0.188721,-0.314453,0.928711,513
30735360,10016,-0.183594,-0.341064,0.928467,510
30745353,9993,-0.172119,-0.341309,0.919922,513
30755356,10003,-0.166748,-0.327271,0.913452,514
30765362,10006,-0.168457,-0.307983,0.910400,514
30775358,9996,-0.177368,-0.295532,0.914795,508
30785359,10001,-0.184448,-0.296021,0.926270,515
30795365,10006,-0.179443,-0.334961,0.942139,509
30805343,9978,-0.171265,-0.344360,0.938721,513
30815365,10022,-0.161743,-0.338745,0.930298,514
30825354,9989,-0.165039,-0.322998,0.921997,508
30835363,10009,-0.172729,-0.305786,0.920288,505
30847750,12387,-0.184570,-0.312622,0.926758,511
30858023,10273,-0.182617,-0.327637,0.930542,508
30865362,7339,-0.175293,-0.336914,0.928589,512
30875347,9985,-0.171753,-0.334106,0.926025,515
30885365,10018,-0.170898,-0.323730,0.923096,508
30895360,9995,-0.174561,-0.281616,0.927246,511
30905343,9983,-0.179932,-0.313721,0.928833,515
30915371,10028,-0.180176,-0.321289,0.926392,511
30925349,9978,-0.173340,-0.326904,0.923828,510
30936177,10828,-0.169556,-0.326050,0.919312,519
30949394,13217,-0.175171,-0.313965,0.922241,519
30956636,7242,-0.178955,-0.315186,0.928345,510
30965387,8751,-0.180542,-0.319458,0.932007,511
30975345,9958,-0.180420,-0.325195,0.932129,518
30985350,10005,-0.175049,-0.329468,0.929810,516
30995368,10018,-0.172363,-0.328857,0.923950,514
31005346,9978,-0.174805,-0.315918,0.919800,509
31015366,10020,-0.178589,-0.313477,0.921997,519
31025371,10005,-0.178223,-0.315796,0.924805,519
31035365,9994,-0.176147,-0.320679,0.925659,517
31045370,10005,-0.171753,-0.322998,0.925171,516
31055352,9982,-0.172485,-0.322876,0.924683,510
31065908,10556,-0.177124,-0.320679,0.925659,516
31075370,9462,-0.180298,-0.323120,0.928223,510
31085363,9993,-0.179932,-0.326294,0.929932,512
31095353,9990,-0.176270,-0.326904,0.929199,505
31105346,9993,-0.170410,-0.323730,0.925171,515
31115360,10014,-0.171997,-0.311523,0.923462,515
31125386,10026,-0.176147,-0.312134,0.927490,510
31135360,9974,-0.178589,-0.318481,0.928955,514
31145350,9990,-0.178955,-0.325195,0.929199,507
31155349,9999,-0.175781,-0.328369,0.929321,509
31165356,10007,-0.173462,-0.329956,0.923218,513
31175350,9994,-0.174316,-0.320557,0.919434,514
31185369,10019,-0.178833,-0.313110,0.921631,513
31195366,9997,-0.180664,-0.311646,0.926147,509
31205361,9995,-0.180664,-0.318726,0.928223,506
31215364,10003,-0.177734,-0.328369,0.926636,512
31225344,9980,-0.170898,-0.319458,0.919189,515
31235368,10024,-0.170898,-0.310913,0.919556,511
31245369,10001,-0.173584,-0.312378,0.923828,516
31255368,9999,-0.176880,-0.317749,0.927612,516
31265361,9993,-0.179443,-0.324463,0.929443,516
31275361,10000,-0.175415,-0.329224,0.924194,513
31285353,9992,-0.172485,-0.325439,0.923462,514
31295370,10017,-0.174438,-0.321045,0.924561,514
31305369,9999,-0.177734,-0.317139,0.922852,513
31315370,10001,-0.179199,-0.315796,0.924683,516
31325357,9987,-0.179077,-0.319946,0.927124,515
31335371,10014,-0.171631,-0.329956,0.926514,513
31345368,9997,-0.171875,-0.325195,0.926636,513
31355370,10002,-0.175293,-0.319824,0.925171,506
31365347,9977,-0.178955,-0.317871,0.926147,513
31375354,10007,-0.177979,-0.320313,0.927246,516
31385367,10013,-0.174194,-0.324097,0.923340,509
31395370,10003,-0.172974,-0.324097,0.923950,505
31405373,10003,-0.173462,-0.322021,0.924194,517
31415344,9971,-0.176147,-0.321777,0.925903,499
31425365,10021,-0.179321,-0.322144,0.927612,506
31435356,9991,-0.179687,-0.325317,0.927856,509
31445371,10015,-0.175537,-0.328125,0.924194,513
31459587,14216,-0.174683,-0.322632,0.921997,513
31465365,5778,-0.175903,-0.317017,0.922363,514
31475346,9981,-0.176880,-0.313721,0.924072,512
31485367,10021,-0.176758,-0.319580,0.926392,514
31495351,9984,-0.180786,-0.328491,0.925659,513
31505365,10014,-0.181641,-0.322510,0.920776,511
31515347,9982,-0.175171,-0.320190,0.921631,515
31525359,10012,-0.171387,-0.323120,0.926147,510
31535351,9992,-0.168213,-0.332886,0.924438,512
31545350,9999,-0.169434,-0.315674,0.913818,514
31555363,10013,-0.182861,-0.293091,0.923950,506
31566263,10900,-0.182373,-0.297607,0.933594,514
31575372,9109,-0.179565,-0.322388,0.937622,506
31585355,9983,-0.176636,-0.340210,0.935913,514
31595349,9994,-0.171265,-0.339478,0.927002,514
31605358,10009,-0.170044,-0.323853,0.915527,514
31615370,10012,-0.174072,-0.323364,0.917480,514
31625377,10007,-0.176025,-0.322876,0.922363,514
31635368,9991,-0.181274,-0.320068,0.928955,508
31645372,10004,-0.180664,-0.319214,0.934204,511
31655358,9986,-0.178345,-0.316772,0.932129,507
31665344,9986,-0.174316,-0.320190,0.930420,510
31675348,10004,-0.173340,-0.326172,0.927490,506
31685349,10001,-0.171997,-0.328613,0.920654,514
31695355,10006,-0.173340,-0.327271,0.915405,514
31705352,9997,-0.173340,-0.321777,0.913330,508
31715371,10019,-0.176392,-0.321899,0.917847,509
31725345,9974,-0.180786,-0.320923,0.921753,516
31735370,10025,-0.183960,-0.317017,0.928101,516
31745348,9978,-0.184326,-0.316406,0.931885,517
31755361,10013,-0.180298,-0.319458,0.934937,510
31765372,10011,-0.171753,-0.329712,0.930420,512
31775368,9996,-0.169312,-0.325928,0.924683,515
31785379,10011,-0.169189,-0.320679,0.919434,519
31795355,9976,-0.171509,-0.317505,0.918823,518
31805359,10004,-0.174316,-0.316772,0.918579,511
31815347,9988,-0.177246,-0.317017,0.925293,514
31825371,10024,-0.178955,-0.318237,0.927490,517
31835364,9993,-0.178101,-0.320557,0.930298,510
31845370,10006,-0.177490,-0.321655,0.928223,515
31855363,9993,-0.175781,-0.322388,0.926147,516
31865361,9998,-0.175659,-0.324707,0.922363,515
31875364,10003,-0.175537,-0.324951,0.921021,508
31885349,9985,-0.175537,-0.325562,0.921143,506
31895350,10001,-0.176025,-0.323730,0.924316,515
31905353,10003,-0.178223,-0.319580,0.926392,514
31915360,10007,-0.178589,-0.314331,0.927368,512
31925367,10007,-0.177002,-0.319458,0.931641,513
31935372,10005,-0.172852,-0.326294,0.931274,504
31945350,9978,-0.170776,-0.330200,0.927490,508
31956790,11440,-0.173340,-0.325073,0.922607,515
31965384,8594,-0.176880,-0.317993,0.922607,515
31975371,9987,-0.178833,-0.314209,0.922974,514
31985379,10008,-0.177246,-0.325195,0.924927,514
31995369,9990,-0.176392,-0.325195,0.923218,513
32005343,9974,-0.176514,-0.322632,0.923218,507
32015347,10004,-0.177124,-0.317261,0.926636,507
32025349,10002,-0.178101,-0.317749,0.928223,496
32035364,10015,-0.177002,-0.325317,0.928589,512
32045359,9995,-0.173584,-0.326904,0.926758,515
32058269,12910,-0.172729,-0.323242,0.923950,517
32065363,7094,-0.172485,-0.320313,0.921509,512
32076938,11575,-0.172729,-0.318359,0.920776,515
32085363,8425,-0.170532,-0.322266,0.917725,516
32095355,9992,-0.181396,-0.309204,0.926514,510
32105367,10012,-0.181519,-0.317627,0.934570,515
32115348,9981,-0.181641,-0.328003,0.932861,515
32125360,10012,-0.179199,-0.330200,0.930664,512
32135368,10008,-0.174438,-0.327271,0.926147,508
32145343,9975,-0.167969,-0.324707,0.917480,511
32155366,10023,-0.170410,-0.327148,0.918579,514
32165357,9991,-0.176392,-0.318848,0.921021,513
32176950,11593,-0.183716,-0.309326,0.927734,506
32185989,9039,-0.183594,-0.310425,0.934082,515
32195346,9357,-0.181641,-0.321289,0.932861,509
32205364,10018,-0.170776,-0.329468,0.927124,513
32215344,9980,-0.171143,-0.324341,0.923218,503
32225372,10028,-0.171631,-0.322144,0.919189,511
32235345,9973,-0.174438,-0.317993,0.918579,505
32245346,10001,-0.178467,-0.314819,0.919800,513
32255366,10020,-0.178101,-0.323242,0.925537,513
32265362,9996,-0.178101,-0.324829,0.925415,514
32275360,9998,-0.176270,-0.320679,0.925293,504
32288827,13467,-0.177979,-0.320190,0.927612,512
32302197,13370,-0.178467,-0.322266,0.927734,513
32311837,9640,-0.175903,-0.325073,0.926758,516
32317473,5636,-0.175415,-0.325439,0.925415,509
32325369,7896,-0.175537,-0.324463,0.922485,513
32335363,9994,-0.176392,-0.321655,0.922485,514
32345345,9982,-0.175293,-0.320435,0.923096,513
32355344,9999,-0.178345,-0.317505,0.925049,509
32365346,10002,-0.177490,-0.317627,0.929443,509
32375371,10025,-0.178833,-0.320068,0.928223,512
32385884,10513,-0.176147,-0.321777,0.928589,511
32395365,9481,-0.173340,-0.323242,0.926636,513
32405356,9991,-0.174805,-0.322021,0.925049,514
32415368,10012,-0.174927,-0.326050,0.922852,514
32425361,9993,-0.176392,-0.323364,0.923584,512
32435355,9994,-0.178101,-0.319580,0.926636,505
32445357,10002,-0.178345,-0.318115,0.926392,513
32455354,9997,-0.178711,-0.319702,0.928589,508
32465373,10019,-0.178345,-0.321655,0.927734,513
32475349,9976,-0.175659,-0.323486,0.923950,508
32485365,10016,-0.175293,-0.322144,0.922363,511
32495372,10007,-0.175659,-0.321045,0.921387,513
32509530,14158,-0.176880,-0.320313,0.922241,518
32515416,5886,0.000000,0.000000,0.000000,508
32525347,9931,-0.177002,-0.320068,0.927002,515
32535347,10000,-0.176147,-0.319336,0.929321,517
32545368,10021,-0.175903,-0.320190,0.931030,516
32555368,10000,-0.176270,-0.321777,0.931030,518
32565349,9981,-0.176880,-0.324219,0.927612,519
32575347,9998,-0.175903,-0.322266,0.921997,518
32601209,25862,-0.177734,-0.318848,0.922241,518
32607760,6551,0.000000,0.000000,0.000000,519
32612240,4480,-0.177612,-0.318726,0.925293,512
32617880,5640,0.000000,0.000000,0.000000,517
32625345,7465,-0.178223,-0.318237,0.925903,511
32635343,9998,-0.177368,-0.321777,0.929199,508
32645347,10004,-0.176636,-0.324341,0.927612,510
32655378,10031,-0.176025,-0.324829,0.926392,513
32665354,9976,-0.176636,-0.322876,0.926636,512
32675372,10018,-0.175659,-0.322754,0.927124,516
32685366,9994,-0.174194,-0.324585,0.925781,515
32695370,10004,-0.174194,-0.318970,0.923096,516
32705359,9989,-0.175171,-0.313843,0.921875,508
32715367,10008,-0.175049,-0.312988,0.922241,516
32725344,9977,-0.175293,-0.315430,0.920898,516
32735343,9999,-0.179077,-0.313599,0.921997,508
32745348,10005,-0.181885,-0.326904,0.937012,516
32755370,10022,-0.182739,-0.343140,0.935303,506
32765357,9987,-0.176147,-0.344727,0.921509,510
32775364,10007,-0.170654,-0.330566,0.918579,512
32785353,9989,-0.170776,-0.309692,0.915161,509
32795353,10000,-0.175171,-0.309692,0.926880,514
32806291,10938,-0.179687,-0.315674,0.926758,511
32815356,9065,-0.180298,-0.313965,0.922974,514
32825371,10015,-0.178101,-0.314819,0.925415,515
32835367,9996,-0.172607,-0.321899,0.923462,515
32845360,9993,-0.174683,-0.328735,0.927612,514
32855362,10002,-0.184692,-0.323242,0.926392,515
32865359,9997,-0.186035,-0.322266,0.929565,513
32875350,9991,-0.179932,-0.327271,0.929810,512
32885356,10006,-0.173828,-0.328369,0.929199,507
32898108,12752,-0.169189,-0.320068,0.919800,506
32905361,7253,0.000000,0.000000,0.000000,511
32915351,9990,-0.176514,-0.301514,0.919678,514
32925372,10021,-0.179077,-0.301880,0.926880,514
32935359,9987,-0.180542,-0.315918,0.932373,512
32945343,9984,-0.177490,-0.331665,0.934326,510
32955349,10006,-0.177612,-0.332764,0.925049,513
32965367,10018,-0.177246,-0.324097,0.920532,510
32975365,9998,-0.177002,-0.318237,0.919556,514
32985355,9990,-0.180542,-0.314087,0.923340,514
32995354,9999,-0.179932,-0.316650,0.924805,512
33005346,9992,-0.178223,-0.317871,0.924805,512
33015352,10006,-0.173462,-0.316650,0.927124,505
33025366,10014,-0.173828,-0.319824,0.926514,514
33035367,10001,-0.174316,-0.323364,0.928223,510
33045367,10000,-0.175171,-0.323608,0.927368,513
33055362,9995,-0.177490,-0.320190,0.927612,514
33065352,9990,-0.178101,-0.322021,0.928711,506
33075368,10016,-0.177246,-0.324219,0.927734,506
33085369,10001,-0.175903,-0.323975,0.925171,505
33095357,9988,-0.177124,-0.317627,0.922485,507
33105344,9987,-0.175781,-0.315430,0.923462,508
33115355,10011,-0.177612,-0.316284,0.925049,513
33125357,10002,-0.178101,-0.323608,0.927734,513
33135400,10043,-0.177612,-0.322998,0.926392,515
33145344,9944,-0.179443,-0.319702,0.926147,510
33155381,10037,-0.176025,-0.318481,0.924438,515
33165348,9967,-0.175903,-0.319336,0.925415,514
33175349,10001,-0.177246,-0.319580,0.926880,508
33185358,10009,-0.176025,-0.318848,0.927612,514
33195356,9998,-0.176636,-0.320923,0.927612,506
33205362,10006,-0.176147,-0.323853,0.926880,512
33215365,10003,-0.176636,-0.324585,0.926270,505
33225355,9990,-0.177490,-0.316772,0.924316,513
33235366,10011,-0.176636,-0.316895,0.924194,512
33245366,10000,-0.176758,-0.316528,0.923828,513
33255366,10000,-0.177246,-0.317017,0.923828,514
33265352,9986,-0.177490,-0.320313,0.925293,507
33275367,10015,-0.178101,-0.322754,0.926147,512
33285347,9980,-0.177734,-0.324585,0.926880,513
33295371,10024,-0.175537,-0.324951,0.926880,506
33305358,9987,-0.175293,-0.322144,0.928955,514
33315372,10014,-0.176392,-0.321045,0.930054,506
33325361,9989,-0.174805,-0.318970,0.928345,517
33335346,9985,-0.175781,-0.317993,0.924805,516
33345350,10004,-0.175049,-0.318237,0.924561,516
33355372,10022,-0.175171,-0.320068,0.925171,514
33365372,10000,-0.176147,-0.320679,0.925171,518
33375358,9986,-0.177734,-0.321533,0.922974,516
33385357,9999,-0.176758,-0.320313,0.923218,514
33395367,10010,-0.179077,-0.320190,0.924927,526
33405345,9978,-0.178345,-0.320313,0.922852,514
33415369,10024,-0.179199,-0.319214,0.922852,518
33425346,9977,-0.178955,-0.318726,0.924316,518
33435358,10012,-0.176514,-0.319458,0.926025,517
33445359,10001,-0.174072,-0.322754,0.926880,514
33455351,9992,-0.175537,-0.322021,0.926636,512
33465352,10001,-0.175903,-0.318970,0.924683,510
33475373,10021,-0.175415,-0.317749,0.923950,515
33485343,9970,-0.180176,-0.313965,0.929199,516
33495373,10030,-0.172852,-0.322266,0.927856,517
33505385,10012,-0.174927,-0.323120,0.922729,516
33515368,9983,-0.172607,-0.318115,0.922485,516
33525369,10001,-0.176758,-0.313843,0.924561,515
33535365,9996,-0.180664,-0.313721,0.930054,513
33545354,9989,-0.179810,-0.320435,0.932251,515
33555350,9996,-0.178223,-0.321045,0.925781,507
33565370,10020,-0.173218,-0.322388,0.922852,514
33575358,9988,-0.172241,-0.324341,0.919800,517
33585345,9987,-0.174805,-0.321167,0.922729,514
33595355,10010,-0.177368,-0.316284,0.926880,508
33605363,10008,-0.180542,-0.313843,0.931519,514
33615349,9986,-0.176514,-0.323608,0.931030,514
33625347,9998,-0.173340,-0.324219,0.929077,505
33635345,9998,-0.174194,-0.321411,0.925903,513
33645357,10012,-0.175659,-0.317261,0.920410,512
33655365,10008,-0.179565,-0.312866,0.918091,513
33665380,10015,-0.179565,-0.317871,0.920898,511
33675370,9990,-0.180420,-0.321167,0.923462,514
33685386,10016,-0.181763,-0.319580,0.927979,513
33695355,9969,-0.173828,-0.327637,0.926147,513
33705371,10016,-0.176514,-0.325562,0.924316,515
33715344,9973,-0.175903,-0.312256,0.926514,513
33725354,10010,-0.176636,-0.316528,0.929199,513
33735357,10003,-0.176880,-0.324707,0.934448,514
33745344,9987,-0.175781,-0.332397,0.932251,514
33755361,10017,-0.177734,-0.324951,0.928711,514
33765346,9985,-0.176025,-0.314819,0.925781,509
33775367,10021,-0.174927,-0.318237,0.926636,512
33785351,9984,-0.177856,-0.322998,0.926147,516
33795350,9999,-0.178101,-0.321533,0.927002,513
33805371,10021,-0.178711,-0.318481,0.923706,515
33815356,9985,-0.177002,-0.317749,0.926147,514
33825366,10010,-0.177490,-0.326416,0.928711,511
33835363,9997,-0.178711,-0.327271,0.927856,506
33845355,9992,-0.179321,-0.324219,0.926147,513
33855360,10005,-0.181641,-0.320679,0.927002,515
33865349,9989,-0.178711,-0.319092,0.925171,513
33875358,10009,-0.176514,-0.318604,0.924927,507
33885343,9985,-0.173828,-0.312744,0.916504,506
33896736,11393,-0.175781,-0.308594,0.914551,510
33905360,8624,-0.175659,-0.307495,0.919189,512
33916776,11416,-0.176880,-0.315063,0.925293,512
33925343,8567,-0.177490,-0.326782,0.929443,514
33935343,10000,-0.178467,-0.332397,0.935425,507
33945353,10010,-0.180664,-0.328369,0.935059,512
33955349,9996,-0.179321,-0.326782,0.930176,513
33965358,10009,-0.178101,-0.320190,0.922974,513
33975350,9992,-0.178223,-0.308472,0.916748,512
33985352,10002,-0.176147,-0.306763,0.916260,505
33995359,10007,-0.173828,-0.313843,0.915161,512
34005381,10022,-0.174194,-0.314087,0.914185,513
34015357,9976,-0.176758,-0.314331,0.919067,509
34025376,10019,-0.179077,-0.321411,0.927124,513
34035349,9973,-0.180420,-0.332886,0.933716,506
34045364,10015,-0.182495,-0.333008,0.934937,514
34055345,9981,-0.181030,-0.321411,0.931641,508
34065351,10006,-0.177368,-0.317383,0.933716,508
34075354,10003,-0.174072,-0.317139,0.928711,507
34085356,10002,-0.173706,-0.313477,0.924805,511
34095350,9994,-0.171509,-0.311646,0.923706,513
34105363,10013,-0.173340,-0.316040,0.924194,513
34115344,9981,-0.172241,-0.319702,0.924316,509
34125352,10008,-0.174561,-0.324097,0.926636,515
34135343,9991,-0.177490,-0.324829,0.927612,508
34145367,10024,-0.181519,-0.325195,0.928101,513
34155357,9990,-0.180542,-0.320679,0.931274,515
34165346,9989,-0.178345,-0.320068,0.930176,514
34175391,10045,-0.175903,-0.318359,0.926392,516
34185351,9960,-0.172607,-0.316162,0.921387,512
34195387,10036,-0.172607,-0.313110,0.920288,512
34205358,9971,-0.174927,-0.312988,0.925537,516
34215357,9999,-0.179077,-0.321777,0.927002,515
34225365,10008,-0.175537,-0.325317,0.927856,515
34235368,10003,-0.175293,-0.325439,0.926270,514
34245370,10002,-0.177002,-0.321167,0.926636,513
34255369,9999,-0.177246,-0.317505,0.927124,515
34265357,9988,-0.181274,-0.315308,0.926758,512
34275353,9996,-0.180542,-0.321411,0.926880,516
34285372,10019,-0.177002,-0.326294,0.926880,511
34295343,9971,-0.173096,-0.325195,0.926270,520
34305364,10021,-0.174438,-0.318848,0.926392,517
34315372,10008,-0.175293,-0.316772,0.931396,517
34325367,9995,-0.174927,-0.322510,0.932129,517
34335344,9977,-0.173950,-0.323242,0.928345,516
34345363,10019,-0.171265,-0.318970,0.926636,517
34355345,9982,-0.174072,-0.316772,0.924561,517
34365350,10005,-0.176270,-0.318237,0.924561,517
34375373,10023,-0.181152,-0.317871,0.924927,516
34385360,9987,-0.180298,-0.321411,0.925049,512
34395368,10008,-0.178589,-0.324707,0.922852,517
34405346,9978,-0.176025,-0.325928,0.922729,518
34415362,10016,-0.175903,-0.323242,0.921509,515
34425365,10003,-0.179077,-0.312866,0.924438,515
34435364,9999,-0.176758,-0.314941,0.927612,514
34445369,10005,-0.173706,-0.321167,0.929321,514
34455356,9987,-0.170532,-0.323730,0.931152,515
34465356,10000,-0.171509,-0.320923,0.930664,516
34475348,9992,-0.174683,-0.317139,0.927979,510
34485368,10020,-0.178101,-0.315308,0.926270,514
34495365,9997,-0.178345,-0.315552,0.927124,515
34505365,10000,-0.178833,-0.317261,0.926880,515
34515382,10017,-0.177246,-0.320801,0.926025,514
34525357,9975,-0.176025,-0.322632,0.922974,507
34535369,10012,-0.175903,-0.317627,0.920898,506
34545348,9979,-0.176636,-0.317383,0.924072,510
34555355,10007,-0.177490,-0.320068,0.927002,516
34565347,9992,-0.178101,-0.321167,0.927612,507
34575353,10006,-0.176514,-0.320435,0.927612,514
34585357,10004,-0.175537,-0.319458,0.924927,514
34595365,10008,-0.173706,-0.316406,0.925781,513
34605355,9990,-0.175049,-0.317383,0.926147,509
34615369,10014,-0.176392,-0.319458,0.925415,511
34625358,9989,-0.176636,-0.322021,0.926880,513
34635364,10006,-0.174683,-0.324463,0.924561,516
34645353,9989,-0.173828,-0.322021,0.923218,507
34655362,10009,-0.175049,-0.317871,0.925781,514
34665369,10007,-0.177979,-0.315552,0.928955,506
34675397,10028,-0.180176,-0.317261,0.930908,514
34685364,9967,-0.178955,-0.320435,0.930054,512
34695383,10019,-0.172729,-0.323242,0.926392,511
34705358,9975,-0.173340,-0.318848,0.923340,506
34715350,9992,-0.173706,-0.317017,0.920898,512
34725355,10005,-0.176025,-0.317993,0.920898,515
34735355,10000,-0.177124,-0.317505,0.923340,514
34745369,10014,-0.176636,-0.325684,0.927002,515
34755347,9978,-0.176025,-0.324585,0.926514,512
34765356,10009,-0.176758,-0.321167,0.927979,516
34775358,10002,-0.175659,-0.318604,0.928589,510
34785355,9997,-0.176514,-0.318359,0.929199,514
34795352,9997,-0.176025,-0.321289,0.928711,503
34805356,10004,-0.172241,-0.324585,0.924805,506
34815372,10016,-0.172119,-0.320801,0.924316,514
34825655,10283,-0.175049,-0.317505,0.924561,517
34835366,9711,-0.176392,-0.316772,0.927002,507
34845344,9978,-0.177856,-0.317749,0.928467,513
34855383,10039,-0.176025,-0.322388,0.927124,514
34865358,9975,-0.174438,-0.322266,0.926392,513
34875367,10009,-0.173584,-0.320923,0.922729,512
34885346,9979,-0.173462,-0.320435,0.921997,510
34895345,9999,-0.175903,-0.318359,0.921509,508
34905367,10022,-0.176147,-0.319214,0.925415,515
34915349,9982,-0.177856,-0.323364,0.926758,514
34925371,10022,-0.174927,-0.323242,0.924927,508
34940994,15623,-0.176025,-0.315552,0.925903,513
34947267,6273,0.000000,0.000000,0.000000,508
34955343,8076,-0.176025,-0.315796,0.925049,516
34965370,10027,-0.174194,-0.321655,0.926514,513
34975348,9978,-0.174072,-0.323486,0.925781,515
34985361,10013,-0.173706,-0.323975,0.924683,515
34995372,10011,-0.175293,-0.322144,0.923828,514
35005356,9984,-0.176758,-0.319946,0.924927,505
35015389,10033,-0.177490,-0.320068,0.927734,514
35025370,9981,-0.176025,-0.321899,0.928711,514
35035357,9987,-0.175415,-0.322510,0.928589,514
35045357,10000,-0.172363,-0.322510,0.926636,510
35055343,9986,-0.172852,-0.319946,0.926880,512
35065372,10029,-0.174316,-0.320068,0.927734,524
35075361,9989,-0.175781,-0.323242,0.927002,507
35085367,10006,-0.176025,-0.323608,0.925659,513
35095347,9980,-0.175049,-0.322632,0.923340,514
35105371,10024,-0.176147,-0.321899,0.923462,516
35115358,9987,-0.176025,-0.320557,0.924683,515
35125344,9986,-0.177124,-0.319092,0.926636,511
35135357,10013,-0.177002,-0.320679,0.926514,515
35145347,9990,-0.174561,-0.325684,0.925537,510
35155368,10021,-0.172119,-0.327026,0.922852,516
35165353,9985,-0.172852,-0.324341,0.921997,513
35175352,9999,-0.175415,-0.318604,0.926392,516
35185353,10001,-0.177368,-0.317993,0.929321,517
35195370,10017,-0.176147,-0.322266,0.929443,509
35205368,9998,-0.174927,-0.323975,0.926270,520
35215358,9990,-0.172852,-0.322388,0.923706,517
35225357,9999,-0.172119,-0.320923,0.923096,516
35235347,9990,-0.176880,-0.321777,0.927368,516
35245372,10025,-0.178589,-0.324463,0.927368,516
35255356,9984,-0.177734,-0.326294,0.926147,516
35265345,9989,-0.173950,-0.323364,0.925171,510
35275356,10011,-0.172241,-0.320557,0.924316,517
35285346,9990,-0.173218,-0.313354,0.925415,512
35295356,10010,-0.176636,-0.314941,0.925903,515
35305371,10015,-0.176147,-0.320068,0.927368,509
35315369,9998,-0.172607,-0.325439,0.927368,515
35325356,9987,-0.172119,-0.328369,0.926025,512
35335346,9990,-0.172974,-0.326416,0.924072,515
35350181,14835,-0.176758,-0.318604,0.926880,509
35356380,6199,-0.177856,-0.318848,0.927856,509
35365353,8973,-0.177124,-0.320679,0.927490,514
35375365,10012,-0.174805,-0.322876,0.926147,517
35385345,9980,-0.174927,-0.324341,0.923950,514
35395359,10014,-0.175171,-0.319580,0.925171,505
35405350,9991,-0.176758,-0.319214,0.925293,515
35415359,10009,-0.176636,-0.321655,0.926147,518
35425349,9990,-0.175537,-0.323608,0.926880,511
35435349,10000,-0.174805,-0.324219,0.926880,513
35445345,9996,-0.172119,-0.322021,0.926147,509
35455354,10009,-0.176147,-0.317627,0.926758,512
35465365,10011,-0.176514,-0.319824,0.926636,514
35475353,9988,-0.176636,-0.321655,0.926758,515
35485364,10011,-0.174316,-0.324951,0.926392,512
35495370,10006,-0.173096,-0.325928,0.924438,508
35505367,9997,-0.175903,-0.319702,0.922852,508
35515388,10021,-0.176025,-0.318970,0.924438,507
35525361,9973,-0.176147,-0.318970,0.926270,512
35535357,9996,-0.176270,-0.319214,0.925049,514
35545357,10000,-0.175415,-0.322144,0.924438,515
35555352,9995,-0.174316,-0.323730,0.926880,515
35565346,9994,-0.174316,-0.321045,0.926880,514
35575352,10006,-0.176270,-0.321533,0.927490,515
35585357,10005,-0.176514,-0.322266,0.926025,514
35595343,9986,-0.174683,-0.325317,0.925781,508
35605367,10024,-0.174316,-0.323242,0.926636,510
35615351,9984,-0.175903,-0.319824,0.924561,511
35625356,10005,-0.176514,-0.319824,0.924683,513
35635356,10000,-0.176270,-0.318726,0.924072,519
35645346,9990,-0.175659,-0.320679,0.924927,515
35655388,10042,-0.175049,-0.321777,0.926880,515
35665362,9974,-0.174805,-0.323242,0.925049,515
35675379,10017,-0.174683,-0.321289,0.923828,514
35685365,9986,-0.176758,-0.319336,0.924805,516
35695362,9997,-0.175903,-0.319702,0.925659,516
35705371,10009,-0.175537,-0.321045,0.925659,514
35715343,9972,-0.175415,-0.321777,0.925049,513
35725351,10008,-0.176392,-0.321777,0.926270,510
35735365,10014,-0.175903,-0.321533,0.927002,513
35745368,10003,-0.174561,-0.320068,0.926758,515
35755352,9984,-0.175415,-0.319702,0.925903,511
35765356,10004,-0.175659,-0.318970,0.923584,514
35775343,9987,-0.174805,-0.321045,0.924072,512
35785367,10024,-0.175049,-0.323608,0.924438,510
35795367,10000,-0.176270,-0.323364,0.925781,514
35805372,10005,-0.177246,-0.322388,0.927734,513
35815390,10018,-0.176392,-0.324097,0.929077,514
35825354,9964,-0.175171,-0.324219,0.926270,506
35835366,10012,-0.172485,-0.320313,0.924561,509
35847602,12236,-0.172363,-0.318481,0.924561,515
35855372,7770,-0.172974,-0.318604,0.925171,514
35865350,9978,-0.174316,-0.319946,0.925903,514
35875352,10002,-0.176392,-0.319702,0.924927,515
35885357,10005,-0.176880,-0.323730,0.926392,513
35895356,9999,-0.176636,-0.324707,0.925659,506
35905350,9994,-0.176025,-0.325073,0.925659,513
35915352,10002,-0.173950,-0.322998,0.924316,513
35925364,10012,-0.172119,-0.320313,0.922485,498
35935372,10008,-0.172852,-0.311890,0.920044,515
35945361,9989,-0.174927,-0.308594,0.926147,517
35955351,9990,-0.179932,-0.319824,0.934570,516
35965359,10008,-0.180786,-0.332520,0.938232,519
35975351,9992,-0.181274,-0.336548,0.934448,511
35985390,10039,-0.177124,-0.330078,0.926758,509
35995368,9978,-0.170532,-0.314087,0.918945,510
36005349,9981,-0.172241,-0.312500,0.920288,513
36015359,10010,-0.177124,-0.312012,0.923218,511
36025360,10001,-0.179565,-0.314819,0.926636,516
36035355,9995,-0.178467,-0.318848,0.928223,520
36045366,10011,-0.171387,-0.333374,0.927612,513
36055369,10003,-0.171631,-0.331299,0.925903,516
36065372,10003,-0.173096,-0.319824,0.923706,518
36075364,9992,-0.178101,-0.312622,0.921753,515
36085367,10003,-0.178711,-0.312866,0.925049,514
36095353,9986,-0.176270,-0.317627,0.927246,516
36105360,10007,-0.173706,-0.326660,0.926392,516
36115366,10006,-0.172241,-0.322632,0.923828,517
36125358,9992,-0.175415,-0.317749,0.924805,513
36135361,10003,-0.177246,-0.316650,0.926514,513
36145349,9988,-0.176880,-0.319458,0.927002,512
36155383,10034,-0.174438,-0.321777,0.926636,506
36165363,9980,-0.174805,-0.320923,0.927002,515
36175378,10015,-0.175415,-0.321289,0.927734,515
36185347,9969,-0.176025,-0.324707,0.928345,516
36195355,10008,-0.176025,-0.323975,0.928101,511
36205358,10003,-0.176025,-0.322632,0.925415,509
36215357,9999,-0.175049,-0.319702,0.923340,513
36225346,9989,-0.174316,-0.315430,0.923462,507
36235346,10000,-0.176025,-0.312866,0.923340,506
36245368,10022,-0.175903,-0.316895,0.922729,515
36255350,9982,-0.176147,-0.321777,0.924805,506
36265370,10020,-0.174194,-0.322510,0.926025,513
36275362,9992,-0.175049,-0.322510,0.927856,513
36285358,9996,-0.176880,-0.322510,0.928833,515
36295346,9988,-0.175781,-0.324097,0.927856,515
36305357,10011,-0.176636,-0.322754,0.927612,517
36315356,9999,-0.177246,-0.317627,0.926636,508
36325376,10020,-0.175537,-0.318848,0.927490,516
36335350,9974,-0.173584,-0.321289,0.925049,515
36345359,10009,-0.175049,-0.319214,0.922607,514
36355365,10006,-0.173462,-0.314941,0.922852,508
36365350,9985,-0.173584,-0.316406,0.925537,510
36375352,10002,-0.174805,-0.324463,0.926880,515
36385367,10015,-0.175293,-0.326050,0.927124,516
36395358,9991,-0.176147,-0.324463,0.926880,513
36405356,9998,-0.177124,-0.320557,0.926758,515
36415353,9997,-0.176025,-0.319702,0.926758,511
36425364,10011,-0.177856,-0.318115,0.926636,511
36435344,9980,-0.177856,-0.317871,0.927124,509
36445369,10025,-0.177124,-0.320923,0.926392,512
36455348,9979,-0.175537,-0.323120,0.924805,511
36465348,10000,-0.174927,-0.324951,0.922363,505
36475369,10021,-0.175537,-0.321899,0.921753,514
36485358,9989,-0.175293,-0.317749,0.924316,511
36495355,9997,-0.176392,-0.317505,0.926270,513
36505347,9992,-0.177002,-0.321289,0.927002,513
36515386,10039,-0.175781,-0.324463,0.927002,513
36525363,9977,-0.174927,-0.321289,0.926636,515
36535365,10002,-0.174805,-0.319580,0.927002,507
36545356,9991,-0.176025,-0.318970,0.925171,512
36555344,9988,-0.176636,-0.317627,0.924805,514
36565365,10021,-0.176880,-0.319702,0.926147,506
36575372,10007,-0.176392,-0.321533,0.926514,514
36585352,9980,-0.176880,-0.324097,0.925659,511
36595371,10019,-0.176025,-0.322266,0.926270,512
36605366,9995,-0.175903,-0.321533,0.927124,507
36615365,9999,-0.172974,-0.321899,0.928223,514
36625365,10000,-0.173218,-0.320679,0.927856,515
36635348,9983,-0.174194,-0.317871,0.926514,511
36645361,10013,-0.174438,-0.314941,0.925659,512
36655362,10001,-0.176514,-0.317139,0.925415,507
36665344,9982,-0.177734,-0.318726,0.926270,511
36675369,10025,-0.178101,-0.321655,0.928223,515
36685347,9978,-0.177979,-0.324341,0.928711,513
36695383,10036,-0.176147,-0.325562,0.926270,515
36705368,9985,-0.175415,-0.322144,0.924438,513
36715343,9975,-0.174561,-0.318237,0.922974,516
36725352,10009,-0.176880,-0.313599,0.922607,515
36735351,9999,-0.176025,-0.314697,0.924683,510
36745344,9993,-0.176514,-0.317017,0.924072,518
36755371,10027,-0.175049,-0.318237,0.924072,512
36765369,9998,-0.175537,-0.318115,0.924561,517
36775356,9987,-0.176147,-0.319092,0.925415,516
36785368,10012,-0.177368,-0.319946,0.928223,518
36795361,9993,-0.176636,-0.322021,0.928711,517
36805352,9991,-0.174194,-0.326660,0.926636,512
36815347,9995,-0.174561,-0.325439,0.927002,512
36825365,10018,-0.174072,-0.321655,0.926392,509
36835349,9984,-0.174927,-0.319214,0.927368,511
36847913,12564,-0.174805,-0.317627,0.929932,511
36855343,7430,0.000000,0.000000,0.000000,515
36865346,10003,-0.173218,-0.317993,0.928955,509
36875364,10018,-0.172852,-0.318848,0.927246,508
36885358,9994,-0.173340,-0.319458,0.924683,514
36895362,10004,-0.175293,-0.320190,0.924683,516
36905347,9985,-0.178589,-0.321045,0.926025,514
36915357,10010,-0.179199,-0.323120,0.926636,511
36925343,9986,-0.178101,-0.323120,0.926147,515
36935352,10009,-0.175659,-0.321411,0.926392,516
36945370,10018,-0.173462,-0.318481,0.925903,515
36955360,9990,-0.174072,-0.314941,0.924561,514
36965370,10010,-0.176636,-0.316040,0.929199,509
36975351,9981,-0.176147,-0.321533,0.929687,514
36985363,10012,-0.176392,-0.323608,0.928467,516
36995355,9992,-0.176147,-0.322632,0.927856,511
37005346,9991,-0.175903,-0.320679,0.925781,505
37015350,10004,-0.175659,-0.317505,0.922974,509
37025343,9993,-0.175659,-0.313843,0.922852,513
37035360,10017,-0.176392,-0.313965,0.923462,514
37045365,10005,-0.175781,-0.315918,0.924805,513
37055369,10004,-0.176880,-0.317627,0.923584,513
37065348,9979,-0.178101,-0.319824,0.923950,513
37075368,10020,-0.178223,-0.317383,0.922729,507
37085351,9983,-0.178101,-0.315186,0.921875,513
37095352,10001,-0.176392,-0.315186,0.922852,507
37105363,10011,-0.174805,-0.316284,0.924561,514
37115366,10003,-0.173584,-0.317261,0.926880,515
37125368,10002,-0.174561,-0.317505,0.929810,510
37135368,10000,-0.174805,-0.321045,0.933228,515
37145369,10001,-0.174561,-0.321045,0.932617,516
37155359,9990,-0.174316,-0.320190,0.931030,508
37165356,9997,-0.172974,-0.318848,0.928833,514
37175379,10023,-0.172974,-0.317871,0.929199,514
37185357,9978,-0.176392,-0.315430,0.927490,506
37195365,10008,-0.178101,-0.317627,0.927002,510
37205345,9980,-0.176758,-0.319336,0.926392,507
37215369,10024,-0.176758,-0.320190,0.925293,513
37225348,9979,-0.176025,-0.320435,0.923340,511
37235353,10005,-0.176147,-0.315796,0.923706,515
37245361,10008,-0.177246,-0.317871,0.923340,514
37255352,9991,-0.177124,-0.318359,0.924683,514
37265363,10011,-0.176147,-0.317261,0.925293,514
37275366,10003,-0.176147,-0.317139,0.925049,507
37285350,9984,-0.177002,-0.316528,0.924927,513
37295367,10017,-0.177368,-0.314819,0.924316,513
37305343,9976,-0.176880,-0.317383,0.925293,514
37315356,10013,-0.176392,-0.320435,0.924805,505
37325363,10007,-0.176147,-0.321411,0.925415,508
37335394,10031,-0.175415,-0.319580,0.928467,515
37345356,9962,-0.176147,-0.317139,0.938477,507
37355352,9996,-0.172363,-0.319336,0.939453,505
37365360,10008,-0.171021,-0.318115,0.940308,510
37375366,10006,-0.171509,-0.319214,0.938354,512
37385360,9994,-0.169678,-0.320679,0.932861,514
37395370,10010,-0.174438,-0.319580,0.926025,513
37405360,9990,-0.178345,-0.309570,0.916748,514
37415352,9992,-0.180664,-0.310791,0.915161,514
37425357,10005,-0.180786,-0.314331,0.916016,516
37435350,9993,-0.180054,-0.319336,0.916870,515
37445344,9994,-0.178589,-0.321777,0.919556,515
37455343,9999,-0.176636,-0.320679,0.924316,509
37465360,10017,-0.174805,-0.322754,0.927002,513
37475361,10001,-0.175537,-0.322144,0.928711,511
37485348,9987,-0.175049,-0.318359,0.931274,513
37495372,10024,-0.173950,-0.315430,0.931152,514
37505383,10011,-0.173462,-0.318115,0.929932,513
37515365,9982,-0.169678,-0.314697,0.929565,514
37525366,10001,-0.170898,-0.314087,0.928833,515
37535343,9977,-0.172852,-0.316406,0.929810,516
37545354,10011,-0.174194,-0.321045,0.929077,514
37555358,10004,-0.173950,-0.326416,0.928467,515
37565352,9994,-0.175781,-0.320801,0.926758,516
37575353,10001,-0.175049,-0.317017,0.927124,516
37585353,10000,-0.175659,-0.315430,0.926392,520
37595356,10003,-0.176025,-0.315063,0.927979,515
37605373,10017,-0.174438,-0.317749,0.927246,510
37615361,9988,-0.173706,-0.319214,0.925903,518
37625353,9992,-0.174194,-0.316650,0.922119,511
37635344,9991,-0.175293,-0.311890,0.920898,517
37645369,10025,-0.178467,-0.307373,0.917480,512
37655343,9974,-0.177002,-0.305786,0.917236,517
37665357,10014,-0.177612,-0.305908,0.916382,515
37675396,10039,-0.178467,-0.313110,0.918945,511
37685365,9969,-0.178467,-0.317139,0.924683,516
37695366,10001,-0.178833,-0.322876,0.929932,510
37705366,10000,-0.177856,-0.326904,0.934570,515
37715349,9983,-0.176270,-0.329834,0.937012,515
37725358,10009,-0.172363,-0.326050,0.932983,509
37735359,10001,-0.172485,-0.318604,0.927368,514
37745369,10010,-0.171631,-0.309692,0.924805,515
37755354,9985,-0.172119,-0.305786,0.923218,513
37765367,10013,-0.172607,-0.307983,0.922729,517
37775366,9999,-0.172852,-0.313843,0.922852,515
37785353,9987,-0.177124,-0.324707,0.927368,516
37795361,10008,-0.177979,-0.330078,0.930054,516
37805343,9982,-0.176880,-0.333008,0.933960,514
37815343,10000,-0.179199,-0.332275,0.932129,498
37825343,10000,-0.176025,-0.326782,0.929321,517
37835352,10009,-0.177124,-0.313599,0.923462,511
37845348,9996,-0.175415,-0.309570,0.921875,507
37855359,10011,-0.175171,-0.308838,0.922974,517
37865356,9997,-0.173706,-0.310181,0.923218,509
37875346,9990,-0.174805,-0.313599,0.926147,516
37885372,10026,-0.175659,-0.318726,0.929443,514
37895363,9991,-0.173584,-0.324585,0.929810,515
37905365,10002,-0.174316,-0.321167,0.927124,508
37915353,9988,-0.172607,-0.317261,0.926025,507
37925346,9993,-0.174072,-0.314087,0.924683,515
37935362,10016,-0.174927,-0.312012,0.926758,509
37945367,10005,-0.172363,-0.322388,0.927246,515
37955360,9993,-0.171997,-0.325195,0.927002,513
37965355,9995,-0.172729,-0.323608,0.930420,509
37975360,10005,-0.174194,-0.321899,0.932739,505
37985360,10000,-0.176758,-0.322510,0.933228,509
37995352,9992,-0.176880,-0.320557,0.929321,509
38005350,9998,-0.173340,-0.319702,0.926758,515
38015345,9995,-0.172119,-0.319092,0.926758,517
38025383,10038,-0.173462,-0.320801,0.928833,516
38035369,9986,-0.175415,-0.323975,0.932251,511
38045363,9994,-0.175781,-0.323608,0.932983,516
38055365,10002,-0.174072,-0.314697,0.928955,515
38065371,10006,-0.173218,-0.313354,0.923950,515
38075409,10038,-0.174316,-0.312256,0.918823,516
38085345,9936,-0.175781,-0.312134,0.914795,508
38095369,10024,-0.177734,-0.312866,0.914551,513
38105366,9997,-0.179565,-0.328125,0.923218,511
38115368,10002,-0.178955,-0.332642,0.925903,513
38125373,10005,-0.179810,-0.333740,0.925903,507
38135347,9974,-0.177734,-0.327026,0.926392,512
38145356,10009,-0.176636,-0.318359,0.924072,514
38155358,10002,-0.175049,-0.312378,0.922485,507
38165372,10014,-0.171753,-0.313843,0.923828,515
38175343,9971,-0.171021,-0.317261,0.926147,506
38185347,10004,-0.171875,-0.321411,0.930054,515
38195399,10052,-0.172729,-0.324097,0.933350,515
38205368,9969,-0.174561,-0.327148,0.934692,514
38215350,9982,-0.172852,-0.324829,0.933228,514
38225371,10021,-0.170898,-0.322632,0.928955,531
38235350,9979,-0.170776,-0.319092,0.927124,515
38245359,10009,-0.170776,-0.314819,0.926758,515
38255355,9996,-0.172852,-0.312866,0.928955,514
38265358,10003,-0.174561,-0.319092,0.932861,514
38275345,9987,-0.173462,-0.321411,0.930542,514
38285352,10007,-0.171875,-0.320190,0.927368,515
38297754,12402,-0.171387,-0.317383,0.923340,508
38305368,7614,-0.172119,-0.314575,0.920532,515
38315360,9992,-0.174316,-0.313354,0.918701,514
38325367,10007,-0.178711,-0.317261,0.918823,515
38335364,9997,-0.179077,-0.321533,0.921265,515
38345361,9997,-0.178345,-0.323730,0.921997,516
38355344,9983,-0.179321,-0.324219,0.922852,516
38365359,10015,-0.177368,-0.323975,0.922485,516
38375360,10001,-0.176025,-0.321289,0.923096,517
38385372,10012,-0.175293,-0.321777,0.923096,511
38395357,9985,-0.171997,-0.321777,0.922852,519
38405353,9996,-0.170044,-0.321777,0.926270,517
38415345,9992,-0.171631,-0.317871,0.928345,510
38425348,10003,-0.172119,-0.319702,0.932983,510
38435361,10013,-0.172363,-0.324097,0.938477,517
38445366,10005,-0.171509,-0.325928,0.938843,519
38455366,10000,-0.171753,-0.325195,0.934448,518
38465347,9981,-0.170044,-0.322510,0.930542,517
38475364,10017,-0.169067,-0.319336,0.926880,518
38485351,9987,-0.174561,-0.319214,0.925659,518
38495365,10014,-0.176025,-0.321411,0.926514,516
38505371,10006,-0.174927,-0.322144,0.925659,515
38515370,9999,-0.174316,-0.321533,0.925415,514
38525346,9976,-0.174194,-0.319092,0.923340,515
38535360,10014,-0.173706,-0.317993,0.922119,508
38545373,10013,-0.176147,-0.316162,0.924316,516
38555370,9997,-0.176636,-0.316772,0.922729,515
38565368,9998,-0.175049,-0.318481,0.922363,517
38575379,10011,-0.174194,-0.319946,0.921143,515
38586172,10793,-0.173340,-0.318848,0.921021,512
38595348,9176,0.000000,0.000000,0.000000,515
38605361,10013,-0.175171,-0.316162,0.928345,515
38615358,9997,-0.177002,-0.322998,0.929932,507
38625359,10001,-0.174194,-0.330566,0.930176,507
38635364,10005,-0.171509,-0.329224,0.929565,513
38645356,9992,-0.169800,-0.318359,0.929687,506
38655371,10015,-0.171143,-0.317627,0.928345,512
38665370,9999,-0.174561,-0.317383,0.930298,514
38678396,13026,-0.171265,-0.321167,0.929932,514
38687668,9272,-0.171753,-0.322876,0.922729,506
38695352,7684,0.000000,0.000000,0.000000,512
38705345,9993,-0.172485,-0.316772,0.924072,516
38715349,10004,-0.174561,-0.320435,0.928101,514
38725370,10021,-0.174927,-0.329102,0.930298,516
38735362,9992,-0.175171,-0.332764,0.928101,515
38745361,9999,-0.174805,-0.326904,0.924316,515
38755344,9983,-0.173218,-0.314453,0.925415,513
38765369,10025,-0.171875,-0.315552,0.926147,516
38775372,10003,-0.171997,-0.318848,0.926270,513
38785355,9983,-0.171997,-0.322266,0.926270,516
38795365,10010,-0.172363,-0.322998,0.923706,515
38805351,9986,-0.171997,-0.322021,0.925903,516
38815367,10016,-0.173950,-0.324951,0.927002,515
38825368,10001,-0.175781,-0.323730,0.923950,515
38835358,9990,-0.176147,-0.319580,0.923950,514
38845364,10006,-0.177734,-0.319580,0.923096,509
38855351,9987,-0.176514,-0.319702,0.923096,514
38865369,10018,-0.174805,-0.320801,0.921997,516
38875371,10002,-0.176392,-0.318359,0.924683,511
38885344,9973,-0.175903,-0.320435,0.926514,513
38895372,10028,-0.173950,-0.325562,0.928711,515
38905363,9991,-0.171997,-0.329590,0.929810,514
38915382,10019,-0.171875,-0.329224,0.930420,507
38925363,9981,-0.172363,-0.321655,0.929810,515
38935372,10009,-0.171509,-0.321045,0.929810,514
38945386,10014,-0.172241,-0.323853,0.929810,517
38955350,9964,-0.172241,-0.325562,0.928223,515
38965349,9999,-0.172363,-0.326416,0.926147,511
38975368,10019,-0.174316,-0.322388,0.924438,517
38988248,12880,-0.175049,-0.321167,0.924805,516
38995352,7104,-0.174561,-0.322144,0.926147,513
39005346,9994,-0.174072,-0.324829,0.925049,515
39015344,9998,-0.173828,-0.324707,0.923340,513
39025372,10028,-0.173828,-0.322021,0.921509,515
39035349,9977,-0.173828,-0.319824,0.921753,514
39045369,10020,-0.174316,-0.320557,0.922852,507
39055364,9995,-0.175171,-0.325073,0.924805,514
39065353,9989,-0.173950,-0.326660,0.926270,513
39075365,10012,-0.173096,-0.326294,0.926758,514
39085353,9988,-0.172119,-0.321289,0.930664,513
39095399,10046,-0.172974,-0.324097,0.931763,508
39105344,9945,-0.172485,-0.323853,0.931519,514
39115369,10025,-0.172607,-0.323608,0.928101,514
39125344,9975,-0.170654,-0.325928,0.925293,516
39135363,10019,-0.171509,-0.317871,0.921631,514
39145353,9990,-0.174561,-0.317383,0.921997,515
39155358,10005,-0.175903,-0.320313,0.921143,516
39165366,10008,-0.176270,-0.322266,0.921753,516
39175362,9996,-0.175049,-0.325562,0.921509,517
39185366,10004,-0.173706,-0.327148,0.920166,516
39195349,9983,-0.175659,-0.323608,0.922852,517
39205372,10023,-0.176758,-0.321899,0.927612,518
39215372,10000,-0.176147,-0.324707,0.930298,518
39225362,9990,-0.173828,-0.326782,0.929565,521
39235355,9993,-0.170532,-0.329956,0.928223,515
39245347,9992,-0.168701,-0.322876,0.928589,516
39255352,10005,-0.170532,-0.320557,0.929810,518
39265352,10000,-0.172974,-0.321777,0.930664,510
39275349,9997,-0.174438,-0.323242,0.929932,517
39285393,10044,-0.172729,-0.325073,0.928101,517
39295368,9975,-0.170776,-0.325195,0.924683,512
39305355,9987,-0.174805,-0.320679,0.920776,516
39315367,10012,-0.176147,-0.319580,0.920776,515
39325348,9981,-0.177368,-0.321899,0.922852,516
39335344,9996,-0.175415,-0.326904,0.923584,513
39345362,10018,-0.172974,-0.329590,0.923340,515
39355352,9990,-0.173340,-0.323975,0.925049,507
39365367,10015,-0.173096,-0.322998,0.926636,515
39375351,9984,-0.173950,-0.323608,0.924927,517
39385347,9996,-0.173950,-0.322144,0.925659,514
39396285,10938,-0.173096,-0.320801,0.927246,509
39405346,9061,-0.171875,-0.324097,0.929199,514
39415358,10012,-0.173218,-0.326294,0.924927,511
39425372,10014,-0.173706,-0.322510,0.924072,515
39435357,9985,-0.173584,-0.321411,0.925171,503
39445370,10013,-0.172974,-0.324219,0.924316,514
39455346,9976,-0.173218,-0.326538,0.923462,511
39465344,9998,-0.173706,-0.320923,0.922241,516
39475349,10005,-0.174683,-0.320313,0.923462,514
39485361,10012,-0.175659,-0.323242,0.922852,514
39495364,10003,-0.175537,-0.327148,0.922119,515
39505371,10007,-0.173950,-0.326294,0.922363,517
39515365,9994,-0.171509,-0.322388,0.923828,510
39525345,9980,-0.170044,-0.323608,0.926147,516
39535356,10011,-0.171387,-0.324829,0.926514,515
39545348,9992,-0.173584,-0.325317,0.927368,511
39555346,9998,-0.172852,-0.325073,0.927979,509
39565348,10002,-0.173340,-0.326050,0.928589,517
39575364,10016,-0.171875,-0.325562,0.925049,514
39585368,10004,-0.173218,-0.322510,0.924194,514
39595359,9991,-0.173706,-0.320190,0.923340,508
39605352,9993,-0.171753,-0.319946,0.923218,515
39615355,10003,-0.172852,-0.322144,0.922363,514
39625357,10002,-0.174194,-0.324219,0.922363,514
39635351,9994,-0.174194,-0.325684,0.923340,515
39645348,9997,-0.175781,-0.328613,0.926636,514
39655358,10010,-0.176025,-0.331543,0.926025,514
39665348,9990,-0.176636,-0.330444,0.927368,516
39675368,10020,-0.174561,-0.328369,0.928223,515
39685369,10001,-0.173950,-0.325195,0.927734,510
39695349,9980,-0.173462,-0.320313,0.926392,506
39705361,10012,-0.172485,-0.318604,0.925293,514
39715354,9993,-0.173096,-0.319946,0.923950,515
39725345,9991,-0.172607,-0.322632,0.922363,513
39735373,10028,-0.173706,-0.325806,0.921875,509
39745344,9971,-0.174805,-0.328125,0.923950,513
39755364,10020,-0.174805,-0.329102,0.926147,515
39765371,10007,-0.175293,-0.329346,0.924194,508
39775361,9990,-0.176636,-0.327148,0.926025,513
39785366,10005,-0.176636,-0.325928,0.926147,514
39795366,10000,-0.173096,-0.324097,0.928589,507
39805371,10005,-0.172729,-0.323975,0.929565,513
39815362,9991,-0.171021,-0.326538,0.928833,514
39825360,9998,-0.169800,-0.329346,0.926880,514
39835378,10018,-0.171509,-0.328125,0.926270,509
39845353,9975,-0.175293,-0.326782,0.927612,514
39855369,10016,-0.178345,-0.325073,0.925781,509
39865371,10002,-0.177490,-0.324951,0.923950,513
39875349,9978,-0.175049,-0.324219,0.919922,514
39885368,10019,-0.172974,-0.323608,0.917236,510
39895352,9984,-0.172974,-0.322998,0.918579,508
39905371,10019,-0.175049,-0.322021,0.920288,516
39915356,9985,-0.176147,-0.323975,0.924561,514
39925359,10003,-0.175781,-0.328857,0.927490,511
39935351,9992,-0.173096,-0.333740,0.929321,509
39945343,9992,-0.173828,-0.330566,0.928711,514
